ori10,ori11,ori12,ori13,ori14,ori16,ori17,ori18,ori19,ori20,corrAns,distractor,responses,dist_freq,practice_trials.thisRepN,practice_trials.thisTrialN,practice_trials.thisN,practice_trials.thisIndex,trials.thisRepN,trials.thisTrialN,trials.thisN,trials.thisIndex,intro_2.started,intro_2.stopped,key_resp.keys,key_resp.rt,key_resp.duration,start_et_record_2.started,start_et_record_2.stopped,fix_check_3.started,fix_check_3.stopped,fix_practice_2.started,fixdur,fix_practice_2.stopped,practice_search_2.started,int14_2.started,per15_2.started,practice_search_2.stopped,response_2.keys,response_2.corr,feedback_4.started,text_feedback.started,feedback_4.stopped,pause_pract_2.started,pause_pract_2.stopped,response_2.rt,response_2.duration,text_feedback.stopped,stop_et_record_2.started,stop_et_record_2.stopped,break_3.started,break_3.stopped,key_resp_2.keys,key_resp_2.rt,key_resp_2.duration,fix_check_2.started,fix_check_2.stopped,fixation_2.started,fixation_2.stopped,search_displays_2.started,int14.started,per15.started,int14.stopped,int14_3.started,per15.stopped,per15_3.started,search_displays_2.stopped,response.keys,response.corr,response.rt,response.duration,feedback_6.started,feedback_6.stopped,pause_4.started,pause_4.stopped,int14_3.stopped,per15_3.stopped,text_feedback_2.started,text_feedback_2.stopped,end_2.started,end_2.stopped,participant,session,group,age,gender,date,expName,psychopyVersion,frameRate,
,,,,,,,,,,,,,,,,,,,,,,1.0262771866109688e-05,26.102028629285087,space,26.090036165602214,None,,,,,,,,,,,,,,,,,,,,,,,,,,,,,,,,,,,,,,,,,,,,,,,,,,,,,,,2,001,2,35,f,2024-02-06_14h57.08.086,eye_track_exp,2023.1.3,120.09004637110216,
90,0,180,180,180,168,0,168,0,0,f,present,resp,freq_top,0,0,0,44,,,,,,,,,,480.28001780590967,480.7817797955531,480.8050041275592,481.01183265524196,481.0118470872658,0.8217965698248082,481.8344602070647,481.83447239410634,668.2174742292173,668.2174742292173,484.8482783879499,None,0,484.8487966579287,671.2148966699224,485.3392635050059,485.33927376777774,485.3398539351001,,,,,,,,,,,,,,,,,,,,,,,,,,,,,,,,,,,,,2,001,2,35,f,2024-02-06_14h57.08.086,eye_track_exp,2023.1.3,120.09004637110216,
0,0,0,-168,0,12,0,0,0,0,None,abs,inhibit,freq_top,0,1,1,21,,,,,,,,,,,,485.34042127395696,485.58170000250175,485.5817121895434,0.8264491252973092,486.4138991926411,486.41391137968276,672.7968622216458,672.7968622216458,489.4276622111274,None,1,489.4281352607677,,489.4288863673828,489.4288959887317,489.4295370912614,,,,,,,,,,,,,,,,,,,,,,,,,,,,,,,,,,,,,2,001,2,35,f,2024-02-06_14h57.08.086,eye_track_exp,2023.1.3,120.09004637110216,
90,0,0,12,0,12,180,180,180,0,j,present,resp,freq_top,0,2,2,32,,,,,,,,,,,,489.4300457398913,490.34434710490405,490.34436955471756,1.0292410273218067,491.37656643573337,491.37657926419797,677.7592565391496,677.7592565391496,493.7414634584393,f,0,493.7420939774847,680.1072491730447,494.2482413778289,494.2482513198893,494.24921986898335,2.3266600856868536,None,,,,,,,,,,,,,,,,,,,,,,,,,,,,,,,,,,,2,001,2,35,f,2024-02-06_14h57.08.086,eye_track_exp,2023.1.3,120.09004637110216,
0,0,0,-168,180,180,180,180,0,12,None,abs,inhibit,freq_top,0,3,3,25,,,,,,,,,,,,494.24975096742673,494.25056012284585,494.25057006490624,0.8919881660954215,495.1482527951621,495.1482653029161,681.5310124930002,681.5310124930002,496.7975944062764,j,0,496.7981171662177,683.1546137894447,497.2962656980326,497.2962746779576,497.2966341956844,1.6106521499978044,None,683.6541814701804,,,,,,,,,,,,,,,,,,,,,,,,,,,,,,,,,,2,001,2,35,f,2024-02-06_14h57.08.086,eye_track_exp,2023.1.3,120.09004637110216,
0,0,0,0,168,0,0,12,0,0,None,abs,inhibit,freq_top,0,4,4,29,,,,,,,,,,,,497.29716753910907,497.297955848273,497.29796611104484,0.7647126337806749,498.0623004772833,498.06231266432496,684.4451650478213,684.4451650478213,501.0760086540831,None,1,501.07637875529326,,501.0771272962156,501.0771388418334,501.0782558804085,,,,,,,,,,,,,,,,,,,,,,,,,,,,,,,,,,,,,2,001,2,35,f,2024-02-06_14h57.08.086,eye_track_exp,2023.1.3,120.09004637110216,
180,12,180,12,0,180,0,180,180,180,j,abs,resp,freq_top,0,5,5,5,,,,,,,,,,,,501.078767736155,501.8426752352261,501.8426883844031,0.9942926788211801,502.84171149680606,502.8417236838477,689.2243829989484,689.2243829989484,504.8906107183111,f,0,504.89110878345764,691.2559782249637,505.3969778061146,505.39698999315624,505.39840978350094,2.0134085380932447,None,,,,,,,,,,,,,,,,,,,,,,,,,,,,,,,,,,,2,001,2,35,f,2024-02-06_14h57.08.086,eye_track_exp,2023.1.3,120.09004637110216,
180,180,168,0,270,0,0,168,0,180,f,present,resp,freq_top,0,6,6,47,,,,,,,,,,,,505.39893735411624,505.39981289684056,505.39982283890095,0.8762375687648409,506.2803574395157,506.2803699472688,692.6630905182892,692.6630905182892,509.29392065466254,None,0,509.2943167335143,695.6521866438998,509.7848820390591,509.7848919811195,509.7858416082281,,,,,,,,,,,,,,,,,,,,,,,,,,,,,,,,,,,,,2,001,2,35,f,2024-02-06_14h57.08.086,eye_track_exp,2023.1.3,120.09004637110216,
180,0,180,0,168,180,0,180,12,180,None,abs,inhibit,freq_top,0,7,7,30,,,,,,,,,,,,509.78635602966733,509.9362297013604,509.93624188840204,0.7493472072288443,510.6846320764216,510.68464458417566,697.0676367979377,697.0676367979377,513.6984496158839,None,1,513.6988505054096,,513.6995547881288,513.6995647301892,513.7003049326095,,,,,,,,,,,,,,,,,,,,,,,,,,,,,,,,,,,,,2,001,2,35,f,2024-02-06_14h57.08.086,eye_track_exp,2023.1.3,120.09004637110216,
180,168,0,180,0,180,180,180,168,180,f,abs,resp,freq_top,0,8,8,12,,,,,,,,,,,,513.7007943385424,513.924255933005,513.9242687614696,1.0081295856261725,514.9316383937994,514.931650580841,701.3139869393399,701.3139869393399,517.2304473349832,j,0,517.2309816405432,703.595351092632,517.7363599744203,517.7363702371922,517.7372153123124,2.2582628804957494,None,,,,,,,,,,,,,,,,,,,,,,,,,,,,,,,,,,,2,001,2,35,f,2024-02-06_14h57.08.086,eye_track_exp,2023.1.3,120.09004637110216,
168,0,270,180,180,180,180,168,180,180,f,present,resp,freq_top,0,9,9,49,,,,,,,,,,,,517.7377592392213,519.6270976945325,519.6271134094022,0.8494900108117323,520.4770716848207,520.4770841925738,706.8592130506531,706.8592130506531,522.492496310213,f,1,522.4930190701543,,522.4937583104402,522.4937672903652,522.4943830566772,1.9769891678806744,None,,,,,,,,,,,,,,,,,,,,,,,,,,,,,,,,,,,2,001,2,35,f,2024-02-06_14h57.08.086,eye_track_exp,2023.1.3,120.09004637110216,
0,0,168,0,0,0,0,0,180,168,f,abs,resp,freq_top,0,10,10,19,,,,,,,,,,,,522.4948772732841,522.7332170005384,522.733229829003,1.00981532955316,523.7483517026267,523.7483642103798,710.2229747542224,710.2229747542224,526.7538624904028,None,0,526.7551761252007,713.1121701721513,527.2531649426282,527.2531748846886,527.2541248325088,,,,,,,,,,,,,,,,,,,,,,,,,,,,,,,,,,,,,2,001,2,35,f,2024-02-06_14h57.08.086,eye_track_exp,2023.1.3,120.09004637110216,
180,270,180,12,180,180,180,180,12,180,j,present,resp,freq_top,0,11,11,35,,,,,,,,,,,,527.2546424610646,527.4207768533443,527.4207890403859,0.9233295149359871,528.3446235583215,528.3446357453631,714.7274406635388,714.7274406635388,529.7025839093849,j,1,529.7030922373042,,529.7038192905475,529.7038285911849,529.7044639209053,1.3082929311749467,None,,,,,,,,,,,,,,,,,,,,,,,,,,,,,,,,,,,2,001,2,35,f,2024-02-06_14h57.08.086,eye_track_exp,2023.1.3,120.09004637110216,
180,0,180,12,0,180,180,0,12,180,j,abs,resp,freq_top,0,12,12,3,,,,,,,,,,,,529.7049812287496,529.7355495361553,529.7355607610616,1.066844949082151,530.8093388658226,530.8093504114413,717.1919863145931,717.1919863145931,531.8420087964787,j,1,531.8425398949221,,531.8425761353355,531.8425873602419,531.8431585476383,0.987898494367073,None,,,,,,,,,,,,,,,,,,,,,,,,,,,,,,,,,,,2,001,2,35,f,2024-02-06_14h57.08.086,eye_track_exp,2023.1.3,120.09004637110216,
168,0,180,0,0,180,180,0,168,0,f,abs,resp,freq_top,0,13,13,13,,,,,,,,,,,,531.843668479115,532.3247529077325,532.3247657361972,0.8823079699452685,533.206775610266,533.2067874765962,719.589921765607,719.589921765607,535.2236466450686,f,1,535.2241847991672,,535.2242203981577,535.2242287366598,535.2247117283605,1.9818681537644807,None,,,,,,,,,,,,,,,,,,,,,,,,,,,,,,,,,,,2,001,2,35,f,2024-02-06_14h57.08.086,eye_track_exp,2023.1.3,120.09004637110216,
0,180,180,180,168,0,0,0,0,12,None,abs,inhibit,freq_top,0,14,14,31,,,,,,,,,,,,535.2251908715216,535.5887989542243,535.5888117826889,0.8582415612119566,536.4462365453464,536.4462487323881,722.828802533365,722.828802533365,538.9109810376049,j,0,538.9114726885191,725.2683660320208,539.4105134400625,539.410522740699,539.4108950868904,2.422237280011359,None,725.7679369198722,,,,,,,,,,,,,,,,,,,,,,,,,,,,,,,,,,2,001,2,35,f,2024-02-06_14h57.08.086,eye_track_exp,2023.1.3,120.09004637110216,
180,180,0,168,180,180,180,0,0,168,f,abs,resp,freq_top,0,15,15,18,,,,,,,,,,,,539.4114467108784,539.7770682211349,539.777080728888,0.98112423772219,540.7589640501519,540.758976557905,727.1417571019983,727.1417571019983,543.4243393180259,j,0,543.4248290446712,729.7811486350829,543.9231760969788,543.9231860390382,543.9236472223492,2.621618883865267,None,730.2807224093394,,,,,,,,,,,,,,,,,,,,,,,,,,,,,,,,,,2,001,2,35,f,2024-02-06_14h57.08.086,eye_track_exp,2023.1.3,120.09004637110216,
180,0,180,0,12,180,180,180,12,180,j,abs,resp,freq_top,0,16,16,9,,,,,,,,,,,,543.9241545881332,544.6896518547073,544.6896643624605,0.8074819372658304,545.4962332420164,545.496246070481,731.8793380255574,731.8793380255574,547.3957020152884,j,1,547.39620906036,,547.3969707504593,547.3969797303844,547.3975307129485,1.8518532663310907,None,,,,,,,,,,,,,,,,,,,,,,,,,,,,,,,,,,,2,001,2,35,f,2024-02-06_14h57.08.086,eye_track_exp,2023.1.3,120.09004637110216,
0,180,0,180,168,180,12,180,0,180,None,abs,inhibit,freq_top,0,17,17,28,,,,,,,,,,,,547.3980550764481,548.2614296810907,548.2614434716907,1.0632155574492108,549.3267817294445,549.3267939164862,735.7093817128944,735.7093817128944,552.3402458446999,None,1,552.3413118901271,,552.341349092675,552.3413580726001,552.3418192559111,,,,,,,,,,,,,,,,,,,,,,,,,,,,,,,,,,,,,2,001,2,35,f,2024-02-06_14h57.08.086,eye_track_exp,2023.1.3,120.09004637110216,
0,168,180,90,0,180,0,168,0,0,f,present,resp,freq_top,0,18,18,48,,,,,,,,,,,,552.3423125103836,552.5914817069306,552.5914945353952,0.7146612476218355,553.3061400881188,553.3061525958719,739.6892888091525,739.6892888091525,555.4218910055142,f,1,555.4223756007732,,555.4224108790513,555.4224192175534,555.4228768730363,2.073015679186028,None,,,,,,,,,,,,,,,,,,,,,,,,,,,,,,,,,,,2,001,2,35,f,2024-02-06_14h57.08.086,eye_track_exp,2023.1.3,120.09004637110216,
180,12,180,12,180,90,180,180,0,180,j,present,resp,freq_top,0,19,19,37,,,,,,,,,,,,555.4233457534256,555.6971911434848,555.6972036512379,0.7513758752071076,556.4534503118284,556.453463140293,742.8365807522996,742.8365807522996,558.9862049103522,j,1,558.9867533272227,,558.9867892469247,558.9867979061382,558.9871471610932,2.4940574403290157,None,,,,,,,,,,,,,,,,,,,,,,,,,,,,,,,,,,,2,001,2,35,f,2024-02-06_14h57.08.086,eye_track_exp,2023.1.3,120.09004637110216,
0,180,0,-168,180,0,180,0,12,180,None,abs,inhibit,freq_top,0,20,20,24,,,,,,,,,,,,558.9876574132813,559.7016573735136,559.7016705226897,1.0107138552724406,560.7165816887782,560.7165938758199,747.0995902588329,747.0995902588329,563.7303729298874,None,1,563.7307593873902,,563.7307953070913,563.7308042870163,563.7319081764144,,,,,,,,,,,,,,,,,,,,,,,,,,,,,,,,,,,,,2,001,2,35,f,2024-02-06_14h57.08.086,eye_track_exp,2023.1.3,120.09004637110216,
12,0,0,-168,0,0,180,180,180,180,None,abs,inhibit,freq_top,0,21,21,27,,,,,,,,,,,,563.7323866781526,563.7332638244352,563.7332737664956,0.9844467426323713,564.721342652786,564.7213551605391,751.1044634719083,751.1044634719083,567.7352964946867,None,1,567.7356948185188,,567.7357304175093,567.7357393974344,567.737133530849,,,,,,,,,,,,,,,,,,,,,,,,,,,,,,,,,,,,,2,001,2,35,f,2024-02-06_14h57.08.086,eye_track_exp,2023.1.3,120.09004637110216,
180,0,180,0,12,0,12,180,180,180,j,abs,resp,freq_top,0,22,22,7,,,,,,,,,,,,567.7376428209027,568.2603761434175,568.260389613306,0.8424479934732437,569.1096942784407,569.1097148039844,755.4923824575872,755.4923824575872,572.123171542873,None,0,572.1235461340466,758.4814570955195,572.6141287580185,572.6141387000789,572.6147009075503,,,,,,,,,,,,,,,,,,,,,,,,,,,,,,,,,,,,,2,001,2,35,f,2024-02-06_14h57.08.086,eye_track_exp,2023.1.3,120.09004637110216,
12,0,0,12,0,0,90,180,180,0,j,present,resp,freq_top,0,23,23,38,,,,,,,,,,,,572.615228798878,572.6161020966201,572.6161126801044,0.7642661506137141,573.3809835968841,573.3809961046372,759.7636772281276,759.7636772281276,575.663802818799,j,1,575.6643201266434,,575.6650686675657,575.6650779682022,575.6656420999434,2.2383091655974567,None,,,,,,,,,,,,,,,,,,,,,,,,,,,,,,,,,,,2,001,2,35,f,2024-02-06_14h57.08.086,eye_track_exp,2023.1.3,120.09004637110216,
0,180,180,180,12,0,180,12,0,0,j,abs,resp,freq_top,0,24,24,8,,,,,,,,,,,,575.6661218845275,575.9130313469959,575.9130441754605,0.7828833442738565,576.6950497519938,576.6950619390354,763.0775057359269,763.0775057359269,578.4444909119948,j,1,578.4450197654578,,578.4450560058704,578.4450643443724,578.4455184720273,1.7079079489458309,None,,,,,,,,,,,,,,,,,,,,,,,,,,,,,,,,,,,2,001,2,35,f,2024-02-06_14h57.08.086,eye_track_exp,2023.1.3,120.09004637110216,
180,270,0,0,0,0,0,168,0,168,f,present,resp,freq_top,0,25,25,43,,,,,,,,,,,,578.4460258378112,579.5262162507152,579.5262293998912,1.0181583354995207,580.549583940815,580.5495964485681,766.9325081637135,766.9325081637135,582.8154763241064,f,1,582.8159647679049,,582.8160010083175,582.8160093468196,582.816476302939,2.220477278779981,None,,,,,,,,,,,,,,,,,,,,,,,,,,,,,,,,,,,2,001,2,35,f,2024-02-06_14h57.08.086,eye_track_exp,2023.1.3,120.09004637110216,
12,0,0,12,0,0,180,0,180,180,j,abs,resp,freq_top,0,26,26,6,,,,,,,,,,,,582.8169416555011,583.0391906393261,583.0392034677907,0.9408684174927935,583.9802319771297,583.9802441641714,770.3628893679606,770.3628893679606,585.8470885478373,j,1,585.8475795573286,,585.8476148356067,585.8476228533973,585.8480930166334,1.8298463556375282,None,,,,,,,,,,,,,,,,,,,,,,,,,,,,,,,,,,,2,001,2,35,f,2024-02-06_14h57.08.086,eye_track_exp,2023.1.3,120.09004637110216,
0,0,0,-168,0,0,0,12,0,0,None,abs,inhibit,freq_top,0,27,27,23,,,,,,,,,,,,585.8485683112549,586.3369514949336,586.3369649648212,0.9236192503923593,587.2608360438817,587.2608485516348,773.6433985040721,773.6433985040721,590.2741984935537,None,1,590.2746606389992,,590.2746972001241,590.2747061800492,590.2761355917419,,,,,,,,,,,,,,,,,,,,,,,,,,,,,,,,,,,,,2,001,2,35,f,2024-02-06_14h57.08.086,eye_track_exp,2023.1.3,120.09004637110216,
0,270,0,0,12,0,180,180,180,12,j,present,resp,freq_top,0,28,28,42,,,,,,,,,,,,590.2766445610841,590.5674642550866,590.5674857427648,0.7111625144948229,591.2818025660781,591.2818237330448,777.6649480799952,777.6649480799952,594.2957705192903,None,0,594.2965187395012,780.6540323392765,594.7867338279566,594.7867434493055,594.7878075704621,,,,,,,,,,,,,,,,,,,,,,,,,,,,,,,,,,,,,2,001,2,35,f,2024-02-06_14h57.08.086,eye_track_exp,2023.1.3,120.09004637110216,
0,180,0,12,0,180,180,12,0,0,j,abs,resp,freq_top,0,29,29,2,,,,,,,,,,,,594.7883332168085,595.0878602313105,595.0878733804866,0.8264895655211175,595.9198612216678,595.9198737294209,782.3026186745237,782.3026186745237,597.0857977348787,f,0,597.0863140805877,783.4432985061894,597.5854590634071,597.5854680433322,597.5857098598945,1.1215489687310765,None,783.9428690733293,,,,,,,,,,,,,,,,,,,,,,,,,,,,,,,,,,2,001,2,35,f,2024-02-06_14h57.08.086,eye_track_exp,2023.1.3,120.09004637110216,
180,168,180,0,180,0,180,0,0,168,f,abs,resp,freq_top,0,30,30,20,,,,,,,,,,,,597.5862226777754,598.1679618070948,598.167977842676,0.9588582182493299,599.1333823594505,599.1333951879151,785.516528194079,785.516528194079,600.63383552497,f,1,600.6343813761487,786.9985766818272,601.1395839600573,601.1395945435415,625.2365626641649,1.4592929420787186,None,,,,,,,,,,,,,,,,,,,,,,,,,,,,,,,,,,,2,001,2,35,f,2024-02-06_14h57.08.086,eye_track_exp,2023.1.3,120.09004637110216,
0,0,168,0,0,0,0,0,168,0,f,abs,resp,freq_top,0,31,31,11,,,,,,,,,,,,625.2371505285655,625.2380850822274,625.2380963071346,0.8200828877505627,626.0602322080422,626.0602443950838,812.4433491786249,812.4433491786249,627.9433456507977,j,0,627.9438578272557,814.3084036707369,628.4494109489669,628.4494212117388,628.4499141454999,1.8431546050460383,None,,,,,,,,,,,,,,,,,,,,,,,,,,,,,,,,,,,2,001,2,35,f,2024-02-06_14h57.08.086,eye_track_exp,2023.1.3,120.09004637110216,
180,270,180,12,180,0,12,180,0,180,j,present,resp,freq_top,0,32,32,33,,,,,,,,,,,,628.450447809636,628.725568028387,628.7255808568516,0.9774546944366512,629.7074975321248,629.7075100398779,816.0902059161026,816.0902059161026,631.5479986632745,j,1,631.5485454765876,,631.5492853582964,631.5492943382214,631.5498668084647,1.7961610519905662,None,,,,,,,,,,,,,,,,,,,,,,,,,,,,,,,,,,,2,001,2,35,f,2024-02-06_14h57.08.086,eye_track_exp,2023.1.3,120.09004637110216,
180,0,90,180,12,0,180,180,12,180,j,present,resp,freq_top,0,33,33,41,,,,,,,,,,,,631.5503597422248,631.5511304122492,631.5511406750211,0.7980005417627305,632.3469949000446,632.3470077285092,818.7295990527455,818.7295990527455,634.129402328238,j,1,634.1299087318876,,634.1299446515886,634.1299529900907,634.1306396336704,1.7333756587368043,None,,,,,,,,,,,,,,,,,,,,,,,,,,,,,,,,,,,2,001,2,35,f,2024-02-06_14h57.08.086,eye_track_exp,2023.1.3,120.09004637110216,
0,270,0,0,12,0,0,12,0,0,j,present,resp,freq_top,0,34,34,40,,,,,,,,,,,,634.1310985720002,634.7620114519705,634.7620249218589,0.820209612391297,635.5858285231943,635.5858413516589,821.968488479717,821.968488479717,636.6521132009393,j,1,636.6526090211055,,636.6526462236534,636.6526545621555,636.6531138211958,1.0217848841994055,None,,,,,,,,,,,,,,,,,,,,,,,,,,,,,,,,,,,2,001,2,35,f,2024-02-06_14h57.08.086,eye_track_exp,2023.1.3,120.09004637110216,
180,180,90,180,12,180,12,0,0,180,j,present,resp,freq_top,0,35,35,39,,,,,,,,,,,,636.6535798151808,637.48449070674,637.4845041766275,0.7637311827411267,638.2503555088315,638.2503676958731,824.632849016024,824.632849016024,639.533023996285,j,1,639.5335220614324,,639.5335592639804,639.5335676024824,639.534192028007,1.2371501138004533,None,,,,,,,,,,,,,,,,,,,,,,,,,,,,,,,,,,,2,001,2,35,f,2024-02-06_14h57.08.086,eye_track_exp,2023.1.3,120.09004637110216,
0,0,180,0,0,0,168,0,180,168,f,abs,resp,freq_top,0,36,36,15,,,,,,,,,,,,639.5346795096712,640.3404587972163,640.3404719463924,0.8430597296164043,641.1888754118745,641.1888879196276,827.5719927031687,827.5719927031687,642.2559981090844,f,1,642.2565195861798,,642.2565555058809,642.256563844383,642.2569031572775,1.0177330135848024,None,,,,,,,,,,,,,,,,,,,,,,,,,,,,,,,,,,,2,001,2,35,f,2024-02-06_14h57.08.086,eye_track_exp,2023.1.3,120.09004637110216,
180,180,0,168,180,180,180,180,168,180,f,abs,resp,freq_top,0,37,37,10,,,,,,,,,,,,642.2573560020865,642.9127706084482,642.9127843990473,0.9743319546873972,643.8871508813481,643.8871630683898,830.2696678004886,830.2696678004886,644.9538175266334,f,1,644.954327458111,,644.9543633778121,644.9543720370257,644.9548207125827,1.023776824075867,None,,,,,,,,,,,,,,,,,,,,,,,,,,,,,,,,,,,2,001,2,35,f,2024-02-06_14h57.08.086,eye_track_exp,2023.1.3,120.09004637110216,
0,180,0,0,180,168,180,0,0,168,f,abs,resp,freq_top,0,38,38,16,,,,,,,,,,,,644.9553101185165,645.8024798063934,645.8024929555695,1.0335145846429499,646.8427634309219,646.842775938675,833.2254544964726,833.2254544964726,648.4096811934069,f,1,648.4101949734231,,648.4102312138357,648.4102392316263,648.4107154883832,1.5237309623134934,None,,,,,,,,,,,,,,,,,,,,,,,,,,,,,,,,,,,2,001,2,35,f,2024-02-06_14h57.08.086,eye_track_exp,2023.1.3,120.09004637110216,
0,180,0,12,0,12,0,180,180,180,j,abs,resp,freq_top,0,39,39,0,,,,,,,,,,,,648.4112007250651,649.1242215527191,649.1242347018961,0.8444174089182288,649.9728649104927,649.9728774182458,836.3560825845252,836.3560825845252,651.5233587101748,j,1,651.5239347082461,,651.5239783250263,651.5239873049513,651.5247220552747,1.5128517827197356,None,,,,,,,,,,,,,,,,,,,,,,,,,,,,,,,,,,,2,001,2,35,f,2024-02-06_14h57.08.086,eye_track_exp,2023.1.3,120.09004637110216,
90,0,180,168,180,180,0,168,0,0,f,present,resp,freq_top,0,40,40,46,,,,,,,,,,,,651.525253153718,652.4214930023936,652.4215064722812,0.7109640086920138,653.1375913787588,653.1376042072234,839.5200159329534,839.5200159329534,654.2207435634782,f,1,654.2213064123725,,654.2213423320745,654.2213506705766,654.2216903041826,1.0371581957333547,None,,,,,,,,,,,,,,,,,,,,,,,,,,,,,,,,,,,2,001,2,35,f,2024-02-06_14h57.08.086,eye_track_exp,2023.1.3,120.09004637110216,
0,180,0,12,0,180,180,180,0,12,j,abs,resp,freq_top,0,41,41,4,,,,,,,,,,,,654.2221947835615,654.8775638488733,654.8775766773379,0.8687381867638394,655.7518609291792,655.7518737576438,842.134452574127,842.134452574127,657.5838080399844,j,1,657.5843154057675,,657.584351646181,657.5843596639716,657.5848096223754,1.7830670379453295,None,,,,,,,,,,,,,,,,,,,,,,,,,,,,,,,,,,,2,001,2,35,f,2024-02-06_14h57.08.086,eye_track_exp,2023.1.3,120.09004637110216,
180,270,0,0,168,0,0,168,180,0,f,present,resp,freq_top,0,42,42,45,,,,,,,,,,,,657.5852887655365,658.3251967726155,658.3252096010801,0.9215951934730733,659.2490117271418,659.2490242348949,845.6314423748563,845.6314423748563,661.3645881774155,f,1,661.3651327457474,,661.3651693068723,661.3651779660859,661.3656320937407,2.077794603044822,None,,,,,,,,,,,,,,,,,,,,,,,,,,,,,,,,,,,2,001,2,35,f,2024-02-06_14h57.08.086,eye_track_exp,2023.1.3,120.09004637110216,
0,180,0,0,180,0,180,168,0,168,f,abs,resp,freq_top,0,43,43,14,,,,,,,,,,,,661.366127272483,662.3879067986381,662.3879199478142,0.9109679472083585,663.3036507245197,663.3036629115613,849.6862850241141,849.6862850241141,665.4194305059618,f,1,665.4199474930938,,665.4199837335073,665.4199920720093,665.4204510103382,2.0707706978419083,None,,,,,,,,,,,,,,,,,,,,,,,,,,,,,,,,,,,2,001,2,35,f,2024-02-06_14h57.08.086,eye_track_exp,2023.1.3,120.09004637110216,
90,0,0,12,0,180,180,180,0,12,j,present,resp,freq_top,0,44,44,36,,,,,,,,,,,,665.4209426612524,666.1432942727961,666.1433077426846,0.9088152663970179,667.0587325605038,667.0587447475455,853.4413925170275,853.4413925170275,668.6920655303647,j,1,668.6925914974217,,668.6926274171237,668.6926357556258,668.6928820621506,1.59493856343488,None,,,,,,,,,,,,,,,,,,,,,,,,,,,,,,,,,,,2,001,2,35,f,2024-02-06_14h57.08.086,eye_track_exp,2023.1.3,120.09004637110216,
180,180,180,-168,180,180,12,180,0,180,None,abs,inhibit,freq_top,0,45,45,22,,,,,,,,,,,,668.6933820515669,669.3322306198779,669.3322434483434,1.0215657099837419,670.3559440371055,670.3559568655701,856.7385504347885,856.7385504347885,672.6046927807174,f,0,672.6052812865419,858.9699666395773,673.1109719935375,673.1109822563094,673.1114639651632,2.201559783126868,None,,,,,,,,,,,,,,,,,,,,,,,,,,,,,,,,,,,2,001,2,35,f,2024-02-06_14h57.08.086,eye_track_exp,2023.1.3,120.09004637110216,
180,12,180,-168,180,180,0,180,180,180,None,abs,inhibit,freq_top,0,46,46,26,,,,,,,,,,,,673.1119854422586,673.1128587400017,673.112869323485,1.0799558851274982,674.1946126220555,674.1946248090971,860.5769117780055,860.5769117780055,677.2077755890996,None,1,677.2081511424076,,677.2088916655393,677.2089016075997,677.2107995789702,,,,,,,,,,,,,,,,,,,,,,,,,,,,,,,,,,,,,2,001,2,35,f,2024-02-06_14h57.08.086,eye_track_exp,2023.1.3,120.09004637110216,
180,0,180,12,180,180,12,180,180,180,j,abs,resp,freq_top,0,47,47,1,,,,,,,,,,,,677.2118075755934,678.1248822186581,678.1248956885456,0.736024131943279,678.8653845043691,678.8653976535461,865.2479039892032,865.2479039892032,680.0652474963654,j,1,680.0657503721859,,680.0657866125994,680.0657952718129,680.0662593415282,1.1637991969182622,None,,,,,,,,,,,,,,,,,,,,,,,,,,,,,,,,,,,2,001,2,35,f,2024-02-06_14h57.08.086,eye_track_exp,2023.1.3,120.09004637110216,
0,0,180,0,168,0,0,0,180,168,f,abs,resp,freq_top,0,48,48,17,,,,,,,,,,,,680.066745219633,680.067470027896,680.0674799699564,0.8475760738075485,680.9130198013772,680.9130319884189,867.2961322819974,867.2961322819974,682.1800414102845,f,1,682.1805773194028,,682.1806125976809,682.180620936183,682.181082760917,1.227258405286193,None,,,,,,,,,,,,,,,,,,,,,,,,,,,,,,,,,,,2,001,2,35,f,2024-02-06_14h57.08.086,eye_track_exp,2023.1.3,120.09004637110216,
90,0,0,12,0,0,0,12,0,0,j,present,resp,freq_top,0,49,49,34,,,,,,,,,,,,682.1815837124686,682.8451116814076,682.8451350933565,1.0756183556775525,683.9272866578194,683.9272991655725,870.3102015800814,870.3102015800814,684.9771489763207,j,1,684.977648965737,,684.9776855268619,684.977693865364,684.9782907096906,1.012913680062411,None,,,,,,,,,,,,,,,,,,,,,,,,,,,,,,,,,,,2,001,2,35,f,2024-02-06_14h57.08.086,eye_track_exp,2023.1.3,120.09004637110216,
,,,,,,,,,,,,,,,,,,,,,,,,,,,,,,,,,,,,,,,,,,,,,,,,684.978341382126,685.4811822456613,685.4811992433779,688.2736596980312,space,2.776830479770979,None,,,,,,,,,,,,,,,,,,,,,,,,,,,2,001,2,35,f,2024-02-06_14h57.08.086,eye_track_exp,2023.1.3,120.09004637110216,
180,0,180,0,-168,180,-168,180,90,180,f,present,resp,freq_bottom,,,,,0,0,0,723,,,,,,688.273684392826,688.7748184291167,,,,0.7032200416070977,,,,,,,,,,,,,,,,,,,,,,,688.9601333005785,689.5231335706176,689.5231480026405,690.2303052597354,690.2303193710468,876.6131095364881,876.6131095364881,878.1034933192559,878.1034933192559,878.1034933192559,878.1034933192559,691.9881352735965,f,1,1.717539239623875,None,691.9894912423279,691.9895335762621,691.9895422354757,691.9900826345565,,,,,,,2,001,2,35,f,2024-02-06_14h57.08.086,eye_track_exp,2023.1.3,120.09004637110216,
180,12,0,180,180,168,0,0,90,0,None,present,inhibit,freq_bottom,,,,,0,1,1,48,,,,,,,,,,,0.9238602298513747,,,,,,,,,,,,,,,,,,,,,,,691.9905653055457,691.99150017992,691.9915101219794,692.9195174188108,692.9195312094107,879.3024737128717,879.3024737128717,880.792844025751,880.792844025751,880.792844025751,880.792844025751,695.9512656242687,None,1,,,695.9516639481017,695.9517008299381,695.9517101305746,695.9522649616783,882.2832284499427,882.2832284499427,,,,,2,001,2,35,f,2024-02-06_14h57.08.086,eye_track_exp,2023.1.3,120.09004637110216,
0,168,180,0,180,168,0,0,180,180,f,abs,resp,freq_bottom,,,,,0,2,2,857,,,,,,,,,,,0.9988979311345529,,,,,,,,,,,,,,,,,,,,,,,695.9527726481738,695.953522471943,695.9535324140033,696.949754751824,696.9497695045584,883.3406579591319,883.3406579591319,884.831048156132,884.831048156132,884.831048156132,884.831048156132,698.7987406296088,f,1,1.791470003116956,None,698.7992297148303,698.7992659552428,698.7992746144573,698.7998842872476,,,,,,,2,001,2,35,f,2024-02-06_14h57.08.086,eye_track_exp,2023.1.3,120.09004637110216,
0,168,0,0,0,0,0,0,168,0,f,abs,resp,freq_bottom,,,,,0,3,3,1000,,,,,,,,,,,1.0688721835891226,,,,,,,,,,,,,,,,,,,,,,,698.8003483569628,699.2477166936178,699.2477301635054,700.3216503435142,700.3216638134027,886.704429925473,886.704429925473,888.194808256143,888.194808256143,888.194808256143,888.194808256143,703.3527850276423,None,0,,,703.3531641087784,703.851832193418,703.851841814766,703.8520980633511,889.676872458761,889.676872458761,889.7101700220583,890.2097386649284,,,2,001,2,35,f,2024-02-06_14h57.08.086,eye_track_exp,2023.1.3,120.09004637110216,
180,168,180,0,0,180,180,90,180,168,f,present,resp,freq_bottom,,,,,0,4,4,636,,,,,,,,,,,0.8225603476810416,,,,,,,,,,,,,,,,,,,,,,,703.8526262753903,703.8533690435033,703.8533793062752,704.6762778594175,704.6762916500165,891.0590131831714,891.0590131831714,892.5493908724184,892.5493908724184,892.5493908724184,892.5493908724184,707.7077204267007,None,0,,,707.7080950178733,708.2067833073452,708.2067938908285,708.2071543706907,894.0397720894935,894.0397720894935,894.0647587318545,894.5643260918787,,,2,001,2,35,f,2024-02-06_14h57.08.086,eye_track_exp,2023.1.3,120.09004637110216,
0,0,168,0,0,0,168,0,270,0,f,present,resp,freq_bottom,,,,,0,5,5,646,,,,,,,,,,,0.8862004719990455,,,,,,,,,,,,,,,,,,,,,,,708.2076976561757,708.208442027847,708.2084522906189,709.0979947185215,709.098008188409,895.4885281453307,895.4885281453307,896.9789096831173,896.9789096831173,896.9789096831173,896.9789096831173,712.1373255088256,None,0,,,712.1377065142306,712.6360772991984,712.6360869205464,712.6365179569648,898.4526411564084,898.4526411564084,898.4942785046878,898.9938442611538,,,2,001,2,35,f,2024-02-06_14h57.08.086,eye_track_exp,2023.1.3,120.09004637110216,
0,0,12,0,0,90,0,0,12,0,j,present,resp,freq_bottom,,,,,0,6,6,653,,,,,,,,,,,0.8689000106239986,,,,,,,,,,,,,,,,,,,,,,,712.6370391133478,712.8027944244932,712.8028069322463,713.676871817338,713.67689394644,900.0595994440137,900.0595994440137,901.5499906031491,901.5499906031491,901.5499906031491,901.5499906031491,716.7077271616445,None,0,,,716.708093414315,717.207057195069,717.2070671371293,717.2073070294218,903.0403660474149,903.0403660474149,903.065320297902,903.5649091456044,,,2,001,2,35,f,2024-02-06_14h57.08.086,eye_track_exp,2023.1.3,120.09004637110216,
180,180,180,12,180,168,0,0,90,0,None,present,inhibit,freq_bottom,,,,,0,7,7,90,,,,,,,,,,,0.913189186749991,,,,,,,,,,,,,,,,,,,,,,,717.2078208094381,717.5983773274847,717.5983914387962,718.5143643527754,718.5143781433753,904.8970977522604,904.8970977522604,906.3958030394479,906.3958030394479,906.3958030394479,906.3958030394479,721.5455086582524,None,1,,,721.5458935121969,721.5466795763787,721.546689518439,721.5472469152355,907.8695341920275,907.8695341920275,,,,,2,001,2,35,f,2024-02-06_14h57.08.086,eye_track_exp,2023.1.3,120.09004637110216,
180,-12,180,12,0,180,90,180,180,180,j,present,resp,freq_bottom,,,,,0,8,8,621,,,,,,,,,,,0.7308012784983896,,,,,,,,,,,,,,,,,,,,,,,721.5477446596706,721.5486400865157,721.5486583670781,722.2863422390674,722.2863563503788,908.6771800212055,908.6771800212055,910.1675455234108,910.1675455234108,910.1675455234108,910.1675455234108,725.3252968346405,None,0,,,725.3256826507204,725.8246451486275,725.8246554113994,725.8248981900961,911.6412939944175,911.6412939944175,911.6829197970792,912.1825028719722,,,2,001,2,35,f,2024-02-06_14h57.08.086,eye_track_exp,2023.1.3,120.09004637110216,
12,0,0,0,0,0,0,0,-168,0,None,abs,inhibit,freq_bottom,,,,,0,9,9,335,,,,,,,,,,,1.0251504675648913,,,,,,,,,,,,,,,,,,,,,,,725.825442117005,725.8261961100252,725.82620701422,726.8572765938889,726.8573086650513,913.2399179491385,913.2399179491385,914.7302921105575,914.7302921105575,914.7302921105575,914.7302921105575,729.8886213441283,None,1,,,729.8890068394967,729.8897245921034,729.8897342134514,729.8904259884175,916.2206794211534,916.2206794211534,,,,,2,001,2,35,f,2024-02-06_14h57.08.086,eye_track_exp,2023.1.3,120.09004637110216,
0,180,180,12,180,180,0,90,180,12,j,present,resp,freq_bottom,,,,,0,10,10,495,,,,,,,,,,,1.0480317373631003,,,,,,,,,,,,,,,,,,,,,,,729.8909195636015,729.9798176177155,729.979830446181,731.028482399026,731.0284968310489,917.4113222747683,917.4113222747683,918.9017121510569,918.9017121510569,918.9017121510569,918.9017121510569,732.5862255641805,f,0,1.510061270908409,None,732.5867518519499,733.0926648120985,733.0926766784287,733.0936282298071,,,918.9516713244684,,,,2,001,2,35,f,2024-02-06_14h57.08.086,eye_track_exp,2023.1.3,120.09004637110216,
0,168,180,180,180,168,0,180,0,180,f,abs,resp,freq_bottom,,,,,0,11,11,763,,,,,,,,,,,0.7727645693132623,,,,,,,,,,,,,,,,,,,,,,,733.0941740809849,733.7852098063358,733.7852239176464,734.5585103073508,734.5585244186623,920.9416147701804,920.9416147701804,,,,,735.8257089490735,j,0,1.2270069673750186,None,735.8262099006242,736.3242221299997,736.3242320720601,736.3245781198993,,,922.1822158350715,922.6817825536727,,,2,001,2,35,f,2024-02-06_14h57.08.086,eye_track_exp,2023.1.3,120.09004637110216,
0,0,12,0,0,0,-168,0,90,0,None,present,inhibit,freq_bottom,,,,,0,12,12,234,,,,,,,,,,,0.8897439194276388,,,,,,,,,,,,,,,,,,,,,,,736.3251028041104,736.5656240118078,736.5656384438307,737.4563681461523,737.4563822574637,923.847463139009,923.847463139009,,,,,738.3478473515315,f,0,0.8336961779314151,None,738.3483710736082,738.8467322372271,738.8467418585751,738.8469987485832,,,924.7050328633195,925.2046175417709,,,2,001,2,35,f,2024-02-06_14h57.08.086,eye_track_exp,2023.1.3,120.09004637110216,
90,0,12,0,0,0,12,0,0,0,j,present,resp,freq_bottom,,,,,0,13,13,648,,,,,,,,,,,0.7820455830552824,,,,,,,,,,,,,,,,,,,,,,,738.8475426754922,739.147170393443,739.1471838633306,739.9297150862112,739.9297442709685,926.3120059036592,926.3120059036592,,,,,740.6796462935681,f,0,0.7048464358158526,None,740.6802149152718,741.1785276514356,741.178538234919,741.178804746276,,,927.0363741498732,927.5359389442037,,,2,001,2,35,f,2024-02-06_14h57.08.086,eye_track_exp,2023.1.3,120.09004637110216,
180,180,12,0,0,0,90,0,-168,180,None,present,inhibit,freq_bottom,,,,,0,14,14,221,,,,,,,,,,,0.7766452996808868,,,,,,,,,,,,,,,,,,,,,,,741.1793457867798,741.3116707600166,741.3116839091927,742.0939322644235,742.0939460550226,928.4767949106908,928.4767949106908,,,,,743.0120234786564,j,0,0.8759290876896557,None,743.0125545771007,743.5098012678372,743.5098115306091,743.5101822732431,,,929.3677003629809,929.8672648366,,,2,001,2,35,f,2024-02-06_14h57.08.086,eye_track_exp,2023.1.3,120.09004637110216,
180,0,180,168,180,180,168,180,180,0,f,abs,resp,freq_bottom,,,,,0,15,15,838,,,,,,,,,,,0.827881871060604,,,,,,,,,,,,,,,,,,,,,,,743.5107207480542,743.6844242552916,743.6844370837571,744.516786366934,744.5168001575339,930.8997112312563,930.8997112312563,,,,,745.300636355998,f,1,0.7401298454669814,None,745.3011905456788,745.3019243338658,745.3019345966377,745.3027075116433,,,,,,,2,001,2,35,f,2024-02-06_14h57.08.086,eye_track_exp,2023.1.3,120.09004637110216,
180,0,180,0,-12,180,180,-12,180,90,j,present,resp,freq_bottom,,,,,0,16,16,739,,,,,,,,,,,0.7830388791109137,,,,,,,,,,,,,,,,,,,,,,,745.3032065389252,745.517206819869,745.5172206104689,746.2988631414473,746.2988775734702,932.6815086659481,932.6815086659481,,,,,747.5574388098266,j,1,1.2151364681622,None,747.5579606076335,747.5579978101814,747.5580067901064,747.5582614351333,,,,,,,2,001,2,35,f,2024-02-06_14h57.08.086,eye_track_exp,2023.1.3,120.09004637110216,
12,0,0,0,0,180,90,180,-168,180,None,present,inhibit,freq_bottom,,,,,0,17,17,265,,,,,,,,,,,1.096980349825508,,,,,,,,,,,,,,,,,,,,,,,747.5587364090434,747.7810453659422,747.7810585151183,748.8801959291432,748.8802093990316,935.26262689757,935.26262689757,,,,,749.9294848152676,j,0,1.0016198203429667,None,749.9300082166319,750.4287709111995,750.4287805325484,750.4291682728981,,,936.2867456942859,936.7863152992913,,,2,001,2,35,f,2024-02-06_14h57.08.086,eye_track_exp,2023.1.3,120.09004637110216,
0,0,0,180,180,168,0,168,0,270,f,present,resp,freq_bottom,,,,,0,18,18,473,,,,,,,,,,,0.8353612140734168,,,,,,,,,,,,,,,,,,,,,,,750.4297064269967,750.9368518819037,750.9368656725037,751.777175338816,751.777189129416,938.1601255393562,938.1601255393562,939.6505147742218,939.6505147742218,939.6505147742218,939.6505147742218,754.8083026465765,None,0,,,754.8086656921314,755.3080855248099,755.3080954668694,755.3083462633567,941.1408985569897,941.1408985569897,941.1658810300996,941.6654483901239,,,2,001,2,35,f,2024-02-06_14h57.08.086,eye_track_exp,2023.1.3,120.09004637110216,
168,180,0,0,168,0,180,0,0,180,f,abs,resp,freq_bottom,,,,,0,19,19,916,,,,,,,,,,,0.8518103557760688,,,,,,,,,,,,,,,,,,,,,,,755.3088857003031,755.5408920144737,755.5409048429383,756.3984893199822,756.3985027898707,942.781143182985,942.781143182985,944.2715199100976,944.2715199100976,944.2715199100976,944.2715199100976,759.429468458975,None,0,,,759.429853633631,759.9291554444326,759.9291669900513,759.9296406811145,945.7619136349258,945.7619136349258,945.786911502194,946.286467637311,,,2,001,2,35,f,2024-02-06_14h57.08.086,eye_track_exp,2023.1.3,120.09004637110216,
168,0,0,0,0,-168,0,0,180,180,f,abs,resp,freq_bottom,,,,,0,20,20,1006,,,,,,,,,,,0.7462403505054039,,,,,,,,,,,,,,,,,,,,,,,759.9301871737161,760.2625617931117,760.2625762251346,761.0113002739527,761.0113140645517,947.3938393221952,947.3938393221952,948.8758987141382,948.8758987141382,948.8758987141382,948.8758987141382,762.5132614255126,f,1,1.4619189288287089,None,762.513783544031,762.5145349713575,762.5145445927064,762.5150978202519,,,,,,,2,001,2,35,f,2024-02-06_14h57.08.086,eye_track_exp,2023.1.3,120.09004637110216,
0,0,0,180,-12,0,90,180,0,-12,j,present,resp,freq_bottom,,,,,0,21,21,732,,,,,,,,,,,0.8747599039869779,,,,,,,,,,,,,,,,,,,,,,,762.5155881883193,763.6507796820215,763.650793151909,764.5243721588959,764.5243856287843,950.9074904123254,950.9074904123254,,,,,765.5746449882718,j,1,1.0032605809938104,None,765.5751863494879,765.5752245141703,765.5752331733838,765.5758361112312,,,,,,,2,001,2,35,f,2024-02-06_14h57.08.086,eye_track_exp,2023.1.3,120.09004637110216,
0,0,0,12,0,12,0,180,0,90,j,present,resp,freq_bottom,,,,,0,22,22,625,,,,,,,,,,,0.9506455066783848,,,,,,,,,,,,,,,,,,,,,,,765.5763191029318,765.8155006981897,765.8155135266543,766.7730785685744,766.7730923591744,953.1555477016836,953.1555477016836,,,,,767.7738829133186,j,1,0.9635789321764605,None,767.7743970140473,767.7744377444224,767.7744467243483,767.7749053419657,,,,,,,2,001,2,35,f,2024-02-06_14h57.08.086,eye_track_exp,2023.1.3,120.09004637110216,
0,168,180,180,180,270,180,180,180,12,None,present,inhibit,freq_bottom,,,,,0,23,23,14,,,,,,,,,,,0.7658929625772983,,,,,,,,,,,,,,,,,,,,,,,767.7753966721684,768.5054030286728,768.5054171399843,769.2703060166141,769.270319807214,955.6534059894811,955.6534059894811,957.1437868858447,957.1437868858447,957.1437868858447,957.1437868858447,770.7956749472269,j,0,1.48904279342878,None,770.7962092527869,771.3014208166223,771.3014323622401,771.3024935969925,,,957.1604359882049,,,,2,001,2,35,f,2024-02-06_14h57.08.086,eye_track_exp,2023.1.3,120.09004637110216,
-12,0,0,0,0,0,270,0,-168,0,None,present,inhibit,freq_bottom,,,,,0,24,24,280,,,,,,,,,,,0.9380528365615919,,,,,,,,,,,,,,,,,,,,,,,771.3030429759992,771.485818132137,771.485830639891,772.4262735298098,772.4262869996983,958.8090200784709,958.8090200784709,,,,,773.310621070882,f,0,0.8461064348020955,None,773.3111310023587,773.808429327667,773.8084389490159,773.8088808896291,,,959.6666119318834,960.1661879511203,,,2,001,2,35,f,2024-02-06_14h57.08.086,eye_track_exp,2023.1.3,120.09004637110216,
0,180,0,0,168,180,90,0,168,180,f,present,resp,freq_bottom,,,,,0,25,25,559,,,,,,,,,,,1.0454702051529168,,,,,,,,,,,,,,,,,,,,,,,773.8094180815933,774.4832473077868,774.4832617398097,775.5319617993982,775.5319755899973,961.9146730697803,961.9146730697803,963.4050700017251,963.4050700017251,963.4050700017251,963.4050700017251,778.5628533841173,None,0,,,778.5632488215451,779.0618524431493,779.0618617437867,779.0621253687386,964.8954438424325,964.8954438424325,964.9204381818727,965.4199885441803,,,2,001,2,35,f,2024-02-06_14h57.08.086,eye_track_exp,2023.1.3,120.09004637110216,
180,-168,180,-168,0,180,180,90,180,180,f,present,resp,freq_bottom,,,,,0,26,26,698,,,,,,,,,,,1.0871732088843713,,,,,,,,,,,,,,,,,,,,,,,779.062652297931,779.0634024424116,779.0634127051835,780.153066355876,780.1530795050521,966.5440410818755,966.5440410818755,,,,,780.9954747590336,f,1,0.7910171583080228,None,780.9959981603988,780.9967367592608,780.9967467013212,780.9973066638104,,,,,,,2,001,2,35,f,2024-02-06_14h57.08.086,eye_track_exp,2023.1.3,120.09004637110216,
0,0,270,0,0,0,-168,0,0,-168,f,present,resp,freq_bottom,,,,,0,27,27,630,,,,,,,,,,,1.0449257389698765,,,,,,,,,,,,,,,,,,,,,,,780.9977883726651,781.2446093187255,781.2446224679015,782.2925752694146,782.2925890600136,968.6755190557224,968.6755190557224,970.1659041213361,970.1659041213361,970.1659041213361,970.1659041213361,783.8339938923682,j,0,1.5064311360747524,None,783.8345205008491,784.3402496932395,784.3402612388581,784.341340754173,,,970.199228303698,,,,2,001,2,35,f,2024-02-06_14h57.08.086,eye_track_exp,2023.1.3,120.09004637110216,
180,12,180,0,180,0,180,0,180,168,None,abs,inhibit,freq_bottom,,,,,0,28,28,342,,,,,,,,,,,0.9878226054000447,,,,,,,,,,,,,,,,,,,,,,,784.3418850017933,784.5582072348698,784.5582203840459,785.5479213717736,785.547934841662,971.9310511708218,971.9310511708218,,,,,786.4326207334934,j,0,0.8430946319722352,None,786.4331114222732,786.9306839560168,786.9306942187886,786.9310726585009,,,972.7886471934844,973.2882174399128,,,2,001,2,35,f,2024-02-06_14h57.08.086,eye_track_exp,2023.1.3,120.09004637110216,
0,0,168,0,0,0,0,0,168,0,f,abs,resp,freq_bottom,,,,,0,29,29,986,,,,,,,,,,,1.0541563831581777,,,,,,,,,,,,,,,,,,,,,,,786.9316047190796,787.4139331880724,787.4139466579609,788.4712536553106,788.4712671251991,974.8535316442949,974.8535316442949,,,,,789.2301798614917,f,1,0.7203483527082426,None,789.2306676638664,789.231395037822,789.2314049798824,789.2319588488508,,,,,,,2,001,2,35,f,2024-02-06_14h57.08.086,eye_track_exp,2023.1.3,120.09004637110216,
0,0,-168,180,0,12,0,270,180,180,None,present,inhibit,freq_bottom,,,,,0,30,30,187,,,,,,,,,,,0.7129403092761244,,,,,,,,,,,,,,,,,,,,,,,789.232437350589,789.4709954824566,789.4710089523442,790.1858350657112,790.1858485355988,976.5687326695452,976.5687326695452,,,,,790.969244397008,f,0,0.7336553192708379,None,790.9697767782982,791.4757397694602,791.475751315078,791.4767144120751,,,977.3347504510803,,,,2,001,2,35,f,2024-02-06_14h57.08.086,eye_track_exp,2023.1.3,120.09004637110216,
180,180,-12,0,0,0,270,0,-168,180,None,present,inhibit,freq_bottom,,,,,0,31,31,298,,,,,,,,,,,1.0062724040966682,,,,,,,,,,,,,,,,,,,,,,,791.4772423034028,791.4781560108095,791.4781662735813,792.4838884103165,792.483901880204,978.8667545844119,978.8667545844119,,,,,793.1844871147696,f,0,0.6589311152283699,None,793.1849806899536,793.6826991474845,793.682708448122,793.683074380081,,,979.5411694300246,980.0407351864906,,,2,001,2,35,f,2024-02-06_14h57.08.086,eye_track_exp,2023.1.3,120.09004637110216,
0,-12,0,0,0,0,-12,0,90,0,j,present,resp,freq_bottom,,,,,0,32,32,675,,,,,,,,,,,0.7978094273014991,,,,,,,,,,,,,,,,,,,,,,,793.68363626684,793.6843963533811,793.6844062954415,794.4827274342497,794.4827409041382,980.8650307594507,980.8650307594507,982.355405883005,982.355405883005,982.355405883005,982.355405883005,797.5137774505101,None,0,,,797.5141578144921,798.0128165984943,798.0128268612661,798.0131815683189,983.8458085877592,983.8458085877592,983.8707856087713,984.3703433474466,,,2,001,2,35,f,2024-02-06_14h57.08.086,eye_track_exp,2023.1.3,120.09004637110216,
180,12,0,180,-168,90,0,180,0,180,None,present,inhibit,freq_bottom,,,,,0,33,33,306,,,,,,,,,,,0.8453348260625783,,,,,,,,,,,,,,,,,,,,,,,798.0136879719676,798.0145375370503,798.0145474791107,798.8617688015584,798.8617838750051,985.2445852653536,985.2445852653536,,,,,800.2288248548948,f,0,1.3206762482695922,None,800.2293363899289,800.7269967986567,800.7270070614286,800.7274922981105,,,986.5851091670283,987.0846681885496,,,2,001,2,35,f,2024-02-06_14h57.08.086,eye_track_exp,2023.1.3,120.09004637110216,
0,0,0,180,180,180,168,180,180,-168,f,abs,resp,freq_bottom,,,,,0,34,34,805,,,,,,,,,,,0.9964112390729043,,,,,,,,,,,,,,,,,,,,,,,800.7280259622476,800.728872640926,800.7288832244094,801.7256815603005,801.725695030189,988.1087946823445,988.1087946823445,,,,,802.5761523328883,j,0,0.8086081906976688,None,802.5766856763139,803.0744981023499,803.074507082275,803.0749410050976,,,988.9330848032077,989.4326502389622,,,2,001,2,35,f,2024-02-06_14h57.08.086,eye_track_exp,2023.1.3,120.09004637110216,
180,0,180,0,-168,180,180,0,12,0,None,abs,inhibit,freq_bottom,,,,,0,35,35,381,,,,,,,,,,,0.9141722090276514,,,,,,,,,,,,,,,,,,,,,,,803.0754490123045,803.9910656156735,803.9910797269849,804.9070507166944,804.9070641865828,991.2893877166161,991.2893877166161,,,,,806.0232044478853,f,0,1.0672120816989263,None,806.0237127758046,806.5217461721468,806.5217561142072,806.5221444959798,,,992.3801135062567,992.8796821491269,,,2,001,2,35,f,2024-02-06_14h57.08.086,eye_track_exp,2023.1.3,120.09004637110216,
180,180,180,0,12,0,0,0,0,168,None,abs,inhibit,freq_bottom,,,,,0,36,36,411,,,,,,,,,,,1.0393982387392637,,,,,,,,,,,,,,,,,,,,,,,806.522682329367,806.5234706385309,806.5234809013027,807.562298232302,807.562312022902,993.9454328420243,993.9454328420243,,,,,808.5295179768491,j,0,0.9229867830690637,None,808.5300849949945,809.0282498831011,809.0282595044491,809.028726781281,,,994.8862888085114,995.3858580928045,,,2,001,2,35,f,2024-02-06_14h57.08.086,eye_track_exp,2023.1.3,120.09004637110216,
168,0,168,0,0,0,0,180,0,180,f,abs,resp,freq_bottom,,,,,0,37,37,976,,,,,,,,,,,1.0691144099170573,,,,,,,,,,,,,,,,,,,,,,,809.0292594832827,809.3865540370216,809.386568148333,810.4602914114075,810.4603238032805,996.842934690927,996.842934690927,,,,,811.311241006445,f,1,0.8101889782756189,None,811.3118336815196,811.3126011444274,811.3126114071993,811.3131822738842,,,,,,,2,001,2,35,f,2024-02-06_14h57.08.086,eye_track_exp,2023.1.3,120.09004637110216,
180,168,180,180,180,180,0,168,180,0,f,abs,resp,freq_bottom,,,,,0,38,38,760,,,,,,,,,,,0.8753248339583456,,,,,,,,,,,,,,,,,,,,,,,811.3136995817285,811.5426087837786,811.5426216122432,812.4250458457263,812.4250593156148,998.8079152269383,998.8079152269383,,,,,813.4754767859313,f,1,1.0043965415543425,None,813.4759982630258,813.476036427709,813.4760450869226,813.4764988938659,,,,,,,2,001,2,35,f,2024-02-06_14h57.08.086,eye_track_exp,2023.1.3,120.09004637110216,
12,0,0,0,0,168,180,0,0,180,None,abs,inhibit,freq_bottom,,,,,0,39,39,401,,,,,,,,,,,0.8618184654190852,,,,,,,,,,,,,,,,,,,,,,,813.4770117117469,813.7074661023853,813.7074792515623,814.5732107659042,814.5732242357926,1000.9560612251307,1000.9560612251307,,,,,815.9727892225501,f,0,1.3519395377570618,None,815.9732972297579,816.4792445060502,816.4792566930919,816.4804490988972,,,1002.3382167022755,,,,2,001,2,35,f,2024-02-06_14h57.08.086,eye_track_exp,2023.1.3,120.09004637110216,
180,0,180,-168,180,180,180,0,-168,180,f,abs,resp,freq_bottom,,,,,0,40,40,883,,,,,,,,,,,0.7283335110993999,,,,,,,,,,,,,,,,,,,,,,,816.4809577475271,817.1126903664008,817.1127044777122,817.8456803031113,817.8456937729998,1004.2282498189579,1004.2282498189579,,,,,819.0620192131919,f,1,1.1675508814550994,None,819.0625592915612,819.0632988525585,819.0633091153304,819.0640656740434,,,,,,,2,001,2,35,f,2024-02-06_14h57.08.086,eye_track_exp,2023.1.3,120.09004637110216,
0,180,180,0,180,168,0,168,180,0,f,abs,resp,freq_bottom,,,,,0,41,41,848,,,,,,,,,,,1.0148946248462045,,,,,,,,,,,,,,,,,,,,,,,819.0645842647336,819.3205336256515,819.3205467748285,820.3353662173931,820.3353800079922,1006.7177680010618,1006.7177680010618,,,,,821.5180397079475,f,1,1.1421604631641458,None,821.5185332831315,821.518569523545,821.5185804277398,849.6104248595129,,,,,,,2,001,2,35,f,2024-02-06_14h57.08.086,eye_track_exp,2023.1.3,120.09004637110216,
0,0,180,180,180,90,0,168,0,12,None,present,inhibit,freq_bottom,,,,,0,42,42,21,,,,,,,,,,,0.8832947787257781,,,,,,,,,,,,,,,,,,,,,,,849.6109626929001,852.0579038416763,852.0579173115648,852.9404194779718,852.9404332685717,1039.3396871650566,1039.3396871650566,1040.8217311628423,1040.8217311628423,1040.8217311628423,1040.8217311628423,855.9880127617571,None,1,,,855.9883934464506,855.9884309697109,855.9884399496359,855.9887824696461,1042.2954690503657,1042.2954690503657,,,,,2,001,2,35,f,2024-02-06_14h57.08.086,eye_track_exp,2023.1.3,120.09004637110216,
0,90,0,180,0,180,-12,180,180,-12,j,present,resp,freq_bottom,,,,,0,43,43,603,,,,,,,,,,,1.0427114432743558,,,,,,,,,,,,,,,,,,,,,,,855.9892991360675,856.1884376405123,856.1884517518238,857.2367284720722,857.2367605432346,1043.62765926058,1043.62765926058,1045.101382395369,1045.101382395369,1045.101382395369,1045.101382395369,858.7378551319953,j,1,1.4462874444407134,None,858.7383618563563,858.7383990589042,858.7384077181177,858.7387685186914,,,,,,,2,001,2,35,f,2024-02-06_14h57.08.086,eye_track_exp,2023.1.3,120.09004637110216,
168,0,168,0,0,0,0,180,0,180,f,abs,resp,freq_bottom,,,,,0,44,44,974,,,,,,,,,,,1.0657181074942677,,,,,,,,,,,,,,,,,,,,,,,858.739233550541,858.9772961829549,858.977309332131,860.0423403481518,860.0423538180403,1046.425252063298,1046.425252063298,,,,,861.2256148522838,f,1,1.1443320015478093,None,861.2261356879553,861.2261732112156,861.2261818704292,861.2266443365861,,,,,,,2,001,2,35,f,2024-02-06_14h57.08.086,eye_track_exp,2023.1.3,120.09004637110216,
0,180,0,0,0,0,168,0,168,180,f,abs,resp,freq_bottom,,,,,0,45,45,990,,,,,,,,,,,1.042189230562806,,,,,,,,,,,,,,,,,,,,,,,861.2271398360399,861.5081297188708,861.5081431887593,862.5572993002716,862.557313411583,1048.9397148745402,1048.9397148745402,,,,,863.7074718751946,f,1,1.1100254794919238,None,863.7079930315786,863.7080308755494,863.7080398554745,863.7084994352272,,,,,,,2,001,2,35,f,2024-02-06_14h57.08.086,eye_track_exp,2023.1.3,120.09004637110216,
168,0,168,0,0,0,0,180,0,180,f,abs,resp,freq_bottom,,,,,0,46,46,978,,,,,,,,,,,0.9336928746463751,,,,,,,,,,,,,,,,,,,,,,,863.7089808233695,864.5635717781479,864.5635865308823,865.5047131779766,865.504726647865,1051.8872134201129,1051.8872134201129,,,,,866.4542655607675,f,1,0.9142945360154044,None,866.4547860757284,866.4548242404107,866.4548328996243,866.4553832407655,,,,,,,2,001,2,35,f,2024-02-06_14h57.08.086,eye_track_exp,2023.1.3,120.09004637110216,
-168,180,0,12,180,90,180,180,0,180,None,present,inhibit,freq_bottom,,,,,0,47,47,94,,,,,,,,,,,0.9633817235914099,,,,,,,,,,,,,,,,,,,,,,,866.4558739295453,866.7704532232483,866.7704663724244,867.7360065502144,867.7360200201028,1054.1186206449765,1054.1186206449765,,,,,868.7865747549931,j,0,1.003067512598136,None,868.7870705751584,869.2920752799973,869.2920877877505,869.2928465914456,,,1055.1510631910933,,,,2,001,2,35,f,2024-02-06_14h57.08.086,eye_track_exp,2023.1.3,120.09004637110216,
0,0,0,0,180,180,-168,180,90,12,None,present,inhibit,freq_bottom,,,,,0,48,48,136,,,,,,,,,,,0.7392044815046916,,,,,,,,,,,,,,,,,,,,,,,869.2934132888786,869.9423219393047,869.9423354091932,870.682943850451,870.6829579617624,1057.0660832708472,1057.0660832708472,1058.5564692985972,1058.5564692985972,1058.5564692985972,1058.5564692985972,872.3412413335709,j,0,1.6082067238912714,None,872.3417371537362,872.8394812681963,872.8394912102567,872.839759966595,,,1058.6980102409634,1059.197579845968,,,2,001,2,35,f,2024-02-06_14h57.08.086,eye_track_exp,2023.1.3,120.09004637110216,
-168,180,180,0,180,180,12,0,270,180,None,present,inhibit,freq_bottom,,,,,0,49,49,109,,,,,,,,,,,0.9717966480909923,,,,,,,,,,,,,,,,,,,,,,,872.8402785572853,873.6396942848551,873.6397083961665,874.6131066500839,874.6131207613953,1060.9960363250802,1060.9960363250802,,,,,875.9143109863617,j,0,1.2607195315094941,None,875.9148231628196,876.4118524110781,876.411862032427,876.4122863339007,,,1062.2699371982499,1062.7695055204085,,,2,001,2,35,f,2024-02-06_14h57.08.086,eye_track_exp,2023.1.3,120.09004637110216,
0,0,168,0,168,180,270,0,0,0,f,present,resp,freq_bottom,,,,,0,50,50,557,,,,,,,,,,,1.0387126310014514,,,,,,,,,,,,,,,,,,,,,,,876.412799472494,876.6948589285794,876.6948723984679,877.7357830142146,877.7357968048145,1064.118309554704,1064.118309554704,,,,,878.6189933118803,f,1,0.8426626334194225,None,878.6195135061289,878.6202614056283,878.6202707062648,878.6208248959456,,,,,,,2,001,2,35,f,2024-02-06_14h57.08.086,eye_track_exp,2023.1.3,120.09004637110216,
180,180,180,0,-12,0,270,0,-168,0,None,present,inhibit,freq_bottom,,,,,0,51,51,331,,,,,,,,,,,0.7189811850486771,,,,,,,,,,,,,,,,,,,,,,,878.6213136604556,879.4348176080948,879.4348317194062,880.1587965104018,880.1588103010008,1066.5412611535476,1066.5412611535476,1068.0316365978142,1068.0316365978142,1068.0316365978142,1068.0316365978142,882.5322831524418,f,0,2.339604648117529,None,882.5328036674018,883.0385838529401,883.0385950778464,883.0395341214717,,,1068.8975691983424,,,,2,001,2,35,f,2024-02-06_14h57.08.086,eye_track_exp,2023.1.3,120.09004637110216,
180,180,0,-168,180,-168,0,0,180,180,f,abs,resp,freq_bottom,,,,,0,52,52,888,,,,,,,,,,,0.8265859168287464,,,,,,,,,,,,,,,,,,,,,,,883.0400681063202,883.0408923351852,883.040902597957,883.872295839793,883.8723093096814,1070.2547332224522,1070.2547332224522,,,,,884.7550160901028,f,1,0.8335598754920284,None,884.7555196073463,884.7562344735488,884.7562440948977,884.7568069437921,,,,,,,2,001,2,35,f,2024-02-06_14h57.08.086,eye_track_exp,2023.1.3,120.09004637110216,
0,0,-168,180,0,12,0,270,180,180,None,present,inhibit,freq_bottom,,,,,0,53,53,188,,,,,,,,,,,0.7366148298840584,,,,,,,,,,,,,,,,,,,,,,,884.757279031297,885.5707618119695,885.570775923281,886.3113609525908,886.3113750639022,1072.6942915897225,1072.6942915897225,,,,,887.0961361946802,j,0,0.7463654415068959,None,887.0966451640215,887.6013035003107,887.6013150459294,887.6020783395861,,,1073.460297184216,,,,2,001,2,35,f,2024-02-06_14h57.08.086,eye_track_exp,2023.1.3,120.09004637110216,
-12,180,180,0,0,0,12,0,90,0,j,present,resp,freq_bottom,,,,,0,54,54,635,,,,,,,,,,,0.722213350682287,,,,,,,,,,,,,,,,,,,,,,,887.6025850639471,888.2271385531931,888.2271526645045,888.9511184176345,888.9511322082344,1075.3336863299237,1075.3336863299237,,,,,890.3840242637589,f,0,1.3862322692129965,None,890.3846153352752,890.8824136499998,890.8824232713487,890.8827029318818,,,1076.7408169038108,1077.2403775288913,,,2,001,2,35,f,2024-02-06_14h57.08.086,eye_track_exp,2023.1.3,120.09004637110216,
180,180,180,168,0,12,0,180,0,0,None,abs,inhibit,freq_bottom,,,,,0,55,55,376,,,,,,,,,,,1.091087333283504,,,,,,,,,,,,,,,,,,,,,,,890.8832080526845,891.2160945278265,891.2161092805609,892.3060999991667,892.3061131483428,1078.689129736189,1078.689129736189,,,,,893.5561607740183,f,0,1.2150238983840609,None,893.5566636498397,894.0545969841569,894.0546062847934,894.0548506670484,,,1079.9130893957981,1080.4126506623015,,,2,001,2,35,f,2024-02-06_14h57.08.086,eye_track_exp,2023.1.3,120.09004637110216,
168,0,0,0,0,0,0,0,168,0,f,abs,resp,freq_bottom,,,,,0,56,56,1002,,,,,,,,,,,0.7112543092699232,,,,,,,,,,,,,,,,,,,,,,,894.0553670127574,894.4799837463352,894.4799975369351,895.1957963686464,895.1958095178234,1081.5783222677128,1081.5783222677128,,,,,896.6462098621396,f,1,1.414115258219681,None,896.646717548635,896.6474664102689,896.6474760316178,896.6480783280413,,,,,,,2,001,2,35,f,2024-02-06_14h57.08.086,eye_track_exp,2023.1.3,120.09004637110216,
180,180,0,180,12,90,0,-12,180,180,j,present,resp,freq_bottom,,,,,0,57,57,566,,,,,,,,,,,0.801198790638036,,,,,,,,,,,,,,,,,,,,,,,896.6485651682806,896.8947280140965,896.8947418046955,897.7014540423461,897.7014675122336,1084.0844844207913,1084.0844844207913,,,,,899.1186944086494,j,1,1.371106867762137,None,899.1192046608385,899.1192469947719,899.1192559746978,899.1197999016058,,,,,,,2,001,2,35,f,2024-02-06_14h57.08.086,eye_track_exp,2023.1.3,120.09004637110216,
180,180,180,12,180,270,180,180,-168,180,None,present,inhibit,freq_bottom,,,,,0,58,58,82,,,,,,,,,,,0.9249464067616762,,,,,,,,,,,,,,,,,,,,,,,899.1202822518835,899.3756495212101,899.3756626703862,900.2993057234844,900.2993188726605,1086.6822475855224,1086.6822475855224,,,,,901.5824244900532,j,0,1.2375429855355833,None,901.582924158758,902.0888512302181,902.0888627758368,902.089282587348,,,1087.9478272749839,,,,2,001,2,35,f,2024-02-06_14h57.08.086,eye_track_exp,2023.1.3,120.09004637110216,
180,12,0,180,180,168,0,0,90,0,None,present,inhibit,freq_bottom,,,,,0,59,59,52,,,,,,,,,,,0.7106994059885937,,,,,,,,,,,,,,,,,,,,,,,902.0898239485632,902.5310692589574,902.5310830495573,903.2468700149393,903.2468838055383,1089.638033319371,1089.638033319371,1091.1284244785065,1091.1284244785065,1091.1284244785065,1091.1284244785065,905.8789307218003,j,0,2.5851033001672477,None,905.8794521988957,906.3776421025086,906.377652044569,906.3779288186979,,,1092.2358035397583,1092.7353686548004,,,2,001,2,35,f,2024-02-06_14h57.08.086,eye_track_exp,2023.1.3,120.09004637110216,
180,180,12,0,-168,180,180,0,180,180,None,abs,inhibit,freq_bottom,,,,,0,60,60,377,,,,,,,,,,,0.7179383250892915,,,,,,,,,,,,,,,,,,,,,,,906.3784483715226,906.3792430949188,906.3792533576907,907.1018413336988,907.1018551242987,1093.4847264297805,1093.4847264297805,,,,,908.2935880767118,f,0,1.1556467075224646,None,908.2941223822718,908.7925646859303,908.7925752694146,908.7929755175164,,,1094.6503932245178,1095.1499551324441,,,2,001,2,35,f,2024-02-06_14h57.08.086,eye_track_exp,2023.1.3,120.09004637110216,
180,168,180,0,180,270,180,12,180,0,None,present,inhibit,freq_bottom,,,,,0,61,61,114,,,,,,,,,,,1.0012118999935553,,,,,,,,,,,,,,,,,,,,,,,908.79351848229,909.1424200129186,909.1424328413832,910.1493169163195,910.149330386208,1096.5321074024732,1096.5321074024732,1098.022482846739,1098.022482846739,1098.022482846739,1098.022482846739,913.1803999658769,None,1,,,913.1807565971985,913.1814919889448,913.1815012895813,913.1820282187746,1099.512870157334,1099.512870157334,,,,,2,001,2,35,f,2024-02-06_14h57.08.086,eye_track_exp,2023.1.3,120.09004637110216,
180,180,168,180,180,0,0,168,180,0,f,abs,resp,freq_bottom,,,,,0,62,62,777,,,,,,,,,,,0.962701757941439,,,,,,,,,,,,,,,,,,,,,,,913.182522756093,913.1832456400862,913.1832555821466,914.1458234046368,914.1458371952358,1100.5369841433758,1100.5369841433758,1102.0273669640083,1102.0273669640083,1102.0273669640083,1102.0273669640083,915.6794269268194,f,1,1.4774711974469028,None,915.6799477624918,915.6799833614814,915.6799923414064,915.6804291506342,,,,,,,2,001,2,35,f,2024-02-06_14h57.08.086,eye_track_exp,2023.1.3,120.09004637110216,
0,0,0,168,0,0,90,180,180,12,None,present,inhibit,freq_bottom,,,,,0,63,63,204,,,,,,,,,,,0.9873531184752758,,,,,,,,,,,,,,,,,,,,,,,915.680924650088,915.6816763981269,915.6816860194749,916.6765886289777,916.6766024195767,1103.0598252249947,1103.0598252249947,1104.5501942550281,1104.5501942550281,1104.5501942550281,1104.5501942550281,919.7086876929488,None,1,,,919.7090597184288,919.7090969209767,919.7091055801902,919.7095478415149,1106.0405873384334,1106.0405873384334,,,,,2,001,2,35,f,2024-02-06_14h57.08.086,eye_track_exp,2023.1.3,120.09004637110216,
0,-12,180,0,0,90,180,180,-12,180,j,present,resp,freq_bottom,,,,,0,64,64,638,,,,,,,,,,,1.0030641141524763,,,,,,,,,,,,,,,,,,,,,,,919.7100240982718,919.9667948016495,919.9668073094026,920.973174397207,920.973188187807,1107.3561159385335,1107.3561159385335,1108.8465016455712,1108.8465016455712,1108.8465016455712,1108.8465016455712,924.0047545497755,None,0,,,924.0051310652179,924.5035679167795,924.5035775381284,924.5039579021104,1110.336898577515,1110.336898577515,1110.3618582801,1110.8614307715097,,,2,001,2,35,f,2024-02-06_14h57.08.086,eye_track_exp,2023.1.3,120.09004637110216,
0,0,-168,180,180,180,90,0,0,12,None,present,inhibit,freq_bottom,,,,,0,65,65,63,,,,,,,,,,,1.0311524325940322,,,,,,,,,,,,,,,,,,,,,,,924.5044890005538,924.5052779511407,924.5052882139125,925.5360014829712,925.5360149528587,1111.918849376504,1111.918849376504,1113.4092392527928,1113.4092392527928,1113.4092392527928,1113.4092392527928,928.567180104591,None,1,,,928.5675623928428,928.5682981053005,928.5683080473609,928.5688365801116,1114.8996134142126,1114.8996134142126,,,,,2,001,2,35,f,2024-02-06_14h57.08.086,eye_track_exp,2023.1.3,120.09004637110216,
-168,0,0,0,12,0,270,0,0,0,None,present,inhibit,freq_bottom,,,,,0,66,66,173,,,,,,,,,,,1.0627016800318818,,,,,,,,,,,,,,,,,,,,,,,928.5693275896019,928.8085165612274,928.8085297104044,929.8741623814249,929.8741768134478,1116.2567899460755,1116.2567899460755,1117.7471650696289,1117.7471650696289,1117.7471650696289,1117.7471650696289,931.9481858305762,j,0,2.0294223107330254,None,931.9487150047498,932.4543614535423,932.4543733198725,932.4548293717971,,,1118.3133474403685,,,,2,001,2,35,f,2024-02-06_14h57.08.086,eye_track_exp,2023.1.3,120.09004637110216,
180,180,0,168,0,168,0,180,0,0,f,abs,resp,freq_bottom,,,,,0,67,67,942,,,,,,,,,,,0.9584355205673554,,,,,,,,,,,,,,,,,,,,,,,932.455337379004,932.7885035146792,932.7885163431438,933.7458001209725,933.7458132701495,1120.128452380418,1120.128452380418,,,,,934.6460036445669,f,1,0.8614858398559591,None,934.6466017717394,934.6473345977929,934.6473445398533,934.6479253485977,,,,,,,2,001,2,35,f,2024-02-06_14h57.08.086,eye_track_exp,2023.1.3,120.09004637110216,
0,0,12,0,12,180,180,270,0,0,j,present,resp,freq_bottom,,,,,0,68,68,580,,,,,,,,,,,0.9806031272346333,,,,,,,,,,,,,,,,,,,,,,,934.6484105852796,934.9870410055464,934.9870541547234,935.9684349208774,935.9684487114773,1122.351535214456,1122.351535214456,,,,,936.8863593650685,j,1,0.8786002947781526,None,936.8868920670702,936.8869302317526,936.886938890967,936.8874581230803,,,,,,,2,001,2,35,f,2024-02-06_14h57.08.086,eye_track_exp,2023.1.3,120.09004637110216,
180,12,180,180,180,270,180,180,-168,180,None,present,inhibit,freq_bottom,,,,,0,69,69,16,,,,,,,,,,,0.9389906055951166,,,,,,,,,,,,,,,,,,,,,,,936.8879366248184,937.6346770722621,937.634690862862,938.5749188759955,938.574932987307,1124.9576230907232,1124.9576230907232,1126.448006232068,1126.448006232068,1126.448006232068,1126.448006232068,941.6058717166352,None,1,,,941.6062414971339,941.6062770961234,941.606285755337,941.606838020748,1127.9383880905661,1127.9383880905661,,,,,2,001,2,35,f,2024-02-06_14h57.08.086,eye_track_exp,2023.1.3,120.09004637110216,
180,168,180,0,0,12,0,270,180,0,None,present,inhibit,freq_bottom,,,,,0,70,70,217,,,,,,,,,,,0.8968368048719082,,,,,,,,,,,,,,,,,,,,,,,941.6073056182904,941.8143865460197,941.8144003366197,942.7130554645091,942.7130689343976,1129.0957250423817,1129.0957250423817,1130.5861145979588,1130.5861145979588,1130.5861145979588,1130.5861145979588,945.7448020664096,None,1,,,945.7451869203542,945.7452228400552,945.7452314992697,945.7455631150851,1132.0764929286288,1132.0764929286288,,,,,2,001,2,35,f,2024-02-06_14h57.08.086,eye_track_exp,2023.1.3,120.09004637110216,
-168,0,0,0,12,0,270,0,0,0,None,present,inhibit,freq_bottom,,,,,0,71,71,171,,,,,,,,,,,1.0475774966223832,,,,,,,,,,,,,,,,,,,,,,,945.7460329576097,946.5179181582434,946.5179322695549,947.5674312217898,947.5674443709659,1133.9498791879323,1133.9498791879323,1135.4402655363929,1135.4402655363929,1135.4402655363929,1135.4402655363929,950.5983513498431,None,1,,,950.5987285067094,950.598764105699,950.5987727649126,950.5993689678153,1136.9306445084867,1136.9306445084867,,,,,2,001,2,35,f,2024-02-06_14h57.08.086,eye_track_exp,2023.1.3,120.09004637110216,
12,0,180,0,180,180,-12,180,90,180,j,present,resp,freq_bottom,,,,,0,72,72,517,,,,,,,,,,,0.871598199960486,,,,,,,,,,,,,,,,,,,,,,,950.5998663915389,951.3055326603098,951.3055467716213,952.1794516216141,952.1794654122141,1138.5625782135457,1138.5625782135457,1140.0529559027927,1140.0529559027927,1140.0529559027927,1140.0529559027927,955.2113107932937,None,0,,,955.211675442406,955.7102348058061,955.7102441064435,955.7108165766858,1141.543348986198,1141.543348986198,1141.5683208758246,1142.0678978571968,,,2,001,2,35,f,2024-02-06_14h57.08.086,eye_track_exp,2023.1.3,120.09004637110216,
180,168,180,0,0,12,0,270,180,0,None,present,inhibit,freq_bottom,,,,,0,73,73,216,,,,,,,,,,,0.7975297055136528,,,,,,,,,,,,,,,,,,,,,,,955.7113342052417,956.5849411141398,956.5849549047398,957.3835553833696,957.3835685325457,1143.7664276509859,1143.7664276509859,1145.2568133580235,1145.2568133580235,1145.2568133580235,1145.2568133580235,960.414806165104,None,1,,,960.4151704935048,960.4158985088834,960.4159081302323,960.4164472464663,1146.7472074035632,1146.7472074035632,,,,,2,001,2,35,f,2024-02-06_14h57.08.086,eye_track_exp,2023.1.3,120.09004637110216,
0,180,0,168,180,180,12,0,270,180,None,present,inhibit,freq_bottom,,,,,0,74,74,76,,,,,,,,,,,1.0366363352464185,,,,,,,,,,,,,,,,,,,,,,,960.4169244653576,960.6142932830799,960.6143061115454,961.6551237209223,961.6551381529453,1148.0377455127627,1148.0377455127627,1149.5281366718982,1149.5281366718982,1149.5281366718982,1149.5281366718982,964.6861852828006,None,1,,,964.6865541011639,964.6865900208659,964.6865986800794,964.6871438898343,1151.0185146818567,1151.0185146818567,,,,,2,001,2,35,f,2024-02-06_14h57.08.086,eye_track_exp,2023.1.3,120.09004637110216,
0,180,180,0,12,180,270,0,12,180,j,present,resp,freq_bottom,,,,,0,75,75,576,,,,,,,,,,,0.8679213879098707,,,,,,,,,,,,,,,,,,,,,,,964.6876172601869,964.688327636426,964.688337257775,965.5598553718883,965.5598688417758,1151.9427340537368,1151.9427340537368,1153.433100838789,1153.433100838789,1153.433100838789,1153.433100838789,967.46799009386,f,0,1.861788591626464,None,967.4684833483325,967.9737670722816,967.9737789386118,967.9745447979612,,,1153.8327639633026,,,,2,001,2,35,f,2024-02-06_14h57.08.086,eye_track_exp,2023.1.3,120.09004637110216,
0,90,180,180,0,12,0,0,12,0,j,present,resp,freq_bottom,,,,,0,76,76,592,,,,,,,,,,,0.7247932288032415,,,,,,,,,,,,,,,,,,,,,,,967.9750637093639,968.25816611964,968.2581795895276,968.9823050570449,968.9823268654354,1155.3647793215405,1155.3647793215405,,,,,970.4484096872875,j,1,1.4319875547016636,None,970.4489334093641,970.4496704046678,970.4496800260167,970.4502297257341,,,,,,,2,001,2,35,f,2024-02-06_14h57.08.086,eye_track_exp,2023.1.3,120.09004637110216,
0,180,0,180,180,168,0,0,90,12,None,present,inhibit,freq_bottom,,,,,0,77,77,46,,,,,,,,,,,0.939079544527133,,,,,,,,,,,,,,,,,,,,,,,970.4507024546629,970.6808864854047,970.6808989931578,971.6210378484611,971.6210513183496,1158.004166685374,1158.004166685374,,,,,972.6385358744819,f,0,0.9677619738449721,None,972.6391311152493,973.1443160600193,973.144327605638,973.144825991496,,,1159.0033094232122,,,,2,001,2,35,f,2024-02-06_14h57.08.086,eye_track_exp,2023.1.3,120.09004637110216,
0,180,180,180,12,0,90,0,-168,0,None,present,inhibit,freq_bottom,,,,,0,78,78,156,,,,,,,,,,,0.919301986363163,,,,,,,,,,,,,,,,,,,,,,,973.1453346401267,973.6945430276337,973.6945568182327,974.6184317458328,974.6184452157204,1161.0015865603864,1161.0015865603864,,,,,975.5689481877553,j,0,0.9140860734623857,None,975.5694526671341,976.067677849026,976.0676881117979,976.0679398704197,,,1161.9257937452248,1162.425356935998,,,2,001,2,35,f,2024-02-06_14h57.08.086,eye_track_exp,2023.1.3,120.09004637110216,
-168,180,180,0,-168,180,90,0,180,180,f,present,resp,freq_bottom,,,,,0,79,79,722,,,,,,,,,,,0.7349642367149982,,,,,,,,,,,,,,,,,,,,,,,976.0684789866546,976.7505072054282,976.7505296552417,977.4909103912496,977.4909235404257,1163.8741158782395,1163.8741158782395,,,,,978.5080636522771,f,1,0.9692388508574368,None,978.5085979578371,978.5093490644522,978.5093590065126,978.50993436316,,,,,,,2,001,2,35,f,2024-02-06_14h57.08.086,eye_track_exp,2023.1.3,120.09004637110216,
0,180,180,-168,180,270,180,180,-168,180,f,present,resp,freq_bottom,,,,,0,80,80,535,,,,,,,,,,,1.0888155586855586,,,,,,,,,,,,,,,,,,,,,,,978.5104378804044,979.3318120912136,979.331826202525,980.421779077159,980.421792867759,1166.8049274774812,1166.8049274774812,1168.2953080531324,1168.2953080531324,1168.2953080531324,1168.2953080531324,983.4533675682305,None,0,,,983.4537463286542,983.9521058887149,983.9521155100629,983.9523621372991,1169.7856851009565,1169.7856851009565,1169.8106675740664,1170.3102439140157,,,2,001,2,35,f,2024-02-06_14h57.08.086,eye_track_exp,2023.1.3,120.09004637110216,
168,180,0,180,180,180,0,180,168,180,f,abs,resp,freq_bottom,,,,,0,81,81,786,,,,,,,,,,,0.8085577523894111,,,,,,,,,,,,,,,,,,,,,,,983.9529063849195,984.294011416051,984.2940255273625,985.1016152320062,985.1016287018947,1171.4842322131726,1171.4842322131726,1172.9746134302477,1172.9746134302477,1172.9746134302477,1172.9746134302477,986.909783500414,f,1,1.7588404821244694,None,986.9103797033167,986.9111160571974,986.9111259992578,986.9116702468773,,,,,,,2,001,2,35,f,2024-02-06_14h57.08.086,eye_track_exp,2023.1.3,120.09004637110216,
12,180,0,0,-168,180,270,0,180,180,None,present,inhibit,freq_bottom,,,,,0,82,82,326,,,,,,,,,,,0.7171399011718178,,,,,,,,,,,,,,,,,,,,,,,986.9121728019873,987.1330844183549,987.1330972468195,987.8573240592086,987.8573378498086,1174.240190874728,1174.240190874728,,,,,989.257922378808,j,0,1.354551413194713,None,989.2584262167638,989.7633565165079,989.7633680621257,991.2467654629509,,,1175.6223319198498,,,,2,001,2,35,f,2024-02-06_14h57.08.086,eye_track_exp,2023.1.3,120.09004637110216,
12,0,-168,0,0,270,0,180,0,180,None,present,inhibit,freq_bottom,,,,,0,83,83,293,,,,,,,,,,,0.865400477710592,,,,,,,,,,,,,,,,,,,,,,,991.2472891850275,992.4787271982059,992.4787409888058,993.3446437631537,993.3446578744652,1179.7271221968995,1179.7271221968995,1181.2175194495558,1181.2175194495558,1181.2175194495558,1181.2175194495558,995.535645813784,j,0,2.1556418968475555,None,995.53616151807,996.0340162780394,996.0340262200998,996.0344200539694,,,1181.8919099210852,1182.39149139242,,,2,001,2,35,f,2024-02-06_14h57.08.086,eye_track_exp,2023.1.3,120.09004637110216,
0,180,90,0,180,180,180,12,180,168,None,present,inhibit,freq_bottom,,,,,0,84,84,99,,,,,,,,,,,0.9655633975008818,,,,,,,,,,,,,,,,,,,,,,,996.0349559630877,996.258808825728,996.2588229370385,997.2244683082399,997.2244820988399,1183.6071266612053,1183.6071266612053,,,,,998.6081702568199,f,0,1.3473610586615905,None,998.6086894889331,999.1061895418507,999.106199483911,999.1065670194284,,,1184.9642881196223,1185.4638538760883,,,2,001,2,35,f,2024-02-06_14h57.08.086,eye_track_exp,2023.1.3,120.09004637110216,
-168,0,180,180,180,90,180,180,12,180,None,present,inhibit,freq_bottom,,,,,0,85,85,24,,,,,,,,,,,0.8801220539586718,,,,,,,,,,,,,,,,,,,,,,,999.1070747059239,999.872077755891,999.872091546491,1000.7545363055178,1000.7545500961178,1187.1374156287902,1187.1374156287902,,,,,1002.0552775342157,j,0,1.256868747081171,None,1002.0558060669664,1002.5532233762851,1002.553232997634,1002.5536736554004,,,1188.4112988628203,1188.9108873898113,,,2,001,2,35,f,2024-02-06_14h57.08.086,eye_track_exp,2023.1.3,120.09004637110216,
180,168,0,12,180,180,270,180,0,0,None,present,inhibit,freq_bottom,,,,,0,86,86,98,,,,,,,,,,,0.7881034368158183,,,,,,,,,,,,,,,,,,,,,,,1002.554211168077,1003.7110683353085,1003.7110904644096,1004.5016269700518,1004.5016407606518,1190.8841926373589,1190.8841926373589,1192.3745735337225,1192.3745735337225,1192.3745735337225,1192.3745735337225,1007.5328572262424,None,1,,,1007.533240797341,1007.5340124294999,1007.5340223715602,1007.5345775233754,1193.8649765591872,1193.8649765591872,,,,,2,001,2,35,f,2024-02-06_14h57.08.086,eye_track_exp,2023.1.3,120.09004637110216,
0,0,168,180,0,180,270,0,0,168,f,present,resp,freq_bottom,,,,,0,87,87,600,,,,,,,,,,,0.8790507678093372,,,,,,,,,,,,,,,,,,,,,,,1007.5350765506573,1007.8331068040261,1007.8331199532022,1008.7147337484203,1008.7147472183078,1195.0972256520545,1195.0972256520545,,,,,1009.8643713763595,f,1,1.104673123255452,None,1009.864882590683,1009.8649194725194,1009.864928131733,1009.865371996616,,,,,,,2,001,2,35,f,2024-02-06_14h57.08.086,eye_track_exp,2023.1.3,120.09004637110216,
0,180,-12,0,-12,180,180,0,180,270,j,present,resp,freq_bottom,,,,,0,88,88,746,,,,,,,,,,,0.7825678758060279,,,,,,,,,,,,,,,,,,,,,,,1009.8658652510885,1010.1557237723646,1010.155737883676,1010.9374676482157,1010.9374811181033,1197.3203097689393,1197.3203097689393,,,,,1011.988095505355,j,1,1.0090545571320035,None,1011.9886147374691,1011.988651298594,1011.9886596370961,1011.9891025398438,,,,,,,2,001,2,35,f,2024-02-06_14h57.08.086,eye_track_exp,2023.1.3,120.09004637110216,
168,180,0,180,180,0,180,168,0,180,f,abs,resp,freq_bottom,,,,,0,89,89,788,,,,,,,,,,,1.0132458013129064,,,,,,,,,,,,,,,,,,,,,,,1011.9895967564516,1012.7615143489593,1012.7615284602707,1013.7770557133817,1013.7770691832693,1200.1595341471284,1200.1595341471284,,,,,1015.0433319884833,f,1,1.2257696619435592,None,1015.0438210737047,1015.0438576348288,1015.0438662940433,1015.0443233081023,,,,,,,2,001,2,35,f,2024-02-06_14h57.08.086,eye_track_exp,2023.1.3,120.09004637110216,
180,180,180,0,-12,0,-12,0,90,180,j,present,resp,freq_bottom,,,,,0,90,90,736,,,,,,,,,,,0.9790774358422968,,,,,,,,,,,,,,,,,,,,,,,1015.0447944334728,1015.3005157684283,1015.3005295590283,1016.2825818953161,1016.282595685916,1202.6657078458247,1202.6657078458247,1204.156097401402,1204.156097401402,1204.156097401402,1204.156097401402,1019.314460630404,None,0,,,1019.31482784521,1019.8134670658037,1019.81347829071,1019.813926966267,1205.6464741285135,1205.6464741285135,1205.671452753084,1206.1710306965915,,,2,001,2,35,f,2024-02-06_14h57.08.086,eye_track_exp,2023.1.3,120.09004637110216,
180,180,168,0,0,0,168,0,180,0,f,abs,resp,freq_bottom,,,,,0,91,91,966,,,,,,,,,,,0.7262728193421117,,,,,,,,,,,,,,,,,,,,,,,1019.8144346527624,1020.7880147501692,1020.7880285407691,1021.5203966176477,1021.5204100875353,1207.902871202854,1207.902871202854,,,,,1022.7033981961895,j,0,1.1460971983069612,None,1022.7039065241088,1023.2016602599178,1023.2016702019782,1023.2019152256562,,,1209.0602043061308,1209.5597671761916,,,2,001,2,35,f,2024-02-06_14h57.08.086,eye_track_exp,2023.1.3,120.09004637110216,
180,0,180,-12,180,180,0,270,180,-12,j,present,resp,freq_bottom,,,,,0,92,92,544,,,,,,,,,,,1.065445425655838,,,,,,,,,,,,,,,,,,,,,,,1023.2024190636121,1024.218087750548,1024.2181018618594,1025.2839471646848,1025.2839606345733,1211.666298275918,1211.666298275918,1213.156680775839,1213.156680775839,1213.156680775839,1213.156680775839,1026.925434868922,j,1,1.6070293915327056,None,1026.9259348583391,1026.9266866063772,1026.926696869149,1026.927150996804,,,,,,,2,001,2,35,f,2024-02-06_14h57.08.086,eye_track_exp,2023.1.3,120.09004637110216,
0,0,180,180,180,90,0,168,0,12,None,present,inhibit,freq_bottom,,,,,0,93,93,20,,,,,,,,,,,0.7971506442578975,,,,,,,,,,,,,,,,,,,,,,,1026.9276586832993,1027.2404211456724,1027.24043461556,1028.0391133478252,1028.0391264970021,1214.4222537303567,1214.4222537303567,,,,,1028.7896041969607,f,0,0.7066408173322998,None,1028.790095847875,1029.2959825096714,1029.29599405529,1029.2976219874763,,,1215.1549572715903,,,,2,001,2,35,f,2024-02-06_14h57.08.086,eye_track_exp,2023.1.3,120.09004637110216,
180,12,0,180,180,180,-168,180,270,0,None,present,inhibit,freq_bottom,,,,,0,94,94,47,,,,,,,,,,,0.7323469592782884,,,,,,,,,,,,,,,,,,,,,,,1029.2981492373801,1029.8969672226312,1029.8969816546542,1030.6290084943685,1030.6290216435445,1217.0116934663984,1217.0116934663984,1218.5020772491662,1218.5020772491662,1218.5020772491662,1218.5020772491662,1033.6602272049413,None,1,,,1033.660605965365,1033.661344564227,1033.6613541855759,1033.6620751452983,1219.9924510898736,1219.9924510898736,,,,,2,001,2,35,f,2024-02-06_14h57.08.086,eye_track_exp,2023.1.3,120.09004637110216,
180,168,180,180,180,180,270,180,180,168,f,present,resp,freq_bottom,,,,,0,95,95,427,,,,,,,,,,,0.8214226578204827,,,,,,,,,,,,,,,,,,,,,,,1033.6625632683854,1034.1761168621833,1034.1761309734948,1034.999908276477,1034.9999223877885,1221.38293224069,1221.38293224069,1222.8733112127838,1222.8733112127838,1222.8733112127838,1222.8733112127838,1036.6417134852181,f,1,1.6025031884300915,None,1036.642249715048,1036.6422872383073,1036.6422958975218,1036.6428135260767,,,,,,,2,001,2,35,f,2024-02-06_14h57.08.086,eye_track_exp,2023.1.3,120.09004637110216,
180,0,0,0,168,180,180,-168,180,0,f,abs,resp,freq_bottom,,,,,0,96,96,926,,,,,,,,,,,0.9809498069159572,,,,,,,,,,,,,,,,,,,,,,,1036.6432917071033,1036.9403203780812,1036.9403344893917,1037.9226793146781,1037.922693105278,1224.3053921886194,1224.3053921886194,1225.7957881584289,1225.7957881584289,1225.7957881584289,1225.7957881584289,1039.5310955573104,f,1,1.5588434326718925,None,1039.5316314664287,1039.5316677068413,1039.5316763660558,1039.5320993846826,,,,,,,2,001,2,35,f,2024-02-06_14h57.08.086,eye_track_exp,2023.1.3,120.09004637110216,
0,0,0,180,180,180,-168,180,180,-168,f,abs,resp,freq_bottom,,,,,0,97,97,804,,,,,,,,,,,1.0544845418307187,,,,,,,,,,,,,,,,,,,,,,,1039.5325624922634,1040.3538315096603,1040.3538456209717,1041.411513418895,1041.4115281716295,1227.7940771619324,1227.7940771619324,1229.2844542097564,1229.2844542097564,1229.2844542097564,1229.2844542097564,1043.401987000917,f,1,1.9419722695856763,None,1043.4024844246405,1043.4025347763645,1043.402544077002,1043.4029972425215,,,,,,,2,001,2,35,f,2024-02-06_14h57.08.086,eye_track_exp,2023.1.3,120.09004637110216,
0,-12,180,180,180,90,180,180,0,168,None,present,inhibit,freq_bottom,,,,,0,98,98,31,,,,,,,,,,,0.893651338613107,,,,,,,,,,,,,,,,,,,,,,,1043.4034680471805,1043.7096443757127,1043.7096578456012,1044.608514059677,1044.6085281709884,1230.9913154500255,1230.9913154500255,1232.4816982706589,1232.4816982706589,1232.4816982706589,1232.4816982706589,1046.2829577693356,j,0,1.6405116847226964,None,1046.2834872642215,1046.789229605788,1046.7892411514067,1046.7901878921102,,,1232.648225855386,,,,2,001,2,35,f,2024-02-06_14h57.08.086,eye_track_exp,2023.1.3,120.09004637110216,
180,0,180,0,180,12,180,90,0,168,None,present,inhibit,freq_bottom,,,,,0,99,99,121,,,,,,,,,,,1.0133095548330664,,,,,,,,,,,,,,,,,,,,,,,1046.7906987857223,1046.7915560478841,1046.791566310656,1047.806300443929,1047.806314234529,1234.1885659251593,1234.1885659251593,1235.6789590085646,1235.6789590085646,1235.6789590085646,1235.6789590085646,1050.8371336591335,None,1,,,1050.8375255687342,1050.8384091292492,1050.838419392021,1050.8389755059707,1237.169332207849,1237.169332207849,,,,,2,001,2,35,f,2024-02-06_14h57.08.086,eye_track_exp,2023.1.3,120.09004637110216,
0,180,180,0,180,180,0,168,180,168,f,abs,resp,freq_bottom,,,,,0,100,100,847,,,,,,,,,,,0.8334708798931006,,,,,,,,,,,,,,,,,,,,,,,1050.8394633083462,1051.1200086848712,1051.1200218340473,1051.9521427705513,1051.9521562404389,1238.3349913055072,1238.3349913055072,1239.8253741261406,1239.8253741261406,1239.8253741261406,1239.8253741261406,1053.7271693415087,f,1,1.736391310106228,None,1053.7276927428738,1053.7277299454217,1053.7277389253468,1053.7281542468954,,,,,,,2,001,2,35,f,2024-02-06_14h57.08.086,eye_track_exp,2023.1.3,120.09004637110216,
270,180,0,180,180,0,-168,0,12,180,None,present,inhibit,freq_bottom,,,,,0,101,101,37,,,,,,,,,,,0.8669793991935838,,,,,,,,,,,,,,,,,,,,,,,1053.728646859945,1053.9841699951194,1053.984183465007,1054.858208581859,1054.8582220517465,1241.2408220351972,1241.2408220351972,1242.731205176542,1242.731205176542,1242.731205176542,1242.731205176542,1056.8822382207436,f,0,1.9828132909105989,None,1056.8827311545047,1057.3884529705274,1057.3884648368576,1057.3889433385957,,,1243.247431580986,,,,2,001,2,35,f,2024-02-06_14h57.08.086,eye_track_exp,2023.1.3,120.09004637110216,
270,0,180,180,180,-12,180,180,12,0,j,present,resp,freq_bottom,,,,,0,102,102,435,,,,,,,,,,,0.7499935896371751,,,,,,,,,,,,,,,,,,,,,,,1057.389508111759,1057.8059149485616,1057.8059287391607,1058.5544263655747,1058.5544401561738,1244.937647246722,1244.937647246722,,,,,1059.4392870452393,j,1,0.845664814900374,None,1059.439792807465,1059.4405102393603,1059.4405201814207,1059.4410772575056,,,,,,,2,001,2,35,f,2024-02-06_14h57.08.086,eye_track_exp,2023.1.3,120.09004637110216,
180,180,-168,180,180,90,180,12,0,180,None,present,inhibit,freq_bottom,,,,,0,103,103,59,,,,,,,,,,,0.9959530235508257,,,,,,,,,,,,,,,,,,,,,,,1059.4415477414532,1060.7450858961938,1060.7451006489282,1061.7439364657457,1061.7439499356333,1248.1265598611444,1248.1265598611444,1249.6169510202799,1249.6169510202799,1249.6169510202799,1249.6169510202799,1064.7750605663896,None,1,,,1064.7754351575632,1064.775472360111,1064.7754810193246,1064.775948616867,1251.107323257429,1251.107323257429,,,,,2,001,2,35,f,2024-02-06_14h57.08.086,eye_track_exp,2023.1.3,120.09004637110216,
180,0,180,0,0,12,180,180,180,168,None,abs,inhibit,freq_bottom,,,,,0,104,104,414,,,,,,,,,,,0.917693080875553,,,,,,,,,,,,,,,,,,,,,,,1064.7764386642239,1064.9916826648314,1064.9916958140084,1065.9154184035879,1065.915431552764,1252.2979693181605,1252.2979693181605,1253.7883511766586,1253.7883511766586,1253.7883511766586,1253.7883511766586,1068.9466454526628,None,1,,,1068.9470261373563,1068.9470626984803,1068.9470713576948,1068.9475370309674,1255.2787307901754,1255.2787307901754,,,,,2,001,2,35,f,2024-02-06_14h57.08.086,eye_track_exp,2023.1.3,120.09004637110216,
180,180,0,180,12,0,0,12,0,90,j,present,resp,freq_bottom,,,,,0,105,105,565,,,,,,,,,,,0.738445368569849,,,,,,,,,,,,,,,,,,,,,,,1068.948020022668,1069.2376848341255,1069.2376986247245,1069.9783064245594,1069.97832823295,1256.3694658804525,1256.3694658804525,1257.859843890411,1257.859843890411,1257.859843890411,1257.859843890411,1073.018361060991,None,0,,,1073.0187369350106,1073.524564265157,1073.5245812628727,1073.5254054917377,1259.3335734394332,1259.3335734394332,1259.3835409513458,,,,2,001,2,35,f,2024-02-06_14h57.08.086,eye_track_exp,2023.1.3,120.09004637110216,
0,168,180,180,0,0,90,0,12,0,None,present,inhibit,freq_bottom,,,,,0,106,106,184,,,,,,,,,,,0.7465924749921945,,,,,,,,,,,,,,,,,,,,,,,1073.5259279309676,1074.5161369259022,1074.5161507165021,1075.2657159919008,1075.265738121002,1261.6565746202932,1261.6565746202932,1263.1469644965819,1263.1469644965819,1263.1469644965819,1263.1469644965819,1078.3053934714662,None,1,,,1078.3057831360857,1078.3065525232632,1078.306562786035,1078.3071009401347,1264.6206921213334,1264.6206921213334,,,,,2,001,2,35,f,2024-02-06_14h57.08.086,eye_track_exp,2023.1.3,120.09004637110216,
-168,180,0,0,0,0,-168,0,0,0,f,abs,resp,freq_bottom,,,,,0,107,107,991,,,,,,,,,,,1.0482768899000612,,,,,,,,,,,,,,,,,,,,,,,1078.3076047780905,1079.2876568360007,1079.2876706266006,1080.3360416360656,1080.3360637651676,1266.727234445967,1266.727234445967,1268.2175928925171,1268.2175928925171,1268.2175928925171,1268.2175928925171,1081.8691737121671,f,1,1.4863725484765382,None,1081.8696583074252,1081.8696942271272,1081.8697028863407,1081.8702894678945,,,,,,,2,001,2,35,f,2024-02-06_14h57.08.086,eye_track_exp,2023.1.3,120.09004637110216,
168,0,0,0,0,168,0,0,0,90,f,present,resp,freq_bottom,,,,,0,108,108,666,,,,,,,,,,,0.8087990849258759,,,,,,,,,,,,,,,,,,,,,,,1081.870747444089,1082.9926576281587,1082.9926710980462,1083.8085903249003,1083.8086034740772,1270.1908917258324,1270.1908917258324,1271.6812761500232,1271.6812761500232,1271.6812761500232,1271.6812761500232,1086.6829743180551,f,1,2.8391020930075683,None,1086.6835127928662,1086.6835503161255,1086.6835592960515,1086.6842061713896,,,,,,,2,001,2,35,f,2024-02-06_14h57.08.086,eye_track_exp,2023.1.3,120.09004637110216,
180,0,0,-168,180,180,180,0,168,180,f,abs,resp,freq_bottom,,,,,0,109,109,894,,,,,,,,,,,0.9101126302906896,,,,,,,,,,,,,,,,,,,,,,,1086.6847164235787,1086.8976471312671,1086.8976606011547,1087.813030256576,1087.813044047176,1274.1957832194694,1274.1957832194694,1275.68618143426,1275.68618143426,1275.68618143426,1275.68618143426,1089.9546398312286,f,1,2.0987659359161626,None,1089.9551443106084,1089.9551805510218,1089.9551892102354,1089.9559204327297,,,,,,,2,001,2,35,f,2024-02-06_14h57.08.086,eye_track_exp,2023.1.3,120.09004637110216,
180,0,180,-168,180,180,180,0,180,-168,f,abs,resp,freq_bottom,,,,,0,110,110,886,,,,,,,,,,,0.9556967729150851,,,,,,,,,,,,,,,,,,,,,,,1089.9563954066398,1090.16964490168,1090.1696577301445,1091.1272622195938,1091.1272756894823,1277.5179351559582,1277.5179351559582,1279.0083064309729,1279.0083064309729,1279.0083064309729,1279.0083064309729,1092.7605195015121,f,1,1.5910938725282904,None,1092.761028791565,1092.76106535269,1092.7610743326159,1092.7615178767865,,,,,,,2,001,2,35,f,2024-02-06_14h57.08.086,eye_track_exp,2023.1.3,120.09004637110216,
12,180,180,-12,180,180,180,0,90,0,j,present,resp,freq_bottom,,,,,0,111,111,542,,,,,,,,,,,0.9847618982904194,,,,,,,,,,,,,,,,,,,,,,,1092.7620258839934,1093.0092217419387,1093.0092348911157,1093.999446451743,1093.999478202194,1280.382122443848,1280.382122443848,,,,,1095.400207372134,j,1,1.3667237020436005,None,1095.4007298113638,1095.4007666932002,1095.4007753524147,1095.4012355735895,,,,,,,2,001,2,35,f,2024-02-06_14h57.08.086,eye_track_exp,2023.1.3,120.09004637110216,
168,180,180,0,0,0,168,0,270,0,f,present,resp,freq_bottom,,,,,0,112,112,632,,,,,,,,,,,1.0749950152727696,,,,,,,,,,,,,,,,,,,,,,,1095.4017365251411,1096.1561759757496,1096.156190087061,1097.2299624190127,1097.2299758889003,1283.612666313028,1283.612666313028,1285.103049454373,1285.103049454373,1285.103049454373,1285.103049454373,1099.7878200782152,f,1,2.5203487375629265,None,1099.7883476488314,1099.7883848513793,1099.7883938313043,1099.7889646979893,,,,,,,2,001,2,35,f,2024-02-06_14h57.08.086,eye_track_exp,2023.1.3,120.09004637110216,
180,168,0,0,0,0,12,0,90,180,None,present,inhibit,freq_bottom,,,,,0,113,113,250,,,,,,,,,,,1.0337579889421866,,,,,,,,,,,,,,,,,,,,,,,1099.7894544246337,1099.8616876615188,1099.8616998485604,1100.9013824595122,1100.9013965708236,1287.284507127174,1287.284507127174,1288.7748886649606,1288.7748886649606,1288.7748886649606,1288.7748886649606,1102.743115123285,j,0,1.7923051361767648,None,1102.7436285825897,1103.2489761281513,1103.248988315193,1103.249880855633,,,1289.1079441551265,,,,2,001,2,35,f,2024-02-06_14h57.08.086,eye_track_exp,2023.1.3,120.09004637110216,
180,180,180,180,12,0,-168,0,90,0,None,present,inhibit,freq_bottom,,,,,0,114,114,153,,,,,,,,,,,0.9387267360367801,,,,,,,,,,,,,,,,,,,,,,,1103.2504404974115,1104.0829097267351,1104.0829235173342,1105.0230177937228,1105.0230312636104,1291.4059593350494,1291.4059593350494,1292.8963520977422,1292.8963520977422,1292.8963520977422,1292.8963520977422,1108.0549196200473,None,1,,,1108.0552884384106,1108.056389762116,1108.0563997041763,1108.0570590872676,1294.3867211277757,1294.3867211277757,,,,,2,001,2,35,f,2024-02-06_14h57.08.086,eye_track_exp,2023.1.3,120.09004637110216,
180,180,0,180,180,-12,0,12,180,90,j,present,resp,freq_bottom,,,,,0,115,115,458,,,,,,,,,,,1.098861025287123,,,,,,,,,,,,,,,,,,,,,,,1108.057549455336,1108.2703441812973,1108.270365348264,1109.369538040568,1109.3695515104555,1295.752216277654,1295.752216277654,1297.242595249747,1297.242595249747,1297.242595249747,1297.242595249747,1110.8948896527527,f,0,1.468192048128003,None,1110.8953963771137,1111.4002554788776,1111.4002676659193,1111.4010421844823,,,1297.2592603876883,,,,2,001,2,35,f,2024-02-06_14h57.08.086,eye_track_exp,2023.1.3,120.09004637110216,
168,180,0,180,180,180,168,180,0,180,f,abs,resp,freq_bottom,,,,,0,116,116,787,,,,,,,,,,,1.0802320666789829,,,,,,,,,,,,,,,,,,,,,,,1111.4015697550985,1112.2840703179472,1112.2840850706816,1113.3658569125864,1113.3658700617634,1299.7487788905046,1299.7487788905046,,,,,1114.8493030615773,f,1,1.4394527590939106,None,1114.8498886809966,1114.8506532575002,1114.8506631995606,1114.851237914785,,,,,,,2,001,2,35,f,2024-02-06_14h57.08.086,eye_track_exp,2023.1.3,120.09004637110216,
0,180,180,0,12,90,180,168,180,0,None,present,inhibit,freq_bottom,,,,,0,117,117,162,,,,,,,,,,,0.8077678728908105,,,,,,,,,,,,,,,,,,,,,,,1114.851714812965,1115.8308182059009,1115.8308323172123,1116.6383116970583,1116.6383258083697,1303.0209636357922,1303.0209636357922,1304.5113454942903,1304.5113454942903,1304.5113454942903,1304.5113454942903,1118.396737913822,j,0,1.7190331143528965,None,1118.3972298854487,1118.9021682029825,1118.902181672871,1118.902702187831,,,1304.7611272500326,,,,2,001,2,35,f,2024-02-06_14h57.08.086,eye_track_exp,2023.1.3,120.09004637110216,
180,180,12,0,0,0,90,0,-168,180,None,present,inhibit,freq_bottom,,,,,0,118,118,222,,,,,,,,,,,0.9255364162987977,,,,,,,,,,,,,,,,,,,,,,,1118.9032294377348,1119.8607428450841,1119.860757918531,1120.793042866957,1120.793056016133,1307.1757178969265,1307.1757178969265,1308.666090454788,1308.666090454788,1308.666090454788,1308.666090454788,1123.823975182052,None,1,,,1123.8243577910152,1123.825107294073,1123.8251169154219,1123.8256614837537,1310.1564748789788,1310.1564748789788,,,,,2,001,2,35,f,2024-02-06_14h57.08.086,eye_track_exp,2023.1.3,120.09004637110216,
12,180,180,0,12,180,270,0,180,180,j,present,resp,freq_bottom,,,,,0,119,119,575,,,,,,,,,,,1.052066849288091,,,,,,,,,,,,,,,,,,,,,,,1123.8261480032816,1124.0735831120965,1124.073597223407,1125.1309767015837,1125.130991454318,1311.5219738773967,1311.5219738773967,1313.0123486802395,1313.0123486802395,1313.0123486802395,1313.0123486802395,1127.346770081198,j,1,2.1617485668157315,None,1127.3472691084798,1127.3473059903163,1127.3473146495298,1127.347793792691,,,,,,,2,001,2,35,f,2024-02-06_14h57.08.086,eye_track_exp,2023.1.3,120.09004637110216,
12,180,180,12,180,180,180,90,180,180,j,present,resp,freq_bottom,,,,,0,120,120,494,,,,,,,,,,,0.887206525351286,,,,,,,,,,,,,,,,,,,,,,,1127.3482870471635,1127.579758414351,1127.5797712428157,1128.469693072565,1128.469706863165,1314.8524316034354,1314.8524316034354,,,,,1129.803433602753,j,1,1.2944862959084276,None,1129.8039467413455,1129.803983623182,1129.8039922823955,1129.8044954789284,,,,,,,2,001,2,35,f,2024-02-06_14h57.08.086,eye_track_exp,2023.1.3,120.09004637110216,
0,180,180,0,12,90,180,168,180,0,None,present,inhibit,freq_bottom,,,,,0,121,121,160,,,,,,,,,,,1.036541348968933,,,,,,,,,,,,,,,,,,,,,,,1129.8049775084946,1130.7429938942923,1130.7430083263152,1131.7839147728118,1131.7839295255462,1318.174572956441,1318.174572956441,1319.664957701344,1319.664957701344,1319.664957701344,1319.664957701344,1134.8231127885047,None,1,,,1134.823481606868,1134.8235178472814,1134.8235261857835,1134.824142272807,1321.1386984752726,1321.1386984752726,,,,,2,001,2,35,f,2024-02-06_14h57.08.086,eye_track_exp,2023.1.3,120.09004637110216,
180,168,0,12,180,180,270,180,0,0,None,present,inhibit,freq_bottom,,,,,0,122,122,95,,,,,,,,,,,0.9996178151187347,,,,,,,,,,,,,,,,,,,,,,,1134.8246284716233,1135.0225052965525,1135.022518125018,1136.0217307779894,1136.0217445685885,1322.4042682226736,1322.4042682226736,1323.8946452704977,1323.8946452704977,1323.8946452704977,1323.8946452704977,1139.052526149222,None,1,,,1139.0529193416696,1139.0529555820822,1139.0529642412957,1139.053523562362,1325.3850264875728,1325.3850264875728,,,,,2,001,2,35,f,2024-02-06_14h57.08.086,eye_track_exp,2023.1.3,120.09004637110216,
0,270,0,180,180,180,12,180,180,12,j,present,resp,freq_bottom,,,,,0,123,123,454,,,,,,,,,,,0.7230769270475441,,,,,,,,,,,,,,,,,,,,,,,1139.0540049505053,1140.1928461424486,1140.1928599330486,1140.9169174097024,1140.916933124572,1327.3000363045549,1327.3000363045549,1328.7904284258248,1328.7904284258248,1328.7904284258248,1328.7904284258248,1143.0421998764623,f,0,2.0784116522027034,None,1143.0427345027338,1143.547573078954,1143.5475849452841,1143.5485615121688,,,1329.4065654800115,,,,2,001,2,35,f,2024-02-06_14h57.08.086,eye_track_exp,2023.1.3,120.09004637110216,
90,0,0,180,180,12,0,168,0,0,None,present,inhibit,freq_bottom,,,,,0,124,124,58,,,,,,,,,,,0.841820810753832,,,,,,,,,,,,,,,,,,,,,,,1143.5490817064174,1144.547794690684,1144.5478088019945,1145.3880684372944,1145.3880819071828,1331.7711959913613,1331.7711959913613,1333.2615807362636,1333.2615807362636,1333.2615807362636,1333.2615807362636,1148.419601765967,None,1,,,1148.4199802056792,1148.4208169422973,1148.4208268843577,1151.8338309708652,1334.751958746222,1334.751958746222,,,,,2,001,2,35,f,2024-02-06_14h57.08.086,eye_track_exp,2023.1.3,120.09004637110216,
0,0,12,0,0,0,90,0,0,168,None,present,inhibit,freq_bottom,,,,,0,125,125,227,,,,,,,,,,,0.7707299471869472,,,,,,,,,,,,,,,,,,,,,,,1151.8343502029784,1152.716234358093,1152.7162484694045,1153.4894473048362,1153.4894607747237,1339.8725562576283,1339.8725562576283,1341.3629384368387,1341.3629384368387,1341.3629384368387,1341.3629384368387,1156.5211730604806,None,1,,,1156.5215361060355,1156.521571705025,1156.5215803642386,1156.5221961305506,1342.853323181741,1342.853323181741,,,,,2,001,2,35,f,2024-02-06_14h57.08.086,eye_track_exp,2023.1.3,120.09004637110216,
180,0,180,0,180,12,180,90,0,168,None,present,inhibit,freq_bottom,,,,,0,126,126,125,,,,,,,,,,,1.089044673773354,,,,,,,,,,,,,,,,,,,,,,,1156.5226646902283,1156.7708220416116,1156.7708355115,1157.8611572044983,1157.8611703536744,1344.2437921455157,1344.2437921455157,1345.7341701554742,1345.7341701554742,1345.7341701554742,1345.7341701554742,1160.8922383297859,None,1,,,1160.892636653618,1160.8926741768782,1160.8926828360918,1160.8932225937488,1347.2245603524743,1347.2245603524743,,,,,2,001,2,35,f,2024-02-06_14h57.08.086,eye_track_exp,2023.1.3,120.09004637110216,
-168,180,0,-168,180,90,180,0,0,0,f,present,resp,freq_bottom,,,,,0,127,127,539,,,,,,,,,,,0.7330386637086066,,,,,,,,,,,,,,,,,,,,,,,1160.8937206588962,1160.89443777008,1160.8944576541999,1161.624501854676,1161.6245150038521,1348.0155400815756,1348.0155400815756,1349.50592707146,1349.50592707146,1349.50592707146,1349.50592707146,1163.4910264888558,f,1,1.8095392165323574,None,1163.4915704157647,1163.4916076183126,1163.4916165982377,1163.49226219073,,,,,,,2,001,2,35,f,2024-02-06_14h57.08.086,eye_track_exp,2023.1.3,120.09004637110216,
12,180,180,168,180,270,180,0,0,0,None,present,inhibit,freq_bottom,,,,,0,128,128,67,,,,,,,,,,,0.746694130319119,,,,,,,,,,,,,,,,,,,,,,,1163.4927477481233,1163.493545678636,1163.4935556206956,1164.2468478858373,1164.2468616764372,1350.629968384248,1350.629968384248,1352.120338376416,1352.120338376416,1352.120338376416,1352.120338376416,1167.2789414977105,None,1,,,1167.2793122403446,1167.2793475186227,1167.2793558571248,1167.2798080605098,1353.610705161468,1353.610705161468,,,,,2,001,2,35,f,2024-02-06_14h57.08.086,eye_track_exp,2023.1.3,120.09004637110216,
180,0,180,168,180,0,180,0,0,-168,f,abs,resp,freq_bottom,,,,,0,129,129,837,,,,,,,,,,,0.7377104176984055,,,,,,,,,,,,,,,,,,,,,,,1167.2802782237459,1167.511085717878,1167.5110995084779,1168.2523285267216,1168.252342638033,1354.6348409558996,1354.6348409558996,1356.1252221729746,1356.1252221729746,1356.1252221729746,1356.1252221729746,1169.8264908440042,f,1,1.5257498419650801,None,1169.8269933991141,1169.8270309223735,1169.8270399022986,1169.8274061549691,,,,,,,2,001,2,35,f,2024-02-06_14h57.08.086,eye_track_exp,2023.1.3,120.09004637110216,
0,0,0,-12,180,-12,0,0,90,0,j,present,resp,freq_bottom,,,,,0,130,130,549,,,,,,,,,,,0.8970677307132887,,,,,,,,,,,,,,,,,,,,,,,1169.8278763182052,1170.908254347407,1170.9082687794298,1171.8072465432106,1171.8072603338096,1358.1901075859196,1358.1901075859196,1359.6805025935946,1359.6805025935946,1359.6805025935946,1359.6805025935946,1174.8390418932768,None,0,,,1174.8394296336255,1175.345199556392,1175.345210781299,1175.3459926762298,1361.170886697074,1361.170886697074,1361.2041842603712,,,,2,001,2,35,f,2024-02-06_14h57.08.086,eye_track_exp,2023.1.3,120.09004637110216,
180,0,180,0,180,168,0,0,180,168,f,abs,resp,freq_bottom,,,,,0,131,131,859,,,,,,,,,,,0.7838355959551554,,,,,,,,,,,,,,,,,,,,,,,1175.3465497523148,1176.3204402985702,1176.3204544098817,1177.110959165073,1177.1109726349605,1363.4938705595068,1363.4938705595068,,,,,1178.3448259273537,f,1,1.1953010958513914,None,1178.345348045872,1178.3461187158964,1178.3461289786683,1178.3467088252783,,,,,,,2,001,2,35,f,2024-02-06_14h57.08.086,eye_track_exp,2023.1.3,120.09004637110216,
180,12,0,-12,0,0,0,180,180,270,j,present,resp,freq_bottom,,,,,0,132,132,711,,,,,,,,,,,0.7834213171304907,,,,,,,,,,,,,,,,,,,,,,,1178.347213304658,1179.6511978899744,1179.6512116805743,1180.4331896759086,1180.4332034665085,1366.8160205717259,1366.8160205717259,,,,,1181.7005204508187,j,1,1.233128390078491,None,1181.7010364758162,1181.701073678364,1181.7010823375776,1181.7015348616742,,,,,,,2,001,2,35,f,2024-02-06_14h57.08.086,eye_track_exp,2023.1.3,120.09004637110216,
0,90,180,180,180,12,0,0,-168,0,None,present,inhibit,freq_bottom,,,,,0,133,133,10,,,,,,,,,,,0.7699142068188743,,,,,,,,,,,,,,,,,,,,,,,1181.7020229847603,1183.0147238705022,1183.0147376611021,1183.7883447624272,1183.7883585530262,1370.1714642987026,1370.1714642987026,1371.6618516092985,1371.6618516092985,1371.6618516092985,1371.6618516092985,1186.819644933751,None,1,,,1186.819990019455,1186.82002658058,1186.8200352397935,1186.82047397329,1373.1522264121413,1373.1522264121413,,,,,2,001,2,35,f,2024-02-06_14h57.08.086,eye_track_exp,2023.1.3,120.09004637110216,
180,12,0,0,0,270,0,168,180,180,None,present,inhibit,freq_bottom,,,,,0,134,134,254,,,,,,,,,,,0.81002799657363,,,,,,,,,,,,,,,,,,,,,,,1186.8209531164512,1186.8216727933277,1186.8216830560996,1187.6354070119105,1187.6354201610875,1374.0181590126695,1374.0181590126695,1375.5085312498195,1375.5085312498195,1375.5085312498195,1375.5085312498195,1190.6670792087152,None,1,,,1190.6674537998879,1190.6674906817243,1190.6674993409379,1190.6679399987042,1376.9989118254707,1376.9989118254707,,,,,2,001,2,35,f,2024-02-06_14h57.08.086,eye_track_exp,2023.1.3,120.09004637110216,
-168,180,180,0,180,180,-168,180,180,0,f,abs,resp,freq_bottom,,,,,0,135,135,852,,,,,,,,,,,0.880987619088854,,,,,,,,,,,,,,,,,,,,,,,1190.668425235387,1191.540319223519,1191.5403336555419,1192.4225670656106,1192.422580535499,1378.8056593413994,1378.8056593413994,,,,,1193.62270971814,f,1,1.1618127091396673,None,1193.623197841226,1193.6232340816396,1193.6232427408531,1193.6237061691445,,,,,,,2,001,2,35,f,2024-02-06_14h57.08.086,eye_track_exp,2023.1.3,120.09004637110216,
180,180,180,0,12,0,180,168,0,180,None,abs,inhibit,freq_bottom,,,,,0,136,136,389,,,,,,,,,,,0.781636391003667,,,,,,,,,,,,,,,,,,,,,,,1193.62416831459,1194.5379007371885,1194.5379145277875,1195.3200602552997,1195.3200737251873,1381.7031967892917,1381.7031967892917,1383.193580892771,1383.193580892771,1383.193580892771,1383.193580892771,1198.3518992221461,None,1,,,1198.3522895281885,1198.352327051448,1198.3523357106624,1198.3527795755454,1384.6839608269993,1384.6839608269993,,,,,2,001,2,35,f,2024-02-06_14h57.08.086,eye_track_exp,2023.1.3,120.09004637110216,
0,-168,180,180,180,180,180,180,168,0,f,abs,resp,freq_bottom,,,,,0,137,137,774,,,,,,,,,,,0.9166587737517478,,,,,,,,,,,,,,,,,,,,,,,1198.3533036183326,1198.6264341421902,1198.6264472913663,1199.5414449213076,1199.5414587119067,1385.924560288332,1385.924560288332,,,,,1200.7254054275954,f,1,1.1464333040858037,None,1200.725916000495,1200.72595256162,1200.7259612208336,1200.7264070099864,,,,,,,2,001,2,35,f,2024-02-06_14h57.08.086,eye_track_exp,2023.1.3,120.09004637110216,
0,12,0,0,180,180,180,90,180,-12,j,present,resp,freq_bottom,,,,,0,138,138,532,,,,,,,,,,,0.9365798678389962,,,,,,,,,,,,,,,,,,,,,,,1200.7269063579797,1201.5323598025188,1201.5323735931188,1202.4727202695522,1202.4727337394397,1388.8553715668622,1388.8553715668622,1390.345759518881,1390.345759518881,1390.345759518881,1390.345759518881,1205.503899532595,None,0,,,1205.5042853486748,1206.0028190551457,1206.0028286764937,1206.0031888356443,1391.8361416980906,1391.8361416980906,1391.8610840822485,1392.360697945457,,,2,001,2,35,f,2024-02-06_14h57.08.086,eye_track_exp,2023.1.3,120.09004637110216,
180,180,12,0,-168,180,270,0,180,180,None,present,inhibit,freq_bottom,,,,,0,139,139,319,,,,,,,,,,,1.0258554561653124,,,,,,,,,,,,,,,,,,,,,,,1206.0037250654732,1206.5860818853744,1206.5860956759734,1207.6181831943268,1207.6181969849258,1394.0009435335878,1394.0009435335878,1395.4996485000638,1395.4996485000638,1395.4996485000638,1395.4996485000638,1210.649448408084,None,1,,,1210.6498348655869,1210.6505898207415,1210.650599762802,1210.651141765441,1396.9733777283736,1396.9733777283736,,,,,2,001,2,35,f,2024-02-06_14h57.08.086,eye_track_exp,2023.1.3,120.09004637110216,
180,180,168,0,0,0,168,0,180,0,f,abs,resp,freq_bottom,,,,,0,140,140,962,,,,,,,,,,,0.9428070928831651,,,,,,,,,,,,,,,,,,,,,,,1210.651634699202,1210.9906535012415,1210.9906666504176,1211.9391023153457,1211.9391161059457,1398.3222253794493,1398.3222253794493,,,,,1213.0730555414802,f,1,1.084286447669001,None,1213.0735686800735,1213.0736045997746,1213.0736132589882,1213.0741462817023,,,,,,,2,001,2,35,f,2024-02-06_14h57.08.086,eye_track_exp,2023.1.3,120.09004637110216,
180,180,180,12,0,12,0,270,0,180,j,present,resp,freq_bottom,,,,,0,141,141,619,,,,,,,,,,,0.9152132591378644,,,,,,,,,,,,,,,,,,,,,,,1213.074642422579,1213.7297918004306,1213.7298062324535,1214.6454924302443,1214.6455062208433,1401.0282210190544,1401.0282210190544,,,,,1215.6954727706216,j,1,1.0025017772995852,None,1215.6960048312003,1215.6960423544597,1215.6960510136732,1215.696500330654,,,,,,,2,001,2,35,f,2024-02-06_14h57.08.086,eye_track_exp,2023.1.3,120.09004637110216,
180,180,0,-168,180,180,-168,0,270,180,f,present,resp,freq_bottom,,,,,0,142,142,537,,,,,,,,,,,0.9294157231016896,,,,,,,,,,,,,,,,,,,,,,,1215.6969858880475,1215.9444864220322,1215.9445002126322,1216.876810497277,1216.8768239671645,1403.2596356202848,1403.2596356202848,,,,,1217.968591428148,f,1,1.042791816060344,None,1217.9691154709362,1217.9691523527727,1217.9691613326986,1217.9697084667232,,,,,,,2,001,2,35,f,2024-02-06_14h57.08.086,eye_track_exp,2023.1.3,120.09004637110216,
0,0,168,0,0,0,0,0,0,168,f,abs,resp,freq_bottom,,,,,0,143,143,987,,,,,,,,,,,0.8192080797579206,,,,,,,,,,,,,,,,,,,,,,,1217.970181837075,1218.600566505007,1218.600580295607,1219.4248996012275,1219.4249133918274,1405.8157781137406,1405.8157781137406,,,,,1220.799812768556,f,1,1.318857171957461,None,1220.8003618268503,1220.800400953668,1220.800409933594,1220.8008817003874,,,,,,,2,001,2,35,f,2024-02-06_14h57.08.086,eye_track_exp,2023.1.3,120.09004637110216,
