ori10,ori11,ori12,ori13,ori14,ori16,ori17,ori18,ori19,ori20,corrAns,distractor,responses,dist_freq,practice_trials.thisRepN,practice_trials.thisTrialN,practice_trials.thisN,practice_trials.thisIndex,trials.thisRepN,trials.thisTrialN,trials.thisN,trials.thisIndex,intro_2.started,intro_2.stopped,key_resp.keys,key_resp.rt,key_resp.duration,start_et_record_2.started,start_et_record_2.stopped,fix_check_3.started,fix_check_3.stopped,fix_practice_2.started,fixdur,fix_practice_2.stopped,practice_search_2.started,int14_2.started,per15_2.started,practice_search_2.stopped,response_2.keys,response_2.corr,feedback_4.started,feedback_4.stopped,pause_pract_2.started,pause_pract_2.stopped,response_2.rt,response_2.duration,text_feedback.started,text_feedback.stopped,stop_et_record_2.started,stop_et_record_2.stopped,break_3.started,break_3.stopped,key_resp_2.keys,key_resp_2.rt,key_resp_2.duration,fix_check_2.started,fix_check_2.stopped,fixation_2.started,fixation_2.stopped,search_displays_2.started,int14.started,per15.started,int14.stopped,int14_3.started,per15.stopped,per15_3.started,int14_3.stopped,per15_3.stopped,search_displays_2.stopped,response.keys,response.corr,feedback_6.started,feedback_6.stopped,pause_4.started,pause_4.stopped,response.rt,response.duration,text_feedback_2.started,text_feedback_2.stopped,end_2.started,end_2.stopped,participant,session,group,age,gender,date,expName,psychopyVersion,frameRate,
,,,,,,,,,,,,,,,,,,,,,,9.621347999200225e-06,27.465684498018163,space,27.446006458783813,None,,,,,,,,,,,,,,,,,,,,,,,,,,,,,,,,,,,,,,,,,,,,,,,,,,,,,,,AI,001,1,23,F,2024-02-06_16h35.17.298,eye_track_exp,2023.1.3,120.05351855665123,
0,180,0,-168,180,0,180,0,12,180,None,abs,inhibit,freq_top,0,0,0,24,,,,,,,,,,146.93274067964012,147.43445776965564,147.4552440519219,147.92076819412978,147.92078230544212,0.7634953978024259,148.6868376102375,148.68685011799062,294.51175536374285,294.51175536374285,151.70018210005765,None,1,151.7007234612738,151.70076868161232,151.70077766153736,151.70140369062028,,,,,,,,,,,,,,,,,,,,,,,,,,,,,,,,,,,,,,AI,001,1,23,F,2024-02-06_16h35.17.298,eye_track_exp,2023.1.3,120.05351855665123,
180,180,0,168,180,180,180,180,168,180,f,abs,resp,freq_top,0,1,1,10,,,,,,,,,,,,151.7018921344188,152.20946221151098,152.20947568140036,0.8291711242496189,153.0415488318722,153.04156069820237,298.86632739653396,298.86632739653396,155.5235344601424,j,0,155.52418903255966,156.02949424418875,156.02950386553675,156.03026908346328,2.442853542839657,None,301.330875613281,,,,,,,,,,,,,,,,,,,,,,,,,,,,,,,,,,,AI,001,1,23,F,2024-02-06_16h35.17.298,eye_track_exp,2023.1.3,120.05351855665123,
168,0,180,0,0,180,180,0,168,0,f,abs,resp,freq_top,0,2,2,13,,,,,,,,,,,,156.03079761621484,156.0316786110361,156.0316888738089,0.9137269356760745,156.946418388834,156.94642993445268,302.77128963915493,302.77128963915493,159.3284657861641,j,0,159.3290190137086,159.82724708200476,159.8272560619298,159.8276223146022,2.346625624637454,None,305.1276121159717,305.62718941805724,,,,,,,,,,,,,,,,,,,,,,,,,,,,,,,,,,AI,001,1,23,F,2024-02-06_16h35.17.298,eye_track_exp,2023.1.3,120.05351855665123,
180,0,180,12,0,180,180,0,12,180,j,abs,resp,freq_top,0,3,3,3,,,,,,,,,,,,159.82814603667794,159.8522205751906,159.85223212080746,0.799945661213687,160.6514740226794,160.65148653043252,306.47645206997004,306.47645206997004,162.88317854721572,j,1,162.88368430944138,162.88440687272123,162.88441649407105,162.88497902225208,2.192746585515124,None,,,,,,,,,,,,,,,,,,,,,,,,,,,,,,,,,,,,AI,001,1,23,F,2024-02-06_16h35.17.298,eye_track_exp,2023.1.3,120.05351855665123,
180,12,180,12,0,180,0,180,180,180,j,abs,resp,freq_top,0,4,4,5,,,,,,,,,,,,162.8854677867621,162.96654625014344,162.9665581164736,1.0956885109926167,164.06538411951442,164.06539630655607,309.89017422979487,309.89017422979487,165.94786351539733,j,1,165.94837152260334,165.94840808372828,165.9484161015189,165.94876792216746,1.8352833374628972,None,,,,,,,,,,,,,,,,,,,,,,,,,,,,,,,,,,,,AI,001,1,23,F,2024-02-06_16h35.17.298,eye_track_exp,2023.1.3,120.05351855665123,
12,0,0,12,0,0,180,0,180,180,j,abs,resp,freq_top,0,5,5,6,,,,,,,,,,,,165.94926662873695,166.28078238241324,166.2807958523008,1.0538452602367216,167.33713365913354,167.33714616688667,313.16235993721784,313.16235993721784,168.85393670307167,j,1,168.85445657660784,168.85449345844427,168.85450147623487,168.85494983108038,1.4742303642415209,None,,,,,,,,,,,,,,,,,,,,,,,,,,,,,,,,,,,,AI,001,1,23,F,2024-02-06_16h35.17.298,eye_track_exp,2023.1.3,120.05351855665123,
0,0,0,0,168,0,0,12,0,0,None,abs,inhibit,freq_top,0,6,6,29,,,,,,,,,,,,168.85542993637682,169.4781441444793,169.47815825578982,0.9111749077881816,170.39299103995836,170.393003227,316.2180851848552,316.2180851848552,173.40650871405524,None,1,173.40686919391737,173.40690703788823,173.40691601781327,173.4074596240098,,,,,,,,,,,,,,,,,,,,,,,,,,,,,,,,,,,,,,AI,001,1,23,F,2024-02-06_16h35.17.298,eye_track_exp,2023.1.3,120.05351855665123,
180,270,0,0,0,0,0,168,0,168,f,present,resp,freq_top,0,7,7,43,,,,,,,,,,,,173.40794742638536,173.66573863414123,173.66575146260584,0.8264962221195489,174.49798432746502,174.49799651450667,320.3228902146402,320.3228902146402,177.51127942769563,None,0,177.51171206767322,178.0022501127296,178.00225973407942,178.00324977085074,,,323.31196068332065,,,,,,,,,,,,,,,,,,,,,,,,,,,,,,,,,,,AI,001,1,23,F,2024-02-06_16h35.17.298,eye_track_exp,2023.1.3,120.05351855665123,
0,180,180,180,12,0,180,12,0,0,j,abs,resp,freq_top,0,8,8,8,,,,,,,,,,,,178.00378247285335,178.00469618026,178.00470676374425,1.0276863407889885,179.03559738632794,179.03560989408106,324.86065048013734,324.86065048013734,181.76761332184833,j,1,181.76813415751894,181.76902317013264,181.76903279148064,181.76960301674262,2.687803136594084,None,,,,,,,,,,,,,,,,,,,,,,,,,,,,,,,,,,,,AI,001,1,23,F,2024-02-06_16h35.17.298,eye_track_exp,2023.1.3,120.05351855665123,
180,12,180,12,180,90,180,180,0,180,j,present,resp,freq_top,0,9,9,37,,,,,,,,,,,,181.77010749612054,182.47528724536278,182.47530071525034,1.0460899827477,183.52293825723973,183.52295044428138,329.34841725608203,329.34841725608203,185.05610080094448,j,1,185.0566020732076,185.05663927575551,185.05664793496908,185.05710559045292,1.4965656836338894,None,,,,,,,,,,,,,,,,,,,,,,,,,,,,,,,,,,,,AI,001,1,23,F,2024-02-06_16h35.17.298,eye_track_exp,2023.1.3,120.05351855665123,
180,180,0,168,180,180,180,0,0,168,f,abs,resp,freq_top,0,10,10,18,,,,,,,,,,,,185.05758890286415,185.4053179118073,185.4053310609852,0.7781041706501952,186.18790974918375,186.18792257764835,332.0128258991317,332.0128258991317,187.5544978842663,f,1,187.55500525004936,187.55504213188578,187.55505047038787,187.55551197440946,1.3273377070636343,None,,,,,,,,,,,,,,,,,,,,,,,,,,,,,,,,,,,,AI,001,1,23,F,2024-02-06_16h35.17.298,eye_track_exp,2023.1.3,120.05351855665123,
168,0,270,180,180,180,180,168,180,180,f,present,resp,freq_top,0,11,11,49,,,,,,,,,,,,187.5559952868225,187.8038203809665,187.8038332094311,0.8979677710171688,188.70200759060208,188.7020200983552,334.52729769029975,334.52729769029975,191.71572987871332,None,0,191.7161365410484,192.2066970359192,192.2067066572672,192.20719478035426,,,337.5164120964728,,,,,,,,,,,,,,,,,,,,,,,,,,,,,,,,,,,AI,001,1,23,F,2024-02-06_16h35.17.298,eye_track_exp,2023.1.3,120.05351855665123,
90,0,180,180,180,168,0,168,0,0,f,present,resp,freq_top,0,12,12,44,,,,,,,,,,,,192.20772459595173,192.6326229143324,192.6326354220855,0.8856130660873966,193.5226990063711,193.52271119341276,339.3481440097803,339.3481440097803,195.15531646860654,j,0,195.15585045345506,195.65416351032945,195.6541724902545,195.65443707734266,1.5911259014119423,None,340.9550997316928,341.4546860137034,,,,,,,,,,,,,,,,,,,,,,,,,,,,,,,,,,AI,001,1,23,F,2024-02-06_16h35.17.298,eye_track_exp,2023.1.3,120.05351855665123,
90,0,0,12,0,12,180,180,180,0,j,present,resp,freq_top,0,13,13,32,,,,,,,,,,,,195.65496977934345,195.65577059626048,195.65578117974474,1.004520296959929,196.66206808964307,196.66208027668472,342.4871128449504,342.4871128449504,199.0439612246828,j,1,199.04447147687097,199.04519660584447,199.045205906481,199.04567735256387,2.3404708479265537,None,,,,,,,,,,,,,,,,,,,,,,,,,,,,,,,,,,,,AI,001,1,23,F,2024-02-06_16h35.17.298,eye_track_exp,2023.1.3,120.05351855665123,
180,180,168,0,270,0,0,168,0,180,f,present,resp,freq_top,0,14,14,47,,,,,,,,,,,,199.04616996561344,199.32755143733266,199.32756458651056,1.0924748098609232,200.4252408383909,200.42525334614402,346.2505498600749,346.2505498600749,203.1236805122153,f,1,203.12420583785024,203.1242420782619,203.12425041676397,203.1248119828124,2.6568470888396405,None,,,,,,,,,,,,,,,,,,,,,,,,,,,,,,,,,,,,AI,001,1,23,F,2024-02-06_16h35.17.298,eye_track_exp,2023.1.3,120.05351855665123,
0,0,180,0,168,0,0,0,180,168,f,abs,resp,freq_top,0,15,15,17,,,,,,,,,,,,203.12529305024327,203.39092052573687,203.39093431633592,0.9331013419797194,204.32226610982616,204.3222782968678,350.1472021438931,350.1472021438931,206.47082967454844,f,1,206.47136975291687,206.47140599333034,206.47141497325538,206.471992574885,2.104394061865605,None,,,,,,,,,,,,,,,,,,,,,,,,,,,,,,,,,,,,AI,001,1,23,F,2024-02-06_16h35.17.298,eye_track_exp,2023.1.3,120.05351855665123,
180,180,180,-168,180,180,12,180,0,180,None,abs,inhibit,freq_top,0,16,16,22,,,,,,,,,,,,206.4724637002546,206.64587054924414,206.64588305699726,1.044276061456437,207.69435733560567,207.6943698433588,353.51931229165893,353.51931229165893,210.70773517943417,None,1,210.7081139398597,210.7081505009828,210.7081591601982,210.7092062836382,,,,,,,,,,,,,,,,,,,,,,,,,,,,,,,,,,,,,,AI,001,1,23,F,2024-02-06_16h35.17.298,eye_track_exp,2023.1.3,120.05351855665123,
180,0,180,12,180,180,12,180,180,180,j,abs,resp,freq_top,0,17,17,1,,,,,,,,,,,,210.70969536885968,211.39965574814596,211.39966857661057,0.7098597181031605,212.11553379562793,212.11554598266957,357.94049709018327,357.94049709018327,213.84813663341265,j,1,213.84866452474125,213.84870140657767,213.84870974507976,213.8490962025826,1.6862422331359994,None,,,,,,,,,,,,,,,,,,,,,,,,,,,,,,,,,,,,AI,001,1,23,F,2024-02-06_16h35.17.298,eye_track_exp,2023.1.3,120.05351855665123,
0,180,0,0,180,168,180,0,0,168,f,abs,resp,freq_top,0,18,18,16,,,,,,,,,,,,213.84957598716574,213.98108956000215,213.98110238846857,0.7024300958932332,214.6878715845014,214.68788409225454,360.5132675190325,360.5132675190325,216.2373092808175,f,1,216.2378208158516,216.23785737697654,216.23786571547862,216.2383127874782,1.51266797268363,None,,,,,,,,,,,,,,,,,,,,,,,,,,,,,,,,,,,,AI,001,1,23,F,2024-02-06_16h35.17.298,eye_track_exp,2023.1.3,120.05351855665123,
90,0,0,12,0,0,0,12,0,0,j,present,resp,freq_top,0,19,19,34,,,,,,,,,,,,216.23879674131422,216.5874038586735,216.58741636642662,0.9946886749087398,217.58549626595413,217.58550909441874,363.4108007976738,363.4108007976738,219.93459824134516,j,1,219.93510849353333,219.93514569608124,219.93515403458514,219.93586473153482,2.3118444493829884,None,,,,,,,,,,,,,,,,,,,,,,,,,,,,,,,,,,,,AI,001,1,23,F,2024-02-06_16h35.17.298,eye_track_exp,2023.1.3,120.05351855665123,
180,168,180,0,180,0,180,0,0,168,f,abs,resp,freq_top,0,20,20,20,,,,,,,,,,,,219.9363669659342,220.07559365324596,220.0756061609991,0.8059702332844301,220.88306501530133,220.88307720234297,366.707930492812,366.707930492812,223.24794536100308,f,1,223.24848928791107,223.24852552832454,223.24853354611514,223.24899280515638,2.3255644925120578,None,,,,,,,,,,,,,,,,,,,,,,,,,,,,,,,,,,,,AI,001,1,23,F,2024-02-06_16h35.17.298,eye_track_exp,2023.1.3,120.05351855665123,
0,0,180,0,0,0,168,0,180,168,f,abs,resp,freq_top,0,21,21,15,,,,,,,,,,,,223.24946970333622,223.59729781216993,223.5973112820575,0.9279506670541509,224.52943715752008,224.52944998598468,370.3548087179679,370.3548087179679,225.7792092919135,f,1,225.77971954410168,225.7797564259381,225.7797647644402,225.78023011700134,1.2073979751894512,None,,,,,,,,,,,,,,,,,,,,,,,,,,,,,,,,,,,,AI,001,1,23,F,2024-02-06_16h35.17.298,eye_track_exp,2023.1.3,120.05351855665123,
0,0,168,0,0,0,0,0,180,168,f,abs,resp,freq_top,0,22,22,19,,,,,,,,,,,,225.78071567439474,226.14587086995562,226.1458840191317,0.7561959948482624,226.90262008565514,226.90264125262183,372.72777837287686,372.72777837287686,228.23610661223938,f,1,228.23669159023484,228.23672815135978,228.2367361691504,228.23705046653959,1.2981317826197483,None,,,,,,,,,,,,,,,,,,,,,,,,,,,,,,,,,,,,AI,001,1,23,F,2024-02-06_16h35.17.298,eye_track_exp,2023.1.3,120.05351855665123,
12,0,0,-168,0,0,180,180,180,180,None,abs,inhibit,freq_top,0,23,23,27,,,,,,,,,,,,228.23753666535595,228.63499169036186,228.63500483953794,0.7016988619121319,229.3426450883344,229.34265759608752,375.16733898512757,375.16733898512757,232.35577117354114,None,1,232.3561585931784,232.35619675786256,232.3562057377876,232.35729551587428,,,,,,,,,,,,,,,,,,,,,,,,,,,,,,,,,,,,,,AI,001,1,23,F,2024-02-06_16h35.17.298,eye_track_exp,2023.1.3,120.05351855665123,
12,0,0,12,0,0,90,180,180,0,j,present,resp,freq_top,0,24,24,38,,,,,,,,,,,,232.35778363896134,232.69786944856241,232.69788227702702,0.9433684945285966,233.64714088797336,233.6471533957265,379.4719701250724,379.4719701250724,236.66037986367155,None,0,236.66079326095132,237.15136337717013,237.15137331923142,237.1520679805999,,,382.461062081431,,,,,,,,,,,,,,,,,,,,,,,,,,,,,,,,,,,AI,001,1,23,F,2024-02-06_16h35.17.298,eye_track_exp,2023.1.3,120.05351855665123,
180,270,0,0,168,0,0,168,180,0,f,present,resp,freq_top,0,25,25,45,,,,,,,,,,,,237.1525891369838,237.22774373602078,237.22775592306243,0.7794982823717284,238.01000684398605,238.0100190310277,383.8349165797008,383.8349165797008,239.75952529548704,f,1,239.76013272329692,239.76088222635371,239.760892168415,239.76126355247106,1.7103966288432275,None,,,,,,,,,,,,,,,,,,,,,,,,,,,,,,,,,,,,AI,001,1,23,F,2024-02-06_16h35.17.298,eye_track_exp,2023.1.3,120.05351855665123,
180,168,0,180,0,180,180,180,168,180,f,abs,resp,freq_top,0,26,26,12,,,,,,,,,,,,239.7617648247342,240.07466743808436,240.07468122868522,1.092986247310578,241.17383339544358,241.17384622391,386.9988229883529,386.9988229883529,242.55724445858505,f,1,242.55784483073876,242.55788235399814,242.5578910132117,242.55833840592277,1.3456878638589842,None,,,,,,,,,,,,,,,,,,,,,,,,,,,,,,,,,,,,AI,001,1,23,F,2024-02-06_16h35.17.298,eye_track_exp,2023.1.3,120.05351855665123,
180,0,180,0,168,180,0,180,12,180,None,abs,inhibit,freq_top,0,27,27,30,,,,,,,,,,,,242.55881819050592,242.82275808145096,242.82277187205182,0.9513640868622049,243.77991165036292,243.77992415811605,389.6049163167172,389.6049163167172,246.79334561872565,None,1,246.79373656619282,246.79377505158664,246.79378403151168,246.7948263442795,,,,,,,,,,,,,,,,,,,,,,,,,,,,,,,,,,,,,,AI,001,1,23,F,2024-02-06_16h35.17.298,eye_track_exp,2023.1.3,120.05351855665123,
0,180,0,0,180,0,180,168,0,168,f,abs,resp,freq_top,0,28,28,14,,,,,,,,,,,,246.79579777977779,247.04386918044656,247.04388200891117,0.7595487686563323,247.8097811271473,247.8097939556119,393.63476719222854,393.63476719222854,250.05862512211024,f,1,250.05913473287546,250.05917225613484,250.05918059463693,250.05963023233016,2.213847485880251,None,,,,,,,,,,,,,,,,,,,,,,,,,,,,,,,,,,,,AI,001,1,23,F,2024-02-06_16h35.17.298,eye_track_exp,2023.1.3,120.05351855665123,
0,270,0,0,12,0,180,180,180,12,j,present,resp,freq_top,0,29,29,42,,,,,,,,,,,,250.0601266939193,250.265765060778,250.2657778892426,1.0380809348386832,251.30677028645368,251.30678247349533,397.1317714249799,397.1317714249799,254.32017891859869,None,0,254.32061604853698,254.8111842404869,254.8111941825482,254.81255175483784,,,400.12087396482275,,,,,,,,,,,,,,,,,,,,,,,,,,,,,,,,,,,AI,001,1,23,F,2024-02-06_16h35.17.298,eye_track_exp,2023.1.3,120.05351855665123,
0,180,0,12,0,12,0,180,180,180,j,abs,resp,freq_top,0,30,30,0,,,,,,,,,,,,254.81308445684044,254.8139846943577,254.81399527784197,0.7721714957778133,255.58651580819605,255.58652831594918,401.4114143190054,401.4114143190054,257.08678328168753,j,1,257.08730091024336,257.0880286049105,257.0880382262603,293.80443486443255,1.460251827546017,None,,,,,,,,,,,,,,,,,,,,,,,,,,,,,,,,,,,,AI,001,1,23,F,2024-02-06_16h35.17.298,eye_track_exp,2023.1.3,120.05351855665123,
0,0,168,0,0,0,0,0,168,0,f,abs,resp,freq_top,0,31,31,11,,,,,,,,,,,,293.80499001624776,294.4113739093391,294.411387058517,0.7295444043751887,295.14372210209876,295.1437346098519,440.9690468386507,440.9690468386507,296.8932546649103,f,1,296.89376363425254,296.89380211964635,296.89381077886173,296.89425400231994,1.7087879393529875,None,,,,,,,,,,,,,,,,,,,,,,,,,,,,,,,,,,,,AI,001,1,23,F,2024-02-06_16h35.17.298,eye_track_exp,2023.1.3,120.05351855665123,
90,0,180,168,180,180,0,168,0,0,f,present,resp,freq_top,0,32,32,46,,,,,,,,,,,,296.8947440496777,297.225894512816,297.2259073412806,0.7971503412444674,298.02438723234263,298.0243994193843,443.84988194605285,443.84988194605285,299.6574607465009,f,1,299.6579706779776,299.6580078805255,299.65801621902756,299.65848125087723,1.596022526433444,None,,,,,,,,,,,,,,,,,,,,,,,,,,,,,,,,,,,,AI,001,1,23,F,2024-02-06_16h35.17.298,eye_track_exp,2023.1.3,120.05351855665123,
0,0,0,-168,180,180,180,180,0,12,None,abs,inhibit,freq_top,0,33,33,25,,,,,,,,,,,,299.6589831645633,299.91474362633744,299.91475613409057,0.9797655419631648,300.89748517189764,300.89749767965077,446.7224109431936,446.7224109431936,303.9108344723936,None,1,303.91221513592063,303.91225330060297,303.91226195981653,303.9126984483337,,,,,,,,,,,,,,,,,,,,,,,,,,,,,,,,,,,,,,AI,001,1,23,F,2024-02-06_16h35.17.298,eye_track_exp,2023.1.3,120.05351855665123,
0,180,0,180,168,180,12,180,0,180,None,abs,inhibit,freq_top,0,34,34,28,,,,,,,,,,,,303.91318625070744,304.18613172396,304.18614519384755,0.7332772082275102,304.9186550252616,304.91866753301656,450.74395250132693,450.74395250132693,307.93235293928956,None,1,307.93273971750386,307.932777882188,307.93278718282454,307.93350878396996,,,,,,,,,,,,,,,,,,,,,,,,,,,,,,,,,,,,,,AI,001,1,23,F,2024-02-06_16h35.17.298,eye_track_exp,2023.1.3,120.05351855665123,
180,0,90,180,12,0,180,180,12,180,j,present,resp,freq_top,0,35,35,41,,,,,,,,,,,,307.9340001141736,308.1411426185332,308.1411551262863,0.7930616336702545,308.9404916380863,308.94050414583944,454.76548411739896,454.76548411739896,311.9539121365615,None,0,311.9542989147758,312.44489404650267,312.44490398856215,312.4454777416522,,,457.75457447020017,,,,,,,,,,,,,,,,,,,,,,,,,,,,,,,,,,,AI,001,1,23,F,2024-02-06_16h35.17.298,eye_track_exp,2023.1.3,120.05351855665123,
0,180,0,12,0,180,180,12,0,0,j,abs,resp,freq_top,0,36,36,2,,,,,,,,,,,,312.4460149336155,312.837618575104,312.8376314035686,0.8544289905465717,313.6948582871555,313.6948711156201,459.51972119897437,459.51972119897437,315.3108574353464,j,1,315.3113817988451,315.31227433928507,315.3122839606349,315.3125427749128,1.5731249995696999,None,,,,,,,,,,,,,,,,,,,,,,,,,,,,,,,,,,,,AI,001,1,23,F,2024-02-06_16h35.17.298,eye_track_exp,2023.1.3,120.05351855665123,
180,12,180,-168,180,180,0,180,180,180,None,abs,inhibit,freq_top,0,37,37,26,,,,,,,,,,,,315.31303410511464,315.610347568012,315.6103603964766,0.9395710437265884,316.5503032969791,316.55031580473224,462.3756107151039,462.3756107151039,319.5640133980487,None,1,319.5644713742422,319.5645092182149,319.56451787742844,319.5649819471437,,,,,,,,,,,,,,,,,,,,,,,,,,,,,,,,,,,,,,AI,001,1,23,F,2024-02-06_16h35.17.298,eye_track_exp,2023.1.3,120.05351855665123,
90,0,0,12,0,180,180,180,0,12,j,present,resp,freq_top,0,38,38,36,,,,,,,,,,,,319.56547135307665,319.8233113089973,319.8233244581734,0.8439933432967288,320.67223464801646,320.6722468350581,466.4970763928668,466.4970763928668,322.9212665799896,j,1,322.9217386674936,322.9217745871956,322.9217829256977,322.9222543717806,2.2113276546770066,None,,,,,,,,,,,,,,,,,,,,,,,,,,,,,,,,,,,,AI,001,1,23,F,2024-02-06_16h35.17.298,eye_track_exp,2023.1.3,120.05351855665123,
0,0,0,-168,0,0,0,12,0,0,None,abs,inhibit,freq_top,0,39,39,23,,,,,,,,,,,,322.92274698483016,323.170786635048,323.1707997842259,0.9418709263139846,324.11860268512646,324.1186151928796,469.94410092666476,469.94410092666476,327.13250553387843,None,1,327.1329314389113,327.1329689621707,327.13297762138427,327.1339237206648,,,,,,,,,,,,,,,,,,,,,,,,,,,,,,,,,,,,,,AI,001,1,23,F,2024-02-06_16h35.17.298,eye_track_exp,2023.1.3,120.05351855665123,
0,270,0,0,12,0,0,12,0,0,j,present,resp,freq_top,0,40,40,40,,,,,,,,,,,,327.1344163337144,327.4000146244507,327.4000274529153,0.7835650476080633,328.18244642672653,328.18245893447965,474.0072538554359,474.0072538554359,330.06495019669273,j,1,330.06546461813195,330.06550182067986,330.06551015918194,330.06619616133867,1.8367214083682484,None,,,,,,,,,,,,,,,,,,,,,,,,,,,,,,,,,,,,AI,001,1,23,F,2024-02-06_16h35.17.298,eye_track_exp,2023.1.3,120.05351855665123,
180,180,90,180,12,180,12,0,0,180,j,present,resp,freq_top,0,41,41,39,,,,,,,,,,,,330.06668203944355,330.2981255047198,330.2981386538959,0.883331081358116,331.17968926892536,331.1797017766785,477.0047109329953,477.0047109329953,333.66222555904824,j,1,333.6627329248331,333.66276948595623,333.6627781451716,333.6632293864204,2.4395668901524914,None,,,,,,,,,,,,,,,,,,,,,,,,,,,,,,,,,,,,AI,001,1,23,F,2024-02-06_16h35.17.298,eye_track_exp,2023.1.3,120.05351855665123,
0,0,0,-168,0,12,0,0,0,0,None,abs,inhibit,freq_top,0,42,42,21,,,,,,,,,,,,333.6637126988335,333.9194019626266,333.9194141496682,0.7463347833393774,334.66785853795227,334.6678707249939,480.49334747885405,480.49334747885405,337.681776460151,None,1,337.682165162636,337.68220332731835,337.6822123072434,337.6829602067428,,,,,,,,,,,,,,,,,,,,,,,,,,,,,,,,,,,,,,AI,001,1,23,F,2024-02-06_16h35.17.298,eye_track_exp,2023.1.3,120.05351855665123,
180,0,180,0,12,180,180,180,12,180,j,abs,resp,freq_top,0,43,43,9,,,,,,,,,,,,337.68344961267576,338.4403575806282,338.44037137122905,0.8142405651811915,339.25557348689836,339.2555859946515,485.08107044559074,485.08107044559074,341.27141086814663,j,1,341.2719153475264,341.27195287078575,341.27196120928784,341.2724381074677,1.9787392489160993,None,,,,,,,,,,,,,,,,,,,,,,,,,,,,,,,,,,,,AI,001,1,23,F,2024-02-06_16h35.17.298,eye_track_exp,2023.1.3,120.05351855665123,
180,270,180,12,180,0,12,180,0,180,j,present,resp,freq_top,0,44,44,33,,,,,,,,,,,,341.27292751340065,341.51249011406435,341.512502301106,0.8144913411990543,342.3284343564246,342.32844686417775,488.1534168936778,488.1534168936778,344.29448735209553,j,1,344.2950104327483,344.29504731458474,344.2950556530868,344.2953070909989,1.929681916582922,None,,,,,,,,,,,,,,,,,,,,,,,,,,,,,,,,,,,,AI,001,1,23,F,2024-02-06_16h35.17.298,eye_track_exp,2023.1.3,120.05351855665123,
180,270,180,12,180,180,180,180,12,180,j,present,resp,freq_top,0,45,45,35,,,,,,,,,,,,344.2957891205642,344.60158091586345,344.60159374432806,1.0241239219183795,345.625132694433,345.6251448814746,491.45059886480885,491.45059886480885,347.7243977516828,j,1,347.72490800387095,347.7249445649959,347.72495322420946,347.7254237081579,2.056314899975405,None,,,,,,,,,,,,,,,,,,,,,,,,,,,,,,,,,,,,AI,001,1,23,F,2024-02-06_16h35.17.298,eye_track_exp,2023.1.3,120.05351855665123,
180,0,180,0,12,0,12,180,180,180,j,abs,resp,freq_top,0,46,46,7,,,,,,,,,,,,347.72590702056914,348.0655627558881,348.0655759050642,0.7007615096944646,348.77293200336317,348.77294386969334,494.59788375230164,494.59788375230164,350.48899894998976,j,1,350.48950567434986,350.4895422354748,350.48955089468836,350.4900409420461,1.6782799257325678,None,,,,,,,,,,,,,,,,,,,,,,,,,,,,,,,,,,,,AI,001,1,23,F,2024-02-06_16h35.17.298,eye_track_exp,2023.1.3,120.05351855665123,
0,168,180,90,0,180,0,168,0,0,f,present,resp,freq_top,0,47,47,48,,,,,,,,,,,,350.4905264994395,350.82157497628396,350.82158812546004,0.9944901514339719,351.8204002096172,351.8204130380818,497.6452801191517,497.6452801191517,354.5690399112791,f,1,354.56956235050893,354.5696011566142,354.5696098158278,354.5700171195858,2.7091407221359987,None,,,,,,,,,,,,,,,,,,,,,,,,,,,,,,,,,,,,AI,001,1,23,F,2024-02-06_16h35.17.298,eye_track_exp,2023.1.3,120.05351855665123,
0,180,180,180,168,0,0,0,0,12,None,abs,inhibit,freq_top,0,48,48,31,,,,,,,,,,,,354.5705097326354,354.8682866238232,354.86829913157635,0.9686056699376469,355.8412852710626,355.84129745810424,501.6668059624135,501.6668059624135,358.855219549554,None,1,358.855622684061,358.85566116945483,358.8556704700932,358.85678750866646,,,,,,,,,,,,,,,,,,,,,,,,,,,,,,,,,,,,,,AI,001,1,23,F,2024-02-06_16h35.17.298,eye_track_exp,2023.1.3,120.05351855665123,
0,180,0,12,0,180,180,180,0,12,j,abs,resp,freq_top,0,49,49,4,,,,,,,,,,,,358.8572698589451,359.1889995272704,359.1890126764483,0.9084967955764436,360.0961746800749,360.09618654640326,505.92145387557684,505.92145387557684,361.47941480392,j,1,361.47992441468523,361.47996129652165,361.47996963502374,361.4804234419662,1.3451214871365664,None,,,,,,,,,,,,,,,,,,,,,,,,,,,,,,,,,,,,AI,001,1,23,F,2024-02-06_16h35.17.298,eye_track_exp,2023.1.3,120.05351855665123,
,,,,,,,,,,,,,,,,,,,,,,,,,,,,,,,,,,,,,,,,,,,,,,,,361.48047443511496,361.9837370344303,361.98375242858856,365.19159889495677,space,3.1909560525382403,None,,,,,,,,,,,,,,,,,,,,,,,,,,,AI,001,1,23,F,2024-02-06_16h35.17.298,eye_track_exp,2023.1.3,120.05351855665123,
180,270,0,180,180,180,180,12,0,-168,None,present,inhibit,freq_top,,,,,0,0,0,320,,,,,,365.1916242311745,365.6936979525126,,,,0.7891828952755897,,,,,,,,,,,,,,,,,,,,,,,365.839357473511,365.84116917345636,365.841181360498,366.6323910398296,366.632404509719,512.457515973043,512.457515973043,513.9478859652118,513.9478859652118,513.9478859652118,513.9478859652118,515.4382623716119,515.4382623716119,369.6641004391822,None,1,369.66495962561385,369.6649993938554,369.66500837378044,369.66555518709356,,,,,,,AI,001,1,23,F,2024-02-06_16h35.17.298,eye_track_exp,2023.1.3,120.05351855665123,
180,180,0,0,168,0,0,168,180,180,f,abs,resp,freq_top,,,,,0,1,1,782,,,,,,,,,,,0.7998363902573713,,,,,,,,,,,,,,,,,,,,,,,369.6660388202181,369.89733828597673,369.8973517558643,370.6954432651528,370.6954573764633,516.5206554319248,516.5206554319248,518.0110558916967,518.0110558916967,518.0110558916967,518.0110558916967,,,372.32065549606705,j,0,372.32163976002994,372.82624517890326,372.82625640380866,372.82694817877564,1.5766868228274689,None,518.1276361693435,,,,AI,001,1,23,F,2024-02-06_16h35.17.298,eye_track_exp,2023.1.3,120.05351855665123,
-12,0,90,180,12,180,180,180,0,180,j,present,resp,freq_top,,,,,0,2,2,505,,,,,,,,,,,1.0752874536986314,,,,,,,,,,,,,,,,,,,,,,,372.827474466545,372.92727158437265,372.92728441283725,374.00910339935035,374.0091171899512,519.8344711112604,519.8344711112604,521.3248690053388,521.3248690053388,521.3248690053388,521.3248690053388,,,375.5839475495395,j,1,375.58445683959144,375.5851781200272,375.5851880620867,375.58573904465084,1.527108654821859,None,,,,,AI,001,1,23,F,2024-02-06_16h35.17.298,eye_track_exp,2023.1.3,120.05351855665123,
168,0,0,90,0,180,180,180,12,180,None,present,inhibit,freq_top,,,,,0,3,3,81,,,,,,,,,,,0.7050076701860817,,,,,,,,,,,,,,,,,,,,,,,375.58622941272006,375.9082896256841,375.908303416285,376.61517427790204,376.6151877477896,522.4405817580518,522.4405817580518,523.9309665029541,523.9309665029541,523.9309665029541,523.9309665029541,525.4213429093561,525.4213429093561,379.64685962388285,None,1,379.6472422328461,379.64727911468253,379.6472880946076,379.6477476743603,,,,,,,AI,001,1,23,F,2024-02-06_16h35.17.298,eye_track_exp,2023.1.3,120.05351855665123,
90,180,12,180,168,180,0,180,0,180,None,present,inhibit,freq_top,,,,,0,4,4,126,,,,,,,,,,,0.982232764304136,,,,,,,,,,,,,,,,,,,,,,,379.64824670164126,379.8630211804375,379.8630340089021,380.8447313174256,380.8447447873132,526.6702805521127,526.6702805521127,528.1606518271274,528.1606518271274,528.1606518271274,528.1606518271274,,,382.95233102827115,j,0,382.95285731604054,383.45874814708804,383.45875969270674,383.4597577472705,2.0668377689598856,None,528.7601272712,,,,AI,001,1,23,F,2024-02-06_16h35.17.298,eye_track_exp,2023.1.3,120.05351855665123,
180,12,180,0,-12,0,270,0,180,180,j,present,resp,freq_top,,,,,0,5,5,455,,,,,,,,,,,0.7555565479331919,,,,,,,,,,,,,,,,,,,,,,,383.4608064742697,383.4616252510368,383.46163615523255,384.216855576502,384.216869367101,530.0423672879278,530.0423672879278,,,,,,,385.6007435378215,j,1,385.60125379000965,385.60198886104445,385.6019988031039,385.60245966570255,1.3350132982777723,None,,,,,AI,001,1,23,F,2024-02-06_16h35.17.298,eye_track_exp,2023.1.3,120.05351855665123,
180,-168,180,90,12,0,0,0,0,180,None,present,inhibit,freq_top,,,,,0,6,6,135,,,,,,,,,,,0.8812670094822462,,,,,,,,,,,,,,,,,,,,,,,385.6029509959062,385.87405718801347,385.87407033718955,386.75634576048105,386.7563598717916,532.581847209136,532.581847209136,534.0722306711923,534.0722306711923,534.0722306711923,534.0722306711923,,,388.8724552334679,j,0,388.87295201576853,389.37865138197776,389.37866324830793,389.37982326223937,2.0747952656911366,None,534.6800240918583,,,,AI,001,1,23,F,2024-02-06_16h35.17.298,eye_track_exp,2023.1.3,120.05351855665123,
180,180,12,180,168,0,180,0,180,180,None,abs,inhibit,freq_top,,,,,0,7,7,412,,,,,,,,,,,0.7936930778987056,,,,,,,,,,,,,,,,,,,,,,,389.3803524364139,389.40436219117873,389.4043743782204,390.20389561991396,390.203909410513,536.0288621215841,536.0288621215841,537.5192622606446,537.5192622606446,537.5192622606446,537.5192622606446,,,391.74562597456315,f,0,391.7461355853284,392.2439672540604,392.24397783754466,392.244450245762,1.4920253692216647,None,537.5442412059274,538.0437950960641,,,AI,001,1,23,F,2024-02-06_16h35.17.298,eye_track_exp,2023.1.3,120.05351855665123,
90,180,168,180,180,12,0,180,0,180,None,present,inhibit,freq_top,,,,,0,8,8,127,,,,,,,,,,,0.8878231123381575,,,,,,,,,,,,,,,,,,,,,,,392.24500443544093,392.24569717254235,392.2457074353133,393.13457091671626,393.1345850280268,538.9596891149831,538.9596891149831,540.4500639178259,540.4500639178259,540.4500639178259,540.4500639178259,,,395.15886610482266,j,0,395.15944723427856,395.65703227577615,395.6570425385471,395.65739949058116,1.9844527264358476,None,540.9579723456791,541.4575243115451,,,AI,001,1,23,F,2024-02-06_16h35.17.298,eye_track_exp,2023.1.3,120.05351855665123,
12,0,270,180,0,180,168,180,0,0,None,present,inhibit,freq_top,,,,,0,9,9,216,,,,,,,,,,,0.8612268731957445,,,,,,,,,,,,,,,,,,,,,,,395.6579267404868,395.7658959111195,395.76590841887264,396.6313435956781,396.6313570655657,542.4566859713686,542.4566859713686,543.9470675091561,543.9470675091561,543.9470675091561,543.9470675091561,545.4374410291512,545.4374410291512,399.6630581264162,None,1,399.66343945253175,399.66428132053625,399.6642919040205,399.6649426278982,,,,,,,AI,001,1,23,F,2024-02-06_16h35.17.298,eye_track_exp,2023.1.3,120.05351855665123,
12,0,90,180,180,180,0,0,168,0,None,present,inhibit,freq_top,,,,,0,10,10,201,,,,,,,,,,,0.9573977497603943,,,,,,,,,,,,,,,,,,,,,,,399.66544069304473,399.6662033452794,399.6662136080504,400.6277141022674,400.62772789286646,546.4532533948932,546.4532533948932,,,,,,,401.9452962188734,j,0,401.9458196202395,402.45074318503794,402.45075440994515,402.45156548963314,1.2748253484405723,None,547.7521107635312,,,,AI,001,1,23,F,2024-02-06_16h35.17.298,eye_track_exp,2023.1.3,120.05351855665123,
0,270,0,-168,0,0,-168,0,180,0,f,present,resp,freq_top,,,,,0,11,11,607,,,,,,,,,,,0.8567493171274797,,,,,,,,,,,,,,,,,,,,,,,402.4521036437327,402.4530603264975,402.45307123069324,403.30925548080086,403.30927664776755,549.1342527707893,549.1342527707893,,,,,,,404.7251844572893,f,1,404.7256956716119,404.72641887631653,404.7264291390875,404.72698493232747,1.3775890487595461,None,,,,,AI,001,1,23,F,2024-02-06_16h35.17.298,eye_track_exp,2023.1.3,120.05351855665123,
0,0,90,0,0,0,12,0,180,12,j,present,resp,freq_top,,,,,0,12,12,567,,,,,,,,,,,1.0528838162471912,,,,,,,,,,,,,,,,,,,,,,,404.72747401754896,404.93373905491353,404.9337525248029,405.99007429605444,405.990087765942,551.8153002534273,551.8153002534273,,,,,,,407.44047945104467,j,1,407.44099098607876,407.4410288300496,407.4410378099765,407.44150316253763,1.400318522735688,None,,,,,AI,001,1,23,F,2024-02-06_16h35.17.298,eye_track_exp,2023.1.3,120.05351855665123,
180,270,0,180,0,180,0,-168,0,-168,f,present,resp,freq_top,,,,,0,13,13,727,,,,,,,,,,,0.9041511009301403,,,,,,,,,,,,,,,,,,,,,,,407.44200603835816,407.6724780681361,407.6724915380237,408.5795220498858,408.57953551977334,554.4047165775191,554.4047165775191,555.8951154337337,555.8951154337337,555.8951154337337,555.8951154337337,,,410.7213683097143,f,1,410.7218949181952,410.72193308287933,410.7219420628044,410.72241350888726,2.0911714424619277,None,,,,,AI,001,1,23,F,2024-02-06_16h35.17.298,eye_track_exp,2023.1.3,120.05351855665123,
180,180,0,168,180,180,180,0,0,168,f,abs,resp,freq_top,,,,,0,14,14,914,,,,,,,,,,,0.7914486738829263,,,,,,,,,,,,,,,,,,,,,,,410.72294460733065,411.01175857085764,411.0117720407452,411.80183357247734,411.8018470423649,557.6269373387222,557.6269373387222,,,,,,,413.0019736593131,f,1,413.00248551506047,413.0025227176084,413.00253137682193,413.00300506788517,1.1562172112171538,None,,,,,AI,001,1,23,F,2024-02-06_16h35.17.298,eye_track_exp,2023.1.3,120.05351855665123,
0,180,0,180,168,180,12,180,0,180,None,abs,inhibit,freq_top,,,,,0,15,15,342,,,,,,,,,,,1.03268653467413,,,,,,,,,,,,,,,,,,,,,,,413.0035018501858,413.21767178757545,413.21768461604006,414.24932474168236,414.24933821157174,560.0748470365925,560.0748470365925,561.5652250465519,561.5652250465519,561.5652250465519,561.5652250465519,,,416.35746421018666,j,0,416.3580046092666,416.8633329121312,416.8633444577499,416.86382777016297,2.068944523594837,None,562.1647059427232,,,,AI,001,1,23,F,2024-02-06_16h35.17.298,eye_track_exp,2023.1.3,120.05351855665123,
12,180,90,180,-12,180,0,180,180,180,j,present,resp,freq_top,,,,,0,16,16,437,,,,,,,,,,,0.9022702846879491,,,,,,,,,,,,,,,,,,,,,,,416.8643713763595,416.86544062890243,416.8654512123867,417.77178802501294,417.771801815612,563.5968135376224,563.5968135376224,565.0872063003153,565.0872063003153,565.0872063003153,565.0872063003153,566.5775913659309,566.5775913659309,420.8028848651702,None,0,420.8032633048824,421.3017014392899,421.3017113813494,421.30217320608426,,,566.6025642176919,567.1021360676787,,,AI,001,1,23,F,2024-02-06_16h35.17.298,eye_track_exp,2023.1.3,120.05351855665123,
0,270,180,180,180,-168,0,-168,0,0,f,present,resp,freq_top,,,,,0,17,17,683,,,,,,,,,,,0.7558970940055977,,,,,,,,,,,,,,,,,,,,,,,421.30271424658713,421.4018683376162,421.4018808453693,422.1596136836106,422.15962683278667,567.9847078285075,567.9847078285075,569.4750848763306,569.4750848763306,569.4750848763306,569.4750848763306,,,424.0182042330089,f,1,424.01873244504714,424.0194761752955,424.01948643806827,424.0199614119774,1.8218051108960935,None,,,,,AI,001,1,23,F,2024-02-06_16h35.17.298,eye_track_exp,2023.1.3,120.05351855665123,
180,270,0,180,180,12,180,180,0,12,j,present,resp,freq_top,,,,,0,18,18,575,,,,,,,,,,,0.8228558299580593,,,,,,,,,,,,,,,,,,,,,,,424.02047775768733,424.3256226776466,424.32563678895895,425.1489952425636,425.14900967458743,570.9737959363283,570.9737959363283,,,,,,,426.44930511413077,j,1,426.4498144041845,426.44985128602093,426.4498602659478,426.45031567644764,1.265334850164436,None,,,,,AI,001,1,23,F,2024-02-06_16h35.17.298,eye_track_exp,2023.1.3,120.05351855665123,
0,0,0,0,-168,0,0,0,0,168,f,abs,resp,freq_top,,,,,0,19,19,932,,,,,,,,,,,1.0698311678233472,,,,,,,,,,,,,,,,,,,,,,,426.4508114966138,426.78960964905855,426.789624401792,427.86330501022167,427.8633184801092,573.6881339266074,573.6881339266074,575.1785138608357,575.1785138608357,575.1785138608357,575.1785138608357,,,430.6707545638874,f,1,430.67139759068596,430.6714357553683,430.6714453767181,430.67195979815733,2.75834686466078,None,,,,,AI,001,1,23,F,2024-02-06_16h35.17.298,eye_track_exp,2023.1.3,120.05351855665123,
180,180,0,0,168,0,0,168,180,180,f,abs,resp,freq_top,,,,,0,20,20,785,,,,,,,,,,,0.8621926945008567,,,,,,,,,,,,,,,,,,,,,,,430.67246299468934,430.93578327078467,430.93579641996075,431.8013011911862,431.80131530249855,577.6263998260474,577.6263998260474,579.1167707803488,579.1167707803488,579.1167707803488,579.1167707803488,,,433.4757317516687,f,1,433.4762468145327,433.4762840170806,433.47629299700566,433.4767525767584,1.6362760040701687,None,,,,,AI,001,1,23,F,2024-02-06_16h35.17.298,eye_track_exp,2023.1.3,120.05351855665123,
90,180,168,180,180,12,0,180,0,180,None,present,inhibit,freq_top,,,,,0,21,21,130,,,,,,,,,,,0.7277260245812434,,,,,,,,,,,,,,,,,,,,,,,433.47724486909465,433.73371923493687,433.7337330255359,434.4657954642389,434.46580925483977,580.2907828121661,580.2907828121661,,,,,,,435.49993778194585,j,0,435.5004643904267,436.00518751046366,436.00519873536905,436.0060608082058,0.9875748540634959,None,581.3065897258111,,,,AI,001,1,23,F,2024-02-06_16h35.17.298,eye_track_exp,2023.1.3,120.05351855665123,
90,180,0,-168,180,0,180,0,0,-168,f,present,resp,freq_top,,,,,0,22,22,724,,,,,,,,,,,1.0103425790681424,,,,,,,,,,,,,,,,,,,,,,,436.00659447234284,436.00751074544314,436.0075210082141,437.0220765051163,437.02208997500384,582.846901252251,582.846901252251,584.337292090675,584.337292090675,584.337292090675,584.337292090675,,,438.72932388217487,f,1,438.7298629984107,438.7305813924395,438.73059165521227,438.7311442413338,1.6627815366682626,None,,,,,AI,001,1,23,F,2024-02-06_16h35.17.298,eye_track_exp,2023.1.3,120.05351855665123,
90,180,180,-168,0,180,-12,180,0,180,None,present,inhibit,freq_top,,,,,0,23,23,133,,,,,,,,,,,1.0303221584219044,,,,,,,,,,,,,,,,,,,,,,,438.7316532106761,439.1042652721262,439.1042790627271,440.13580918428306,440.1358313133842,585.9608927456957,585.9608927456957,587.4512659449811,587.4512659449811,587.4512659449811,587.4512659449811,588.9416567834032,588.9416567834032,443.1671343711132,None,1,443.16752179075047,443.1675599554346,443.16756893535967,443.16817475961034,,,,,,,AI,001,1,23,F,2024-02-06_16h35.17.298,eye_track_exp,2023.1.3,120.05351855665123,
180,180,180,-168,180,-168,0,180,0,180,f,abs,resp,freq_top,,,,,0,24,24,870,,,,,,,,,,,1.0038710833383568,,,,,,,,,,,,,,,,,,,,,,,443.1686888603381,443.3749150915992,443.37492824077526,444.3825182019882,444.38253199258725,590.2072592433906,590.2072592433906,591.6976090307271,591.6976090307271,591.6976090307271,591.6976090307271,,,446.3404453273288,f,1,446.34099759273886,446.34103511599824,446.3410437752118,446.3413984822637,1.9189040818600915,None,,,,,AI,001,1,23,F,2024-02-06_16h35.17.298,eye_track_exp,2023.1.3,120.05351855665123,
90,180,180,-12,0,0,180,180,-12,0,j,present,resp,freq_top,,,,,0,25,25,706,,,,,,,,,,,0.9911546504601858,,,,,,,,,,,,,,,,,,,,,,,446.3419052066256,446.62281170443384,446.6228258157462,447.6127429631051,447.612756753706,593.4377870769895,593.4377870769895,594.928187857473,594.928187857473,594.928187857473,594.928187857473,,,449.5040781689677,j,1,449.50460830527663,449.504645828536,449.5046544877496,449.5054261199093,1.855328775885937,None,,,,,AI,001,1,23,F,2024-02-06_16h35.17.298,eye_track_exp,2023.1.3,120.05351855665123,
180,0,-168,0,0,0,0,0,168,0,f,abs,resp,freq_top,,,,,0,26,26,951,,,,,,,,,,,0.9830407570978288,,,,,,,,,,,,,,,,,,,,,,,449.5059219400737,449.50670736283246,449.50671762560523,450.49319065087184,450.4932041207594,596.318630843607,596.318630843607,597.8090338690727,597.8090338690727,597.8090338690727,597.8090338690727,,,452.0181926873902,f,1,452.01869844961584,452.0187350107408,452.01874366995435,452.01919523191646,1.4705255036005838,None,,,,,AI,001,1,23,F,2024-02-06_16h35.17.298,eye_track_exp,2023.1.3,120.05351855665123,
180,-168,180,270,0,180,12,0,180,180,None,present,inhibit,freq_top,,,,,0,27,27,47,,,,,,,,,,,0.7015281159852282,,,,,,,,,,,,,,,,,,,,,,,452.01968592069534,452.3005228240836,452.3005359732597,453.00793825403343,453.0079520446325,598.8331478551136,598.8331478551136,600.3318662914771,600.3318662914771,600.3318662914771,600.3318662914771,,,455.25766356453096,j,0,455.25824501469833,455.7631782008466,455.7631897464653,455.7639052540908,2.203765274663965,None,601.0645621356325,,,,AI,001,1,23,F,2024-02-06_16h35.17.298,eye_track_exp,2023.1.3,120.05351855665123,
270,0,168,180,180,180,12,0,0,0,None,present,inhibit,freq_top,,,,,0,28,28,253,,,,,,,,,,,0.9773112928306912,,,,,,,,,,,,,,,,,,,,,,,455.76446457515704,455.82237002039074,455.8223822074324,456.8044172252921,456.8044306951815,602.6298801885532,602.6298801885532,604.1202562742419,604.1202562742419,604.1202562742419,604.1202562742419,,,458.6788307239167,f,0,458.67934257966226,459.17771272320715,459.1777229859799,459.1780369626558,1.8312940056130174,None,604.4782810883426,604.977843637691,,,AI,001,1,23,F,2024-02-06_16h35.17.298,eye_track_exp,2023.1.3,120.05351855665123,
180,180,180,90,168,0,0,0,0,12,None,present,inhibit,freq_top,,,,,0,29,29,169,,,,,,,,,,,0.8146285394882378,,,,,,,,,,,,,,,,,,,,,,,459.1785991701272,459.17984000338583,459.1798505868701,459.9935617142164,459.993575184104,605.8187944065339,605.8187944065339,607.3091730579144,607.3091730579144,607.3091730579144,607.3091730579144,608.7995456157769,608.7995456157769,463.025059123187,None,1,463.0254417321503,463.02617423749143,463.0261848209757,463.0267540841014,,,,,,,AI,001,1,23,F,2024-02-06_16h35.17.298,eye_track_exp,2023.1.3,120.05351855665123,
180,90,0,180,180,180,180,-168,0,12,None,present,inhibit,freq_top,,,,,0,30,30,178,,,,,,,,,,,0.9241473179979666,,,,,,,,,,,,,,,,,,,,,,,463.0272576013467,463.0280106322316,463.0280205742911,463.9571221391725,463.957136250483,609.7820450240633,609.7820450240633,611.2724288068312,611.2724288068312,611.2724288068312,611.2724288068312,612.7628218902355,612.7628218902355,466.988616661738,None,1,466.9889951014502,466.9890319832866,466.9890406425002,466.9895322934153,,,,,,,AI,001,1,23,F,2024-02-06_16h35.17.298,eye_track_exp,2023.1.3,120.05351855665123,
0,180,0,180,168,180,168,180,180,180,f,abs,resp,freq_top,,,,,0,31,31,759,,,,,,,,,,,0.8186728695162695,,,,,,,,,,,,,,,,,,,,,,,466.990033244967,467.21246407228136,467.2124775421689,468.03643444365844,468.036447913546,613.861866618603,613.861866618603,615.3522667576635,615.3522667576635,615.3522667576635,615.3522667576635,,,469.89525782969395,j,0,469.8957815517697,470.40057426622843,470.4005861325586,470.4015784143121,1.8143492071394576,None,615.7019508246467,,,,AI,001,1,23,F,2024-02-06_16h35.17.298,eye_track_exp,2023.1.3,120.05351855665123,
0,180,168,180,90,180,180,168,180,180,f,present,resp,freq_top,,,,,0,32,32,449,,,,,,,,,,,0.8135244428147418,,,,,,,,,,,,,,,,,,,,,,,470.4021258690482,470.65151828088347,470.651531750771,471.467387476725,471.46740094661254,617.2922564820637,617.2922564820637,618.782632247041,618.782632247041,618.782632247041,618.782632247041,,,473.25867669253967,f,1,473.25918822757376,473.2599274678596,473.2599374099209,473.26031809461347,1.7435938094040466,None,,,,,AI,001,1,23,F,2024-02-06_16h35.17.298,eye_track_exp,2023.1.3,120.05351855665123,
0,270,0,0,0,12,180,180,180,-12,j,present,resp,freq_top,,,,,0,33,33,730,,,,,,,,,,,0.703970120082091,,,,,,,,,,,,,,,,,,,,,,,473.26082481897356,473.5993038633569,473.59931765395595,474.30607466294896,474.306088453548,620.1314757288656,620.1314757288656,,,,,,,475.7234683294064,j,1,475.72397890230604,475.72401642556724,475.7240250847808,475.7244763260296,1.3690619681910903,None,,,,,AI,001,1,23,F,2024-02-06_16h35.17.298,eye_track_exp,2023.1.3,120.05351855665123,
0,0,12,0,0,-168,0,0,0,0,None,abs,inhibit,freq_top,,,,,0,34,34,353,,,,,,,,,,,0.8396812229624864,,,,,,,,,,,,,,,,,,,,,,,475.72497278761875,475.9467942628544,475.946816712667,476.78772963753727,476.78774310742665,622.612675934377,622.612675934377,624.1030510579312,624.1030510579312,624.1030510579312,624.1030510579312,625.5934322750072,625.5934322750072,479.81895412091944,None,1,479.81933159849723,479.81936848033365,479.8193771395472,479.81994800623215,,,,,,,AI,001,1,23,F,2024-02-06_16h35.17.298,eye_track_exp,2023.1.3,120.05351855665123,
168,0,12,180,180,0,180,0,180,90,None,present,inhibit,freq_top,,,,,0,35,35,3,,,,,,,,,,,0.8722690684509062,,,,,,,,,,,,,,,,,,,,,,,479.82044991991825,480.09396593914244,480.0939800504548,480.96738779743646,480.9674015880355,626.7923931052137,626.7923931052137,628.2828028656222,628.2828028656222,628.2828028656222,628.2828028656222,,,483.25847015425643,j,0,483.2589864999645,483.7640672134585,483.76407875907717,483.7649462840109,2.243234933101121,None,629.0654514689559,,,,AI,001,1,23,F,2024-02-06_16h35.17.298,eye_track_exp,2023.1.3,120.05351855665123,
0,270,180,180,12,0,0,0,12,0,j,present,resp,freq_top,,,,,0,36,36,623,,,,,,,,,,,0.7414756793064605,,,,,,,,,,,,,,,,,,,,,,,483.76548091028235,484.306622759108,484.3066368704185,485.0468421771693,485.04685628848165,630.8722140583304,630.8722140583304,632.3626113109858,632.3626113109858,632.3626113109858,632.3626113109858,,,487.30461318009293,f,0,487.3051426749789,487.80285632183586,487.8028665846068,487.80322353664087,2.2117461833422567,None,633.1036321873889,633.6032261664768,,,AI,001,1,23,F,2024-02-06_16h35.17.298,eye_track_exp,2023.1.3,120.05351855665123,
0,-168,0,0,0,-168,180,0,0,0,f,abs,resp,freq_top,,,,,0,37,37,991,,,,,,,,,,,1.0219888043971859,,,,,,,,,,,,,,,,,,,,,,,487.80376169074043,487.82037391126505,487.82038513617044,488.8434362839016,488.8434497537892,634.6689653137564,634.6689653137564,636.159347492965,636.159347492965,636.159347492965,636.159347492965,,,491.4341575835788,j,0,491.43467296715426,491.932465829781,491.9324757718405,491.9329266923796,2.5418200175699894,None,637.2334139174745,637.7329697318801,,,AI,001,1,23,F,2024-02-06_16h35.17.298,eye_track_exp,2023.1.3,120.05351855665123,
180,0,168,180,168,0,180,180,0,180,f,abs,resp,freq_top,,,,,0,38,38,850,,,,,,,,,,,0.9401705851535994,,,,,,,,,,,,,,,,,,,,,,,491.93347190213353,491.9342605320089,491.9342707947817,492.8738589882323,492.8738721374084,638.6988235656336,638.6988235656336,640.1891993306108,640.1891993306108,640.1891993306108,640.1891993306108,,,494.76466534063184,f,1,494.7652002876148,494.7659366414955,494.765946583555,494.7665222609139,1.8415519667978515,None,,,,,AI,001,1,23,F,2024-02-06_16h35.17.298,eye_track_exp,2023.1.3,120.05351855665123,
0,270,0,-12,0,180,180,180,180,-12,j,present,resp,freq_top,,,,,0,39,39,729,,,,,,,,,,,1.0960212541078544,,,,,,,,,,,,,,,,,,,,,,,494.76703475808426,495.0393718413907,495.03938531128006,496.13717894361434,496.1371924135019,641.9626730159016,641.9626730159016,643.4530721928277,643.4530721928277,643.4530721928277,643.4530721928277,,,498.34546221920937,j,1,498.3459987697497,498.34603661372057,498.34604527293595,498.34660363186595,2.1597402283696283,None,,,,,AI,001,1,23,F,2024-02-06_16h35.17.298,eye_track_exp,2023.1.3,120.05351855665123,
168,180,0,0,180,12,0,0,0,0,None,abs,inhibit,freq_top,,,,,0,40,40,401,,,,,,,,,,,0.9112450482148529,,,,,,,,,,,,,,,,,,,,,,,498.34709720704996,498.56080756468873,498.56082039315334,499.47645014569935,499.4764636155869,645.3097958798826,645.3097958798826,646.7918578375193,646.7918578375193,646.7918578375193,646.7918578375193,648.2822300746684,648.2822300746684,502.51643326343947,None,1,502.5168325494069,502.5168694312433,502.5168780904569,502.51731874822326,,,,,,,AI,001,1,23,F,2024-02-06_16h35.17.298,eye_track_exp,2023.1.3,120.05351855665123,
168,0,0,90,12,0,180,0,180,180,None,present,inhibit,freq_top,,,,,0,41,41,46,,,,,,,,,,,0.9103777373515833,,,,,,,,,,,,,,,,,,,,,,,502.5178139269665,502.51853456597746,502.51854482875024,503.43105630220816,503.4310697720957,649.256376869509,649.256376869509,650.746768349356,650.746768349356,650.746768349356,650.746768349356,,,506.072215918457,f,0,506.0727745981003,506.5777732094193,506.57778443432653,509.4346287089502,2.5936450911904103,None,651.879141108624,,,,AI,001,1,23,F,2024-02-06_16h35.17.298,eye_track_exp,2023.1.3,120.05351855665123,
90,180,12,180,168,180,0,180,0,180,None,present,inhibit,freq_top,,,,,0,42,42,124,,,,,,,,,,,0.8148255542929391,,,,,,,,,,,,,,,,,,,,,,,509.4351902749968,510.3589096574615,510.358923768772,511.17488148101984,511.17489463019774,657.0080565966218,657.0080565966218,658.4984262680791,658.4984262680791,658.4984262680791,658.4984262680791,,,513.0240434294847,f,0,513.0245546438073,513.522523577114,513.5225335191753,513.5227849570856,1.8024379775506532,None,658.8231644230764,659.3227317830988,,,AI,001,1,23,F,2024-02-06_16h35.17.298,eye_track_exp,2023.1.3,120.05351855665123,
-12,0,-12,0,270,0,0,0,180,180,j,present,resp,freq_top,,,,,0,43,43,471,,,,,,,,,,,0.9179261774932778,,,,,,,,,,,,,,,,,,,,,,,513.5233218283392,513.5244000608072,513.5244103235782,514.4470896382572,514.4471043909907,660.2719243274514,660.2719243274514,661.7622770011931,661.7622770011931,661.7622770011931,661.7622770011931,,,516.5546912733735,j,1,516.5552101847752,516.5559349930372,516.5559449350967,516.556312470615,2.0580236514906574,None,,,,,AI,001,1,23,F,2024-02-06_16h35.17.298,eye_track_exp,2023.1.3,120.05351855665123,
0,-168,0,12,180,270,180,0,180,180,None,present,inhibit,freq_top,,,,,0,44,44,39,,,,,,,,,,,0.918475097295309,,,,,,,,,,,,,,,,,,,,,,,516.5568134221667,516.6119261106087,516.6119379769389,517.5358395236017,517.5358533142025,663.3609166707829,663.3609166707829,664.8513052642247,664.8513052642247,664.8513052642247,664.8513052642247,,,519.3436364079535,f,0,519.3441620542999,519.8496683521134,519.8496882362342,519.8505031644618,1.7703597598338092,None,665.151028554239,,,,AI,001,1,23,F,2024-02-06_16h35.17.298,eye_track_exp,2023.1.3,120.05351855665123,
180,0,168,0,0,180,180,0,168,0,f,abs,resp,freq_top,,,,,0,45,45,943,,,,,,,,,,,0.7788919226908083,,,,,,,,,,,,,,,,,,,,,,,519.8510650512217,519.8518642645795,519.8518745273504,520.6333130857402,520.6333259142048,666.4582561754632,666.4582561754632,667.9486441274821,667.9486441274821,667.9486441274821,667.9486441274821,,,522.3413353020751,j,0,522.341861910556,522.8398799127408,522.8398898548003,522.8402615595696,1.6635740150813945,None,668.1401221141568,668.6396869084874,,,AI,001,1,23,F,2024-02-06_16h35.17.298,eye_track_exp,2023.1.3,120.05351855665123,
270,180,180,-168,180,180,12,180,180,180,None,present,inhibit,freq_top,,,,,0,46,46,16,,,,,,,,,,,0.9817951472017328,,,,,,,,,,,,,,,,,,,,,,,522.8408138249797,522.8416114347801,522.8416216975529,523.8221695756274,523.8221836869398,669.647184825466,669.647184825466,671.1375583454628,671.1375583454628,671.1375583454628,671.1375583454628,672.6279071706631,672.6279071706631,526.8533591014439,None,1,526.8537368997313,526.8545017969464,526.8545120597191,526.8553022931519,,,,,,,AI,001,1,23,F,2024-02-06_16h35.17.298,eye_track_exp,2023.1.3,120.05351855665123,
180,180,90,180,-12,180,-12,180,180,180,j,present,resp,freq_top,,,,,0,47,47,444,,,,,,,,,,,1.0680296524600723,,,,,,,,,,,,,,,,,,,,,,,526.8558135074763,527.0777539667215,527.0777677573205,528.1527485306597,528.152763283395,673.9850798539865,673.9850798539865,675.4754819173177,675.4754819173177,675.4754819173177,675.4754819173177,,,529.8349557065176,j,1,529.8354932191942,529.8355304217421,529.8355390809556,529.8358995608178,1.6402695051710907,None,,,,,AI,001,1,23,F,2024-02-06_16h35.17.298,eye_track_exp,2023.1.3,120.05351855665123,
168,0,0,90,0,180,12,0,180,180,None,present,inhibit,freq_top,,,,,0,48,48,54,,,,,,,,,,,0.9802110295756965,,,,,,,,,,,,,,,,,,,,,,,529.8363886460393,530.1172977095412,530.1173108587191,531.0989334414353,531.0989465906114,676.9242443873864,676.9242443873864,678.4146272080197,678.4146272080197,678.4146272080197,678.4146272080197,679.905007142248,679.905007142248,534.130100196724,None,1,534.1304834471102,534.1305209703714,534.1305299502965,534.1310834985525,,,,,,,AI,001,1,23,F,2024-02-06_16h35.17.298,eye_track_exp,2023.1.3,120.05351855665123,
180,180,180,0,168,0,0,-12,0,0,None,abs,inhibit,freq_top,,,,,0,49,49,409,,,,,,,,,,,0.9172055713884413,,,,,,,,,,,,,,,,,,,,,,,534.1315806015646,534.2059783211771,534.2059911496417,535.1290966900633,535.1291101599509,680.954093338627,680.954093338627,682.4444819320706,682.4444819320706,682.4444819320706,682.4444819320706,683.9348487171228,683.9348487171228,538.1604109726995,None,1,538.1608070515504,538.1608439333868,538.1608525926003,538.1613885017196,,,,,,,AI,001,1,23,F,2024-02-06_16h35.17.298,eye_track_exp,2023.1.3,120.05351855665123,
0,90,0,12,0,0,168,180,180,0,None,present,inhibit,freq_top,,,,,0,50,50,183,,,,,,,,,,,0.9989331938015507,,,,,,,,,,,,,,,,,,,,,,,538.1619218451433,538.5180714583985,538.5180852489975,539.5171186241732,539.5171324147723,685.34199725086,685.34199725086,686.832374298685,686.832374298685,686.832374298685,686.832374298685,688.3227660992434,688.3227660992434,542.548275116691,None,1,542.5486535564032,542.5486901175282,542.5486987767417,542.5492616256361,,,,,,,AI,001,1,23,F,2024-02-06_16h35.17.298,eye_track_exp,2023.1.3,120.05351855665123,
0,270,0,-12,180,0,180,0,0,12,j,present,resp,freq_top,,,,,0,51,51,581,,,,,,,,,,,0.9276385009669491,,,,,,,,,,,,,,,,,,,,,,,542.5497648221681,542.5505184944777,542.5505284365372,543.4803099100536,543.4803237006527,689.3052376056185,689.3052376056185,690.7956306890246,690.7956306890246,690.7956306890246,690.7956306890246,692.2860070954248,692.2860070954248,546.5112800691204,None,0,546.5120311757346,547.0179367595174,547.0179492672705,547.0184008292326,,,692.3193206943033,,,,AI,001,1,23,F,2024-02-06_16h35.17.298,eye_track_exp,2023.1.3,120.05351855665123,
0,0,168,0,0,168,0,180,180,180,f,abs,resp,freq_top,,,,,0,52,52,764,,,,,,,,,,,0.7777106737628631,,,,,,,,,,,,,,,,,,,,,,,547.0189460389865,547.0197670607358,547.0197773235068,547.8009115265686,547.8009246757447,693.6265293935412,693.6265293935412,695.1168955371704,695.1168955371704,695.1168955371704,695.1168955371704,,,549.9421712048425,f,1,549.9427247531003,549.9434463542457,549.943456296307,549.9440075995826,2.0931171998636273,None,,,,,AI,001,1,23,F,2024-02-06_16h35.17.298,eye_track_exp,2023.1.3,120.05351855665123,
168,0,0,180,168,180,0,180,0,180,f,abs,resp,freq_top,,,,,0,53,53,865,,,,,,,,,,,0.8613854326133569,,,,,,,,,,,,,,,,,,,,,,,549.9445114375394,550.1585024178457,550.1585168498677,551.0232496682238,551.0232631381114,696.8487520790131,696.8487520790131,698.3391146948143,698.3391146948143,698.3391146948143,698.3391146948143,,,553.1145379860463,f,1,553.1150520867741,553.1150915343042,553.1151001935177,553.1156008243579,2.055428453057175,None,,,,,AI,001,1,23,F,2024-02-06_16h35.17.298,eye_track_exp,2023.1.3,120.05351855665123,
0,-12,0,-12,180,270,180,0,0,0,j,present,resp,freq_top,,,,,0,54,54,657,,,,,,,,,,,0.7531565847336309,,,,,,,,,,,,,,,,,,,,,,,553.1161040208899,553.3554029966017,553.3554161457778,554.1129174302278,554.1129312208268,699.9377396116706,699.9377396116706,701.4281570691583,701.4281570691583,701.4281570691583,701.4281570691583,,,555.7705334011534,j,1,555.7710657824427,555.7711026642792,555.7711113234927,555.7716311970307,1.622220817296693,None,,,,,AI,001,1,23,F,2024-02-06_16h35.17.298,eye_track_exp,2023.1.3,120.05351855665123,
180,180,90,180,180,168,180,0,168,180,f,present,resp,freq_top,,,,,0,55,55,489,,,,,,,,,,,0.7426649971791399,,,,,,,,,,,,,,,,,,,,,,,555.7721215650981,556.1282028667774,556.1282166573765,556.8768598868664,556.876873356754,702.710370787534,702.710370787534,704.2007558531477,704.2007558531477,704.2007558531477,704.2007558531477,,,558.8101268542741,f,1,558.810634861482,558.8106717433184,558.8106807232434,558.8112352336357,1.8892761009265087,None,,,,,AI,001,1,23,F,2024-02-06_16h35.17.298,eye_track_exp,2023.1.3,120.05351855665123,
90,180,0,0,168,180,180,180,168,180,f,present,resp,freq_top,,,,,0,56,56,483,,,,,,,,,,,0.970285435220182,,,,,,,,,,,,,,,,,,,,,,,558.8117307330886,559.059034350139,559.0590478200265,560.0322677582826,560.0322815488835,705.8576482986573,705.8576482986573,,,,,,,561.0829148581197,f,1,561.0834465979879,561.5887056271422,561.5887168520494,561.590134397411,1.0141592817180936,None,706.8901046353731,,,,AI,001,1,23,F,2024-02-06_16h35.17.298,eye_track_exp,2023.1.3,120.05351855665123,
180,0,168,180,168,0,180,180,0,180,f,abs,resp,freq_top,,,,,0,57,57,847,,,,,,,,,,,0.9589440100545108,,,,,,,,,,,,,,,,,,,,,,,561.590668702971,561.6148115530596,561.6148230986764,562.5806650661016,562.5807045136316,708.4054494035736,708.4054494035736,709.8958469769404,709.8958469769404,709.8958469769404,709.8958469769404,,,565.5035400148681,f,1,565.5040566812895,565.504781810263,565.5047917523225,565.5053783338772,2.881711475931297,None,,,,,AI,001,1,23,F,2024-02-06_16h35.17.298,eye_track_exp,2023.1.3,120.05351855665123,
180,90,180,-168,180,12,0,0,0,0,None,present,inhibit,freq_top,,,,,0,58,58,265,,,,,,,,,,,0.8181943136215145,,,,,,,,,,,,,,,,,,,,,,,565.505886341085,565.7445272165496,565.7445403657275,566.5683885459766,566.5684020158642,712.3936857013286,712.3936857013286,713.8923948370557,713.8923948370557,713.8923948370557,713.8923948370557,715.3661073883632,715.3661073883632,569.600072929823,None,1,569.6004741400593,569.6005103804728,569.6005193603978,569.6009782987276,,,,,,,AI,001,1,23,F,2024-02-06_16h35.17.298,eye_track_exp,2023.1.3,120.05351855665123,
90,180,12,0,180,180,180,-168,180,180,None,present,inhibit,freq_top,,,,,0,59,59,59,,,,,,,,,,,0.9395015586896475,,,,,,,,,,,,,,,,,,,,,,,569.6014984929752,569.8003336042275,569.800347074115,570.7400208975687,570.7400340467448,716.5650941962103,716.5650941962103,,,,,,,572.2062368147435,f,0,572.2067473876432,572.7124730522064,572.7124926156157,572.7134925944483,1.4256284424100159,None,718.0138435171029,,,,AI,001,1,23,F,2024-02-06_16h35.17.298,eye_track_exp,2023.1.3,120.05351855665123,
168,0,180,0,180,180,12,180,180,180,None,abs,inhibit,freq_top,,,,,0,60,60,402,,,,,,,,,,,1.0100649779255435,,,,,,,,,,,,,,,,,,,,,,,572.7140310692594,572.7150676092169,572.7150785134127,573.7288197235084,573.7288328726845,719.5541941703614,719.5541941703614,721.0445773117062,721.0445773117062,721.0445773117062,721.0445773117062,,,575.5700812619107,f,0,575.570644110805,576.0689408113867,576.0689504327365,576.0692028327812,1.7962601096041908,None,721.369284036964,721.8688658290121,,,AI,001,1,23,F,2024-02-06_16h35.17.298,eye_track_exp,2023.1.3,120.05351855665123,
90,180,168,0,0,180,180,12,180,180,None,present,inhibit,freq_top,,,,,0,61,61,34,,,,,,,,,,,0.9255822389618038,,,,,,,,,,,,,,,,,,,,,,,576.069746759691,576.169340546352,576.1693530541052,577.1015507689699,577.1015642388575,722.9263043181254,722.9263043181254,724.4166653303691,724.4166653303691,724.4166653303691,724.4166653303691,725.9070667522756,725.9070667522756,580.1325921260159,None,1,580.1329696035937,580.1337027503596,580.1337130131305,580.1342720134853,,,,,,,AI,001,1,23,F,2024-02-06_16h35.17.298,eye_track_exp,2023.1.3,120.05351855665123,
0,180,180,180,180,-168,0,0,0,12,None,abs,inhibit,freq_top,,,,,0,62,62,351,,,,,,,,,,,0.8885963109920673,,,,,,,,,,,,,,,,,,,,,,,580.1347761721536,580.1356273407946,580.1356372828541,581.0307453402202,581.0307600929555,726.8562458267406,726.8562458267406,728.3466241574115,728.3466241574115,728.3466241574115,728.3466241574115,729.8370037709283,729.8370037709283,584.0621025982127,None,1,584.0624781515216,584.0625153540695,584.0625240132831,584.0631028977587,,,,,,,AI,001,1,23,F,2024-02-06_16h35.17.298,eye_track_exp,2023.1.3,120.05351855665123,
168,0,168,0,0,0,0,0,180,180,f,abs,resp,freq_top,,,,,0,63,63,806,,,,,,,,,,,0.8700165134279403,,,,,,,,,,,,,,,,,,,,,,,584.0636102635417,584.0645255745076,584.064535516567,584.935876597865,584.9358900677544,730.7611971651659,730.7611971651659,732.2516078877106,732.2516078877106,732.2516078877106,732.2516078877106,,,586.5944037105055,f,1,586.5949290361405,586.5949668801113,586.5949755393249,586.5952308257747,1.6126389162109263,None,,,,,AI,001,1,23,F,2024-02-06_16h35.17.298,eye_track_exp,2023.1.3,120.05351855665123,
0,0,180,180,12,0,0,0,168,0,None,abs,inhibit,freq_top,,,,,0,64,64,372,,,,,,,,,,,1.0082034542782319,,,,,,,,,,,,,,,,,,,,,,,586.5957227974013,586.8355522301317,586.8355657000211,587.8418538927654,587.8418670419414,733.6670416854558,733.6670416854558,735.1574309203206,735.1574309203206,735.1574309203206,735.1574309203206,736.6478076474341,736.6478076474341,590.8726912772217,None,1,590.8730677926633,590.8731056366341,590.873114616561,590.8735514257878,,,,,,,AI,001,1,23,F,2024-02-06_16h35.17.298,eye_track_exp,2023.1.3,120.05351855665123,
90,0,180,0,180,180,12,0,180,-168,None,present,inhibit,freq_top,,,,,0,65,65,306,,,,,,,,,,,0.7389622120491368,,,,,,,,,,,,,,,,,,,,,,,590.8740517359165,591.3393382308132,591.339352021414,592.0796477688418,592.0796609180179,737.9050247813866,737.9050247813866,739.3954432010105,739.3954432010105,739.3954432010105,739.3954432010105,740.885838529397,740.885838529397,595.1110800733532,None,1,595.1114739072236,595.111512071906,595.1115213725425,595.1120762036462,,,,,,,AI,001,1,23,F,2024-02-06_16h35.17.298,eye_track_exp,2023.1.3,120.05351855665123,
0,168,0,270,0,168,180,180,0,0,f,present,resp,freq_top,,,,,0,66,66,632,,,,,,,,,,,0.8804441411427507,,,,,,,,,,,,,,,,,,,,,,,595.1125960771842,595.1133564844367,595.1133664264962,595.9928327367033,595.9928474894368,741.8183672186551,741.8183672186551,743.3087291930315,743.3087291930315,743.3087291930315,743.3087291930315,744.7991274078231,744.7991274078231,599.0242717761594,None,0,599.0246476501779,599.5233269597247,599.5233365810727,599.5235857740026,,,744.8240989767382,745.3236785238041,,,AI,001,1,23,F,2024-02-06_16h35.17.298,eye_track_exp,2023.1.3,120.05351855665123,
90,0,-12,180,180,180,180,0,180,12,j,present,resp,freq_top,,,,,0,67,67,566,,,,,,,,,,,0.8008805356937942,,,,,,,,,,,,,,,,,,,,,,,599.5241338701617,599.5248875424695,599.5248978052423,600.3313890725858,600.3314022217619,746.156294318338,746.156294318338,747.6466716868727,747.6466716868727,747.6466716868727,747.6466716868727,,,602.2392008379557,j,1,602.2397085244502,602.2404464818901,602.2404564239496,602.2408191487921,1.8648494210538047,None,,,,,AI,001,1,23,F,2024-02-06_16h35.17.298,eye_track_exp,2023.1.3,120.05351855665123,
180,180,0,0,180,180,180,-168,0,12,None,abs,inhibit,freq_top,,,,,0,68,68,363,,,,,,,,,,,0.7663163473312311,,,,,,,,,,,,,,,,,,,,,,,602.2413486436781,602.4801453849923,602.4801585341684,603.2449495937544,603.2449627429305,749.0704494388519,749.0704494388519,750.5608345044657,750.5608345044657,750.5608345044657,750.5608345044657,752.0512166836761,752.0512166836761,606.2763078138814,None,1,606.2767048548685,606.2767417367049,606.2767503959185,606.2773013784827,,,,,,,AI,001,1,23,F,2024-02-06_16h35.17.298,eye_track_exp,2023.1.3,120.05351855665123,
90,180,180,0,180,-168,180,0,12,180,None,present,inhibit,freq_top,,,,,0,69,69,91,,,,,,,,,,,1.0483204066350722,,,,,,,,,,,,,,,,,,,,,,,606.2778337597738,606.55136421102,606.5513773601979,607.5997198263285,607.5997332962161,753.4250285272992,753.4250285272992,754.9154225728398,754.9154225728398,754.9154225728398,754.9154225728398,756.4057986585285,756.4057986585285,610.6309997928201,None,1,610.6313795153783,610.6314157557917,610.6314247357168,610.632055896187,,,,,,,AI,001,1,23,F,2024-02-06_16h35.17.298,eye_track_exp,2023.1.3,120.05351855665123,
0,270,0,0,-12,180,180,180,0,-12,j,present,resp,freq_top,,,,,0,70,70,735,,,,,,,,,,,0.8330388076989053,,,,,,,,,,,,,,,,,,,,,,,610.6325472263889,610.8392032112206,610.8392163603985,611.6716015632774,611.6716150331649,757.4965148268202,757.4965148268202,,,,,,,613.1376048486472,j,1,613.138128570723,613.1381654525594,613.138174111773,613.1387767289089,1.4199338868729683,None,,,,,AI,001,1,23,F,2024-02-06_16h35.17.298,eye_track_exp,2023.1.3,120.05351855665123,
0,-168,0,12,180,270,180,0,180,180,None,present,inhibit,freq_top,,,,,0,71,71,36,,,,,,,,,,,0.7669265183731933,,,,,,,,,,,,,,,,,,,,,,,613.1392703040929,613.3621167736674,613.3621299228435,614.1278837587142,614.1278969078903,759.9527562918811,759.9527562918811,761.4431080034865,761.4431080034865,761.4431080034865,761.4431080034865,762.9335148774917,762.9335148774917,617.1586432102467,None,1,617.1590238949393,617.1590604560643,617.1590694359893,617.1596207392668,,,,,,,AI,001,1,23,F,2024-02-06_16h35.17.298,eye_track_exp,2023.1.3,120.05351855665123,
90,180,180,-12,0,12,180,0,180,180,j,present,resp,freq_top,,,,,0,72,72,459,,,,,,,,,,,0.9635305487380551,,,,,,,,,,,,,,,,,,,,,,,617.1601213701051,617.4335414965553,617.4335546457314,618.3990544138578,618.3990682044569,764.2240629287517,764.2240629287517,765.7144435044029,765.7144435044029,765.7144435044029,765.7144435044029,,,620.8563802049084,j,1,620.8568606309163,620.8568978334642,620.8569064926778,620.8573696002586,2.419989049272772,None,,,,,AI,001,1,23,F,2024-02-06_16h35.17.298,eye_track_exp,2023.1.3,120.05351855665123,
-168,0,90,180,180,0,-168,180,180,180,f,present,resp,freq_top,,,,,0,73,73,443,,,,,,,,,,,1.0121413606720011,,,,,,,,,,,,,,,,,,,,,,,620.857868948251,621.3636994855151,621.3637132761141,622.3792498298626,622.3792629790387,768.2039658557587,768.2039658557587,769.6943634291256,769.6943634291256,769.6943634291256,769.6943634291256,,,624.9193272368193,f,1,624.9198394132782,624.919877898672,624.9198865578855,624.9202765432165,2.5040850882905943,None,,,,,AI,001,1,23,F,2024-02-06_16h35.17.298,eye_track_exp,2023.1.3,120.05351855665123,
168,0,270,180,180,180,0,0,168,180,f,present,resp,freq_top,,,,,0,74,74,491,,,,,,,,,,,0.7906764548824432,,,,,,,,,,,,,,,,,,,,,,,624.920775249786,625.7430387939185,625.7430529052308,626.5334107745002,626.5334242443878,772.3587156269314,772.3587156269314,773.8491109553179,773.8491109553179,773.8491109553179,773.8491109553179,,,628.1413645509747,f,1,628.141877689568,628.1419164956733,628.1419251548868,628.14249345588,1.5649205548925238,None,,,,,AI,001,1,23,F,2024-02-06_16h35.17.298,eye_track_exp,2023.1.3,120.05351855665123,
-168,0,168,180,0,180,0,180,0,180,f,abs,resp,freq_top,,,,,0,75,75,863,,,,,,,,,,,0.8025207865760956,,,,,,,,,,,,,,,,,,,,,,,628.1429851067933,628.3820659986031,628.3820791477792,629.1896855294272,629.1897159970322,775.0147607523395,775.0147607523395,776.5051592878408,776.5051592878408,776.5051592878408,776.5051592878408,,,631.2636246314214,f,1,631.2642054401676,631.2642432841385,631.2642522640635,631.2647243515694,2.0286054159569176,None,,,,,AI,001,1,23,F,2024-02-06_16h35.17.298,eye_track_exp,2023.1.3,120.05351855665123,
12,180,180,180,168,180,0,180,0,0,None,abs,inhibit,freq_top,,,,,0,76,76,414,,,,,,,,,,,0.8274194797197527,,,,,,,,,,,,,,,,,,,,,,,631.2652288309491,631.5381890569352,631.5382028475342,632.3703991512684,632.3704123004445,778.19536950148,778.19536950148,779.685737569378,779.685737569378,779.685737569378,779.685737569378,781.1761271249561,781.1761271249561,635.4016826455882,None,1,635.4020726309191,635.4021104748899,635.4021194548168,635.4026717202269,,,,,,,AI,001,1,23,F,2024-02-06_16h35.17.298,eye_track_exp,2023.1.3,120.05351855665123,
0,180,0,-168,180,0,180,0,-168,180,f,abs,resp,freq_top,,,,,0,77,77,891,,,,,,,,,,,1.0609126377085532,,,,,,,,,,,,,,,,,,,,,,,635.4031749167589,635.4039298719144,635.4039401346854,636.4667742761067,636.4667880667057,782.3001722862828,782.3001722862828,783.7822319989391,783.7822319989391,783.7822319989391,783.7822319989391,,,638.391440399273,f,1,638.391969894159,638.3920074174184,638.392016076632,638.3922893229337,1.8787683053869841,None,,,,,AI,001,1,23,F,2024-02-06_16h35.17.298,eye_track_exp,2023.1.3,120.05351855665123,
180,-168,180,90,12,0,0,0,0,180,None,present,inhibit,freq_top,,,,,0,78,78,136,,,,,,,,,,,0.84803143680043,,,,,,,,,,,,,,,,,,,,,,,638.3927873880803,638.6150713294719,638.615084478648,639.4642406543026,639.4642541241919,785.2892725811453,785.2892725811453,786.7796509118161,786.7796509118161,786.7796509118161,786.7796509118161,788.2700276389278,788.2700276389278,642.4955228657764,None,1,642.495907078297,642.4959449222697,642.4959535814833,642.4965552364829,,,,,,,AI,001,1,23,F,2024-02-06_16h35.17.298,eye_track_exp,2023.1.3,120.05351855665123,
90,180,-168,0,-168,180,0,180,0,180,f,present,resp,freq_top,,,,,0,79,79,513,,,,,,,,,,,1.009685511883605,,,,,,,,,,,,,,,,,,,,,,,642.4970488116669,642.72825815746,642.7282713066361,643.7435913800418,643.7436051706409,789.568891421799,789.568891421799,,,,,,,645.1600941096185,f,1,645.1606678627068,645.1607060273909,645.1607146866045,645.1612005647094,1.37753901774704,None,,,,,AI,001,1,23,F,2024-02-06_16h35.17.298,eye_track_exp,2023.1.3,120.05351855665123,
90,0,180,0,180,180,12,0,180,-168,None,present,inhibit,freq_top,,,,,0,80,80,305,,,,,,,,,,,0.7593203510898714,,,,,,,,,,,,,,,,,,,,,,,645.1616970262985,645.3928329291302,645.3928463990178,646.1584988900177,646.1585123599052,791.9834888036366,791.9834888036366,793.473876434944,793.473876434944,793.473876434944,793.473876434944,794.9642412957273,794.9642412957273,649.1898648072238,None,1,649.1902519061496,649.190289429409,649.1902980886225,649.1908394498387,,,,,,,AI,001,1,23,F,2024-02-06_16h35.17.298,eye_track_exp,2023.1.3,120.05351855665123,
168,0,0,0,0,0,0,0,168,180,f,abs,resp,freq_top,,,,,0,81,81,840,,,,,,,,,,,1.019570550201013,,,,,,,,,,,,,,,,,,,,,,,649.1913551541238,649.4139242081474,649.4139373573234,650.4377742485249,650.437787397701,796.2631525439174,796.2631525439174,797.7535462687447,797.7535462687447,797.7535462687447,797.7535462687447,,,652.4619437176771,j,0,652.4624587805392,652.9683823241721,652.968393228366,652.9692482455466,1.9789640677608986,None,798.2697524683572,,,,AI,001,1,23,F,2024-02-06_16h35.17.298,eye_track_exp,2023.1.3,120.05351855665123,
180,-12,180,-168,0,180,0,90,180,180,None,present,inhibit,freq_top,,,,,0,82,82,6,,,,,,,,,,,0.7142637059336198,,,,,,,,,,,,,,,,,,,,,,,652.969796662419,653.2354937323325,653.2355072022201,653.9515446433779,653.9515581132655,799.7767815049465,799.7767815049465,801.2671531006727,801.2671531006727,801.2671531006727,801.2671531006727,802.757531752055,802.757531752055,656.9825734926708,None,1,656.9829557809226,656.9837088118074,656.9837190745802,661.8620965688351,,,,,,,AI,001,1,23,F,2024-02-06_16h35.17.298,eye_track_exp,2023.1.3,120.05351855665123,
270,0,12,180,180,180,0,0,-12,0,j,present,resp,freq_top,,,,,0,83,83,712,,,,,,,,,,,0.8513635765538683,,,,,,,,,,,,,,,,,,,,,,,661.8626635869805,662.9027416353601,662.9027554259592,663.7601327232969,663.7601461931845,809.5849889001711,809.5849889001711,811.0753778143244,811.0753778143244,811.0753778143244,811.0753778143244,,,665.6515343164647,j,1,665.6520413615362,665.6520792055071,665.6520878647207,665.6523598281747,1.8571119324969914,None,,,,,AI,001,1,23,F,2024-02-06_16h35.17.298,eye_track_exp,2023.1.3,120.05351855665123,
90,180,0,0,0,-168,180,0,-168,180,f,present,resp,freq_top,,,,,0,84,84,539,,,,,,,,,,,0.7258590500720532,,,,,,,,,,,,,,,,,,,,,,,665.6528588554575,666.274296631309,666.2743107426213,667.0071791296268,667.0071925995144,812.8321995108508,812.8321995108508,,,,,,,668.4238467049763,f,1,668.4243765205738,668.4244137231217,668.4244227030467,668.4251087052035,1.3771320347004803,None,,,,,AI,001,1,23,F,2024-02-06_16h35.17.298,eye_track_exp,2023.1.3,120.05351855665123,
90,180,0,-168,180,0,0,0,-168,180,f,present,resp,freq_top,,,,,0,85,85,540,,,,,,,,,,,0.851580337754776,,,,,,,,,,,,,,,,,,,,,,,668.4256077324862,668.6227427514368,668.6227559006129,669.4801668726705,669.4801970195622,815.3050836640414,815.3050836640414,,,,,,,670.7969751121364,f,1,670.797485685036,670.7975225668724,670.7975315467993,670.7980007479,1.2719658836322196,None,,,,,AI,001,1,23,F,2024-02-06_16h35.17.298,eye_track_exp,2023.1.3,120.05351855665123,
0,12,0,90,180,180,168,0,0,0,None,present,inhibit,freq_top,,,,,0,86,86,247,,,,,,,,,,,0.890433162092966,,,,,,,,,,,,,,,,,,,,,,,670.7984959266414,671.1125162199896,671.1125293691675,672.0025599201563,672.0025730693324,817.8279125586178,817.8279125586178,819.3182905685771,819.3182905685771,819.3182905685771,819.3182905685771,,,673.861010639288,f,0,673.8616071629021,674.3666153955692,674.3666269411879,674.3673225646926,1.821381771555025,None,819.667995802527,,,,AI,001,1,23,F,2024-02-06_16h35.17.298,eye_track_exp,2023.1.3,120.05351855665123,
180,12,180,270,180,0,180,0,0,-168,None,present,inhibit,freq_top,,,,,0,87,87,328,,,,,,,,,,,0.8159483327863757,,,,,,,,,,,,,,,,,,,,,,,674.3678850928754,674.8259725740245,674.8259860439139,675.6409235724968,675.6409367216729,821.4664407360215,821.4664407360215,822.9568184252676,822.9568184252676,822.9568184252676,822.9568184252676,,,677.3998340638082,j,0,677.4003593894413,677.8977866408222,677.8977965828817,677.898169570497,1.7185978664056165,None,823.1982940707476,823.6978582236552,,,AI,001,1,23,F,2024-02-06_16h35.17.298,eye_track_exp,2023.1.3,120.05351855665123,
90,0,-12,0,-12,0,0,0,0,0,j,present,resp,freq_top,,,,,0,88,88,670,,,,,,,,,,,0.9424440378565634,,,,,,,,,,,,,,,,,,,,,,,677.8987051589029,677.8994998822982,677.899510145071,678.8465914448243,678.8466049147137,824.672012715575,824.672012715575,826.1623920083803,826.1623920083803,826.1623920083803,826.1623920083803,,,680.9715025275291,f,0,680.9720265703163,681.4697155223785,681.4697254644379,681.4701994762145,2.0808140606750385,None,826.7702017853371,827.2697701074958,,,AI,001,1,23,F,2024-02-06_16h35.17.298,eye_track_exp,2023.1.3,120.05351855665123,
0,0,0,0,168,0,0,0,0,168,f,abs,resp,freq_top,,,,,0,89,89,933,,,,,,,,,,,0.9538002814490978,,,,,,,,,,,,,,,,,,,,,,,681.4707411581403,681.4715208080906,681.4715310708634,682.427354007259,682.4273681185714,828.2522711193415,828.2522711193415,,,,,,,683.8775292120172,f,1,683.8780404263416,683.8787751766631,683.8787851187244,683.8793579096782,1.412789714813698,None,,,,,AI,001,1,23,F,2024-02-06_16h35.17.298,eye_track_exp,2023.1.3,120.05351855665123,
270,0,180,0,180,12,0,-168,0,0,None,present,inhibit,freq_top,,,,,0,90,90,291,,,,,,,,,,,0.8806340553855698,,,,,,,,,,,,,,,,,,,,,,,683.8798543712674,684.1180058408008,684.1180193106884,685.0000506724355,685.0000641423248,830.833375239652,830.833375239652,,,,,,,686.3578625340197,j,0,686.3583779175933,686.8641526510346,686.8641638759418,686.8651551955609,1.310878786693138,None,832.1655442828996,,,,AI,001,1,23,F,2024-02-06_16h35.17.298,eye_track_exp,2023.1.3,120.05351855665123,
270,0,-168,0,-168,0,180,180,180,0,f,present,resp,freq_top,,,,,0,91,91,596,,,,,,,,,,,0.7954663991379594,,,,,,,,,,,,,,,,,,,,,,,686.8656994431803,687.3149471499328,687.3149609405318,688.1141550563716,688.1141688469706,833.9390468322363,833.9390468322363,835.4294110515948,835.4294110515948,835.4294110515948,835.4294110515948,,,690.9877427225729,j,0,690.9882571440121,691.4861404473158,691.4861503893753,691.4865240184135,2.829222208545616,None,836.7865644922204,837.2861456428436,,,AI,001,1,23,F,2024-02-06_16h35.17.298,eye_track_exp,2023.1.3,120.05351855665123,
168,0,-168,0,0,0,180,180,180,180,f,abs,resp,freq_top,,,,,0,92,92,750,,,,,,,,,,,1.0829025204578457,,,,,,,,,,,,,,,,,,,,,,,691.4870605689557,691.4878222590542,691.4878325218269,692.5684870044443,692.5685014364681,838.3935157241704,838.3935157241704,,,,,,,693.9350841194519,f,1,693.9355918059464,693.9363153313625,693.936325273422,693.936894857261,1.318831793460049,None,,,,,AI,001,1,23,F,2024-02-06_16h35.17.298,eye_track_exp,2023.1.3,120.05351855665123,
0,12,180,90,180,0,180,-168,0,0,None,present,inhibit,freq_top,,,,,0,93,93,284,,,,,,,,,,,0.7633207878178857,,,,,,,,,,,,,,,,,,,,,,,693.9373961295241,694.0094295630697,694.0094423915343,694.7749803884835,694.7749935376614,840.5999792820294,840.5999792820294,842.0903540848722,842.0903540848722,842.0903540848722,842.0903540848722,,,696.982000060294,f,0,696.9825058225197,697.4883466225547,697.4883581681715,697.4892362765895,2.16761594363561,None,842.7897215774137,,,,AI,001,1,23,F,2024-02-06_16h35.17.298,eye_track_exp,2023.1.3,120.05351855665123,
0,168,0,-168,180,0,0,180,0,0,f,abs,resp,freq_top,,,,,0,94,94,960,,,,,,,,,,,1.020104067854466,,,,,,,,,,,,,,,,,,,,,,,697.4897785999401,697.4905803789916,697.4905906417625,698.5136360166853,698.5136491658614,844.3384149020585,844.3384149020585,845.8287759143004,845.8287759143004,845.8287759143004,845.8287759143004,,,700.3049592279312,f,1,700.3054960991849,700.3062241145635,700.306234056623,700.3068068475786,1.7414678120694589,None,,,,,AI,001,1,23,F,2024-02-06_16h35.17.298,eye_track_exp,2023.1.3,120.05351855665123,
270,0,180,-12,0,180,0,-12,0,0,j,present,resp,freq_top,,,,,0,95,95,688,,,,,,,,,,,0.955179399209374,,,,,,,,,,,,,,,,,,,,,,,700.3073106855336,700.6119161685474,700.6119293177253,701.5694055225267,701.5694189924143,847.3941013435906,847.3941013435906,848.8844908991668,848.8844908991668,848.8844908991668,848.8844908991668,,,703.810371877953,j,1,703.8109507624285,703.8109882856879,703.810997265613,703.8114671081366,2.205534640674159,None,,,,,AI,001,1,23,F,2024-02-06_16h35.17.298,eye_track_exp,2023.1.3,120.05351855665123,
270,0,0,12,180,0,180,-168,0,0,None,present,inhibit,freq_top,,,,,0,96,96,289,,,,,,,,,,,0.9601512609172116,,,,,,,,,,,,,,,,,,,,,,,703.8119606833206,704.1008355820559,704.1008490519453,705.0655791121808,705.0655922613569,850.8911257811742,850.8911257811742,852.3814845484358,852.3814845484358,852.3814845484358,852.3814845484358,853.8718606341245,853.8718606341245,708.0968789627932,None,1,708.0972561196595,708.0972936429189,708.0973023021324,708.097841097655,,,,,,,AI,001,1,23,F,2024-02-06_16h35.17.298,eye_track_exp,2023.1.3,120.05351855665123,
168,180,90,180,168,180,0,0,180,180,f,present,resp,freq_top,,,,,0,97,97,466,,,,,,,,,,,1.0344939098845916,,,,,,,,,,,,,,,,,,,,,,,708.0983465391691,708.6460835017606,708.6460972923596,709.6871262506957,709.6871390791603,855.5121023737156,855.5121023737156,857.0024816665209,857.0024816665209,857.0024816665209,857.0024816665209,,,711.6279950456465,j,0,711.6285585359637,712.1340985084989,712.1341097334061,712.1352944421324,1.895162121298199,None,857.4354503721224,,,,AI,001,1,23,F,2024-02-06_16h35.17.298,eye_track_exp,2023.1.3,120.05351855665123,
0,168,0,270,0,0,0,168,0,0,f,present,resp,freq_top,,,,,0,98,98,646,,,,,,,,,,,1.0795323310498455,,,,,,,,,,,,,,,,,,,,,,,712.135836765483,712.136823274428,712.136833537199,713.2174081626235,713.2174213117996,859.0507481239983,859.0507481239983,860.5327934046309,860.5327934046309,860.5327934046309,860.5327934046309,,,715.3417663384935,f,1,715.3423455436805,715.343070031231,715.3430799732905,715.3434962569754,2.0678114494403417,None,,,,,AI,001,1,23,F,2024-02-06_16h35.17.298,eye_track_exp,2023.1.3,120.05351855665123,
0,0,0,0,0,0,168,0,0,168,f,abs,resp,freq_top,,,,,0,99,99,925,,,,,,,,,,,0.7368600027523701,,,,,,,,,,,,,,,,,,,,,,,715.3440052263159,716.1736140286957,716.1736278192948,716.914525863147,716.914539653746,862.7475688455597,862.7475688455597,864.2379362720367,864.2379362720367,864.2379362720367,864.2379362720367,,,718.5477385661488,f,1,718.5482638917838,718.5483014150432,718.5483107156815,718.5487786339345,1.586811367978953,None,,,,,AI,001,1,23,F,2024-02-06_16h35.17.298,eye_track_exp,2023.1.3,120.05351855665123,
180,90,0,0,-168,0,0,-168,180,180,f,present,resp,freq_top,,,,,0,100,100,478,,,,,,,,,,,1.0348570542857247,,,,,,,,,,,,,,,,,,,,,,,718.5492834340257,719.4294405570636,719.4294546683741,720.4692383034871,720.4692517733747,866.294504349813,866.294504349813,867.7848935846778,867.7848935846778,867.7848935846778,867.7848935846778,,,722.0442315845776,f,1,722.0447601173291,722.044797319877,722.0448062998021,722.0452604274578,1.5280800903219642,None,,,,,AI,001,1,23,F,2024-02-06_16h35.17.298,eye_track_exp,2023.1.3,120.05351855665123,
90,0,12,0,12,0,0,180,180,180,j,present,resp,freq_top,,,,,0,101,101,439,,,,,,,,,,,0.8395956744276011,,,,,,,,,,,,,,,,,,,,,,,722.0457495126793,722.3185862646915,722.3186006967135,723.1588446171445,723.1588580870321,868.983843189977,868.983843189977,870.4742282555926,870.4742282555926,870.4742282555926,870.4742282555926,,,725.3666702372557,j,1,725.3671583603427,725.3671965250251,725.3672051842386,725.3676554633548,2.167385672693854,None,,,,,AI,001,1,23,F,2024-02-06_16h35.17.298,eye_track_exp,2023.1.3,120.05351855665123,
0,12,0,270,180,168,0,0,0,0,None,present,inhibit,freq_top,,,,,0,102,102,257,,,,,,,,,,,0.8919242910695462,,,,,,,,,,,,,,,,,,,,,,,725.3681580184639,725.7068753515796,725.7068885007557,726.6053249033212,726.6053383732087,872.4308860043384,872.4308860043384,873.9212697871062,873.9212697871062,873.9212697871062,873.9212697871062,,,728.8963886588681,f,0,728.8969434899718,729.4025296449781,729.4025415113083,729.4035283409648,2.255224095611993,None,874.7039267289401,,,,AI,001,1,23,F,2024-02-06_16h35.17.298,eye_track_exp,2023.1.3,120.05351855665123,
168,0,180,180,180,180,0,168,180,180,f,abs,resp,freq_top,,,,,0,103,103,780,,,,,,,,,,,0.8338680227258293,,,,,,,,,,,,,,,,,,,,,,,729.4040886241655,729.4049638461784,729.4049741089511,730.2444617913789,730.2444752612682,876.0694119367581,876.0694119367581,877.5597880224486,877.5597880224486,877.5597880224486,877.5597880224486,,,732.6016126663126,f,1,732.602143123333,732.6028708180002,732.6028810807729,732.6037870911005,2.3125108881304186,None,,,,,AI,001,1,23,F,2024-02-06_16h35.17.298,eye_track_exp,2023.1.3,120.05351855665123,
180,0,180,180,168,180,-168,180,180,180,f,abs,resp,freq_top,,,,,0,104,104,770,,,,,,,,,,,0.9985652239417548,,,,,,,,,,,,,,,,,,,,,,,732.6042995882708,733.3998087275886,733.399822838901,734.3991846227764,734.3991980926639,880.2241742156839,880.2241742156839,881.7145576777402,881.7145576777402,881.7145576777402,881.7145576777402,,,736.1575604878144,f,1,736.1581095461097,736.1581489936398,736.1581579735648,736.1586400031301,1.7095355181409104,None,,,,,AI,001,1,23,F,2024-02-06_16h35.17.298,eye_track_exp,2023.1.3,120.05351855665123,
0,90,180,180,12,0,0,0,168,0,None,present,inhibit,freq_top,,,,,0,105,105,203,,,,,,,,,,,0.948918154936751,,,,,,,,,,,,,,,,,,,,,,,736.1591419168162,737.0308354601857,737.0308498922095,737.9792685594202,737.9792823500211,883.8044274880649,883.8044274880649,885.2948064601587,885.2948064601587,885.2948064601587,885.2948064601587,886.7851799801556,886.7851799801556,741.0107451221375,None,1,741.0111415216998,741.0111787242477,741.0111877041727,741.0117537601836,,,,,,,AI,001,1,23,F,2024-02-06_16h35.17.298,eye_track_exp,2023.1.3,120.05351855665123,
0,180,168,0,180,168,180,0,180,180,f,abs,resp,freq_top,,,,,0,106,106,788,,,,,,,,,,,0.9949849500889683,,,,,,,,,,,,,,,,,,,,,,,741.0122524667531,741.1932451077046,741.1932585775921,742.1923686028458,742.1923820727334,888.0174739726481,888.0174739726481,889.5078404369888,889.5078404369888,889.5078404369888,889.5078404369888,,,744.0001802399311,f,1,744.0006888885619,744.0007257703983,744.0007344296118,744.0012055549814,1.7718526724293042,None,,,,,AI,001,1,23,F,2024-02-06_16h35.17.298,eye_track_exp,2023.1.3,120.05351855665123,
0,180,0,180,180,180,168,180,168,180,f,abs,resp,freq_top,,,,,0,107,107,833,,,,,,,,,,,0.9526392901939396,,,,,,,,,,,,,,,,,,,,,,,744.0017068272446,744.948962914832,744.9489767054329,745.9057662666546,745.9057797365422,891.730924233163,891.730924233163,,,,,,,746.9897616022245,f,1,746.990401101195,746.9904392658791,746.9904479250927,746.990984475633,1.0346671862971561,None,,,,,AI,001,1,23,F,2024-02-06_16h35.17.298,eye_track_exp,2023.1.3,120.05351855665123,
180,90,0,0,12,0,0,-168,180,180,None,present,inhibit,freq_top,,,,,0,108,108,63,,,,,,,,,,,0.9272924812195612,,,,,,,,,,,,,,,,,,,,,,,746.99147869224,746.9924395442558,746.9924494863153,747.9291756492639,747.9291897605763,893.7625149692158,893.7625149692158,895.2528936205981,895.2528936205981,895.2528936205981,895.2528936205981,896.7266626171477,896.7266626171477,750.9612945973568,j,0,750.9618115844878,751.4668759416891,751.4668884494422,751.4678704684247,2.9868843619442487,None,896.7682573107832,,,,AI,001,1,23,F,2024-02-06_16h35.17.298,eye_track_exp,2023.1.3,120.05351855665123,
180,270,0,12,180,0,0,180,0,-168,None,present,inhibit,freq_top,,,,,0,109,109,318,,,,,,,,,,,0.9046732573384415,,,,,,,,,,,,,,,,,,,,,,,751.4684192060085,751.7839413918755,751.783954861763,752.6917396873578,752.6917531572453,898.5167494850975,898.5167494850975,900.0071313435965,900.0071313435965,900.0071313435965,900.0071313435965,,,755.1162961271511,j,0,755.1168070207623,755.6142092566351,755.6142281786215,755.6146790991588,2.3764643131053163,None,900.9146746733404,901.4142381848233,,,AI,001,1,23,F,2024-02-06_16h35.17.298,eye_track_exp,2023.1.3,120.05351855665123,
0,0,180,0,180,-168,0,168,0,0,f,abs,resp,freq_top,,,,,0,110,110,988,,,,,,,,,,,0.8333278896592144,,,,,,,,,,,,,,,,,,,,,,,755.6152640771561,756.072382367789,756.0724131561037,756.9045748229837,756.9045886135827,902.7297824997931,902.7297824997931,904.2201685275431,904.2201685275431,904.2201685275431,904.2201685275431,,,759.6113818629874,j,0,759.6118764003077,760.1108142034191,760.1108244661918,760.1112458812604,2.658779697065256,None,905.4108155504091,905.9103780997593,,,AI,001,1,23,F,2024-02-06_16h35.17.298,eye_track_exp,2023.1.3,120.05351855665123,
0,0,180,0,168,0,0,0,168,0,f,abs,resp,freq_top,,,,,0,111,111,949,,,,,,,,,,,0.7497204016649446,,,,,,,,,,,,,,,,,,,,,,,760.1118048816152,760.1126958184977,760.1127060812687,760.8597431869621,760.8597569775629,906.68470487796,906.68470487796,,,,,,,762.184035232096,f,1,762.184578517581,762.1853062122482,762.185316475021,762.1858892659748,1.2795940095275,None,,,,,AI,001,1,23,F,2024-02-06_16h35.17.298,eye_track_exp,2023.1.3,120.05351855665123,
-168,0,0,180,0,180,168,180,180,180,f,abs,resp,freq_top,,,,,0,112,112,754,,,,,,,,,,,1.04653382819602,,,,,,,,,,,,,,,,,,,,,,,762.1863892553902,762.7501040709212,762.7501181822317,763.7982444887311,763.7982579586187,909.6238431130078,909.6238431130078,,,,,,,765.1816132179374,f,1,765.1821183387401,765.1821558619995,765.182164521213,765.1828431470021,1.3335277620517445,None,,,,,AI,001,1,23,F,2024-02-06_16h35.17.298,eye_track_exp,2023.1.3,120.05351855665123,
168,0,180,0,0,180,180,0,168,0,f,abs,resp,freq_top,,,,,0,113,113,944,,,,,,,,,,,0.9451979396243759,,,,,,,,,,,,,,,,,,,,,,,765.183338646455,765.339271843508,765.3393023111112,766.2883476488314,766.2883787578576,912.1133731614409,912.1133731614409,913.6037639998649,913.6037639998649,913.6037639998649,913.6037639998649,,,768.0793142287566,f,1,768.0798231980971,768.5854552148667,768.5854667604854,768.586290668638,1.7545627882500412,None,913.8868308111505,,,,AI,001,1,23,F,2024-02-06_16h35.17.298,eye_track_exp,2023.1.3,120.05351855665123,
-12,180,180,270,0,12,180,180,180,0,j,present,resp,freq_top,,,,,0,114,114,595,,,,,,,,,,,1.0484962958292914,,,,,,,,,,,,,,,,,,,,,,,768.5868438961843,768.5876309225005,768.5876418266962,769.6352864243418,769.6353005356523,915.4604777448585,915.4604777448585,916.950873714668,916.950873714668,916.950873714668,916.950873714668,918.4412568560128,918.4412568560128,772.6662915409743,None,0,772.6667584970946,773.173180105874,773.1731916514909,773.1742368506639,,,918.4745569850038,,,,AI,001,1,23,F,2024-02-06_16h35.17.298,eye_track_exp,2023.1.3,120.05351855665123,
12,0,0,-168,0,0,90,180,180,180,None,present,inhibit,freq_top,,,,,0,115,115,8,,,,,,,,,,,0.8172907430484442,,,,,,,,,,,,,,,,,,,,,,,773.1747820604178,773.3160779791069,773.3160908075715,774.1405618097888,774.1405762418108,919.9649353156728,919.9649353156728,921.455347641775,921.455347641775,921.455347641775,921.455347641775,922.9457275760051,922.9457275760051,777.1706942701021,None,1,777.171079444759,777.1721958419093,777.1722064253936,777.1728452829411,,,,,,,AI,001,1,23,F,2024-02-06_16h35.17.298,eye_track_exp,2023.1.3,120.05351855665123,
180,270,180,0,0,180,168,0,12,180,None,present,inhibit,freq_top,,,,,0,116,116,96,,,,,,,,,,,1.0102000150857233,,,,,,,,,,,,,,,,,,,,,,,777.1733510451668,777.3623743050975,777.3623871335622,778.3780442748812,778.3780577447687,924.2029633112325,924.2029633112325,925.6933377933638,925.6933377933638,925.6933377933638,925.6933377933638,927.1837286317877,927.1837286317877,781.4093745930968,None,1,781.4097559192141,781.409793121762,781.4098021016871,781.4103559706564,,,,,,,AI,001,1,23,F,2024-02-06_16h35.17.298,eye_track_exp,2023.1.3,120.05351855665123,
0,0,168,0,0,0,0,0,180,168,f,abs,resp,freq_top,,,,,0,117,117,902,,,,,,,,,,,0.7590231171934736,,,,,,,,,,,,,,,,,,,,,,,781.4108710335186,781.6255637308514,781.6255772007389,782.3914397578501,782.3914532277377,928.2161641222483,928.2161641222483,929.714871654418,929.714871654418,929.714871654418,929.714871654418,,,784.7241767813775,f,1,784.7247139733408,784.7247518173117,784.7247604765253,784.7252944613738,2.2914032528206008,None,,,,,AI,001,1,23,F,2024-02-06_16h35.17.298,eye_track_exp,2023.1.3,120.05351855665123,
180,0,0,180,180,-168,180,0,12,180,None,abs,inhibit,freq_top,,,,,0,118,118,350,,,,,,,,,,,0.8981490923519155,,,,,,,,,,,,,,,,,,,,,,,784.7258002235994,784.947395917854,784.9474090670301,785.8462437934286,785.8462572633161,931.6715313274326,931.6715313274326,933.161914148066,933.161914148066,933.161914148066,933.161914148066,,,788.6361828133213,j,0,788.6366856891418,789.1358268234217,789.1358383690404,789.1360975040297,2.7401403866733745,None,934.435807003445,934.9353859090861,,,AI,001,1,23,F,2024-02-06_16h35.17.298,eye_track_exp,2023.1.3,120.05351855665123,
180,0,-168,0,90,180,-168,0,180,0,f,present,resp,freq_top,,,,,0,119,119,606,,,,,,,,,,,0.8324361671177268,,,,,,,,,,,,,,,,,,,,,,,789.1366882548355,789.2523820855622,789.2523952347383,790.0845168126652,790.0845302825528,935.9095477773735,935.9095477773735,937.3999350879676,937.3999350879676,937.3999350879676,937.3999350879676,,,793.0413387657609,f,1,793.0418733920324,793.0426155187215,793.0426257814943,793.0432178151459,2.916753710444027,None,,,,,AI,001,1,23,F,2024-02-06_16h35.17.298,eye_track_exp,2023.1.3,120.05351855665123,
12,0,90,180,180,180,0,0,168,0,None,present,inhibit,freq_top,,,,,0,120,120,202,,,,,,,,,,,0.8453761166090769,,,,,,,,,,,,,,,,,,,,,,,793.0437200495435,793.2484020543507,793.2484158449497,794.0978879215509,794.0979013914402,939.9227473055416,939.9227473055416,941.4131484067366,941.4131484067366,941.4131484067366,941.4131484067366,,,796.3719504333785,f,0,796.372467741221,796.8777716700024,796.877783857044,796.8783197661633,2.2317294037093234,None,942.1791700368121,,,,AI,001,1,23,F,2024-02-06_16h35.17.298,eye_track_exp,2023.1.3,120.05351855665123,
0,0,0,168,0,0,168,0,0,0,f,abs,resp,freq_top,,,,,0,121,121,993,,,,,,,,,,,1.0203078369896186,,,,,,,,,,,,,,,,,,,,,,,796.8788636930713,796.8796625857176,796.8796728484904,797.9027833278706,797.9027961563352,943.7278200653873,943.7278200653873,945.2181971132104,945.2181971132104,945.2181971132104,945.2181971132104,,,799.5442383195223,f,1,799.5447501752697,799.5454698521462,799.5454797942057,799.5459387325354,1.5941309692952927,None,,,,,AI,001,1,23,F,2024-02-06_16h35.17.298,eye_track_exp,2023.1.3,120.05351855665123,
90,180,180,-168,0,180,0,180,-12,180,None,present,inhibit,freq_top,,,,,0,122,122,139,,,,,,,,,,,0.936610270384696,,,,,,,,,,,,,,,,,,,,,,,799.5464329491424,799.8427390568377,799.8427528474385,800.7839686523639,800.78398180154,946.608648758558,946.608648758558,948.0990488976186,948.0990488976186,948.0990488976186,948.0990488976186,,,803.4402693849333,f,0,803.4408697570871,803.9466589225503,803.946670468169,803.9476691641557,2.6173969938135997,None,949.2480489508562,,,,AI,001,1,23,F,2024-02-06_16h35.17.298,eye_track_exp,2023.1.3,120.05351855665123,
180,-168,180,270,0,180,180,180,12,0,None,present,inhibit,freq_top,,,,,0,123,123,208,,,,,,,,,,,0.8279538565883782,,,,,,,,,,,,,,,,,,,,,,,803.9482365030126,803.9490331506768,803.9490434134495,804.7802483975647,804.7802618674523,950.6052274069898,950.6052274069898,952.095608624064,952.095608624064,952.095608624064,952.095608624064,,,807.0880077586553,f,0,807.0885362914069,807.58605943556,807.5860693776212,807.5864471759105,2.2691048152628355,None,952.8865947673985,953.3861691830771,,,AI,001,1,23,F,2024-02-06_16h35.17.298,eye_track_exp,2023.1.3,120.05351855665123,
180,180,0,0,0,-168,180,180,-168,180,f,abs,resp,freq_top,,,,,0,124,124,881,,,,,,,,,,,0.9323372513660719,,,,,,,,,,,,,,,,,,,,,,,807.5869891785478,807.5877656213815,807.5877758841543,808.5184614437276,808.518474913617,954.3436784211754,954.3436784211754,955.8340442440931,955.8340442440931,955.8340442440931,955.8340442440931,,,810.675690636439,f,1,810.6761989643583,810.6769231311973,810.6769330732568,812.5071181944186,2.1144365048421605,None,,,,,AI,001,1,23,F,2024-02-06_16h35.17.298,eye_track_exp,2023.1.3,120.05351855665123,
-12,0,0,0,90,0,0,12,180,0,j,present,resp,freq_top,,,,,0,125,125,602,,,,,,,,,,,1.0749189885653063,,,,,,,,,,,,,,,,,,,,,,,812.5076877782576,813.8225913114093,813.8226051020083,814.8961792341797,814.8961927040673,960.7215113470975,960.7215113470975,962.211888074211,962.211888074211,962.211888074211,962.211888074211,,,816.770482728718,j,1,816.770994905175,816.7710343527051,816.7710430119187,816.7716048986767,1.8316028509034368,None,,,,,AI,001,1,23,F,2024-02-06_16h35.17.298,eye_track_exp,2023.1.3,120.05351855665123,
180,12,180,-168,180,180,0,180,180,180,None,abs,inhibit,freq_top,,,,,0,126,126,340,,,,,,,,,,,1.0008946854045815,,,,,,,,,,,,,,,,,,,,,,,816.772098794574,817.7281388527372,817.728153284761,818.7348000330967,818.7348135029861,964.5598720488924,964.5598720488924,966.050270905107,966.050270905107,966.050270905107,966.050270905107,,,821.5084334327748,j,0,821.5089616448149,822.0144377957367,822.0144493413554,822.01549133341,2.729109189769588,None,967.3158223719456,,,,AI,001,1,23,F,2024-02-06_16h35.17.298,eye_track_exp,2023.1.3,120.05351855665123,
0,270,180,180,180,12,0,0,0,12,j,present,resp,freq_top,,,,,0,127,127,585,,,,,,,,,,,0.9468201282274507,,,,,,,,,,,,,,,,,,,,,,,822.016029808221,822.315733534826,822.315747966848,823.2644385975145,823.2644527088269,969.0893076028551,969.0893076028551,970.5713631462586,970.5713631462586,970.5713631462586,970.5713631462586,,,824.7654196543626,j,1,824.7659494699601,824.7666742782221,824.7666845409949,824.7670918447529,1.4639387283368706,None,,,,,AI,001,1,23,F,2024-02-06_16h35.17.298,eye_track_exp,2023.1.3,120.05351855665123,
0,12,0,0,12,0,0,90,0,0,j,present,resp,freq_top,,,,,0,128,128,627,,,,,,,,,,,1.0623243202955155,,,,,,,,,,,,,,,,,,,,,,,824.7675927963046,824.9965478601152,824.9965610092931,826.0622565397916,826.0622700096792,971.8869074612285,971.8869074612285,973.3772819433598,973.3772819433598,973.3772819433598,973.3772819433598,,,828.586325305494,j,1,828.5868557625145,828.5868942479083,828.5869032278333,828.5873733910703,2.4896549896348006,None,,,,,AI,001,1,23,F,2024-02-06_16h35.17.298,eye_track_exp,2023.1.3,120.05351855665123,
180,-168,180,270,0,180,12,0,180,180,None,present,inhibit,freq_top,,,,,0,129,129,49,,,,,,,,,,,0.8778100605158149,,,,,,,,,,,,,,,,,,,,,,,828.5879243736345,828.8095521390496,828.8095659296505,829.691638983908,829.6916524537974,975.5171112478056,975.5171112478056,977.0074931063045,977.0074931063045,977.0074931063045,977.0074931063045,978.4978768890724,978.4978768890724,832.723467367272,None,1,832.7238531833518,832.7238910273227,832.7239000072477,832.7243583041545,,,,,,,AI,001,1,23,F,2024-02-06_16h35.17.298,eye_track_exp,2023.1.3,120.05351855665123,
270,180,0,0,0,12,180,180,168,180,None,present,inhibit,freq_top,,,,,0,130,130,67,,,,,,,,,,,0.8915567376766661,,,,,,,,,,,,,,,,,,,,,,,832.7248685563427,832.9813493364163,832.9813621648809,833.8715598066228,833.8715739179352,979.6968373985674,979.6968373985674,981.1872224641811,981.1872224641811,981.1872224641811,981.1872224641811,982.6776110576247,982.6776110576247,836.903504287593,None,1,836.9038724645343,836.9039096670822,836.9039183262958,836.9044061286713,,,,,,,AI,001,1,23,F,2024-02-06_16h35.17.298,eye_track_exp,2023.1.3,120.05351855665123,
0,168,0,180,0,180,180,168,0,0,f,abs,resp,freq_top,,,,,0,131,131,966,,,,,,,,,,,0.7110880793683853,,,,,,,,,,,,,,,,,,,,,,,836.9054311230102,837.0359011002329,837.0359139286975,837.7519686882824,837.7519821581718,983.5768149230971,983.5768149230971,985.0755455465023,985.0755455465023,985.0755455465023,985.0755455465023,,,839.9506723077702,f,1,839.9511796735533,839.9512357980875,839.9512444573011,839.9518326424131,2.159121896364013,None,,,,,AI,001,1,23,F,2024-02-06_16h35.17.298,eye_track_exp,2023.1.3,120.05351855665123,
270,180,0,0,0,12,180,180,168,180,None,present,inhibit,freq_top,,,,,0,132,132,69,,,,,,,,,,,1.0405238162864392,,,,,,,,,,,,,,,,,,,,,,,839.9523464224294,840.5327193202447,840.5327337522685,841.5737171695528,841.5737306394421,987.3985460859403,987.3985460859403,988.8889465457123,988.8889465457123,988.8889465457123,988.8889465457123,990.3793110857823,990.3793110857823,844.604959612785,None,1,844.6053614644461,844.605398025571,844.6054070054961,844.6058447768592,,,,,,,AI,001,1,23,F,2024-02-06_16h35.17.298,eye_track_exp,2023.1.3,120.05351855665123,
180,90,180,180,168,0,0,180,-12,180,None,present,inhibit,freq_top,,,,,0,133,133,145,,,,,,,,,,,0.87584955088465,,,,,,,,,,,,,,,,,,,,,,,844.606336748484,844.820973641994,844.8209871118834,845.7032291811647,845.7032426510541,991.528315308271,991.528315308271,993.0187058259835,993.0187058259835,993.0187058259835,993.0187058259835,994.5090726110357,994.5090726110357,848.7341749661482,None,1,848.7346031161633,848.7346403187112,848.7346492986362,848.7351842456192,,,,,,,AI,001,1,23,F,2024-02-06_16h35.17.298,eye_track_exp,2023.1.3,120.05351855665123,
180,270,0,0,0,0,0,-168,0,-168,f,present,resp,freq_top,,,,,0,134,134,728,,,,,,,,,,,0.8200890624563275,,,,,,,,,,,,,,,,,,,,,,,848.7356775000917,848.9257565426778,848.9257696918539,849.7498234482537,849.7498365974297,995.5748313217246,995.5748313217246,997.065210614528,997.065210614528,997.065210614528,997.065210614528,,,851.9580018511479,f,1,851.9585108204901,851.9585505887298,851.9585592479434,851.9591076648157,2.1610856136176153,None,,,,,AI,001,1,23,F,2024-02-06_16h35.17.298,eye_track_exp,2023.1.3,120.05351855665123,
12,0,180,0,90,0,0,0,12,0,j,present,resp,freq_top,,,,,0,135,135,625,,,,,,,,,,,1.0051176253256868,,,,,,,,,,,,,,,,,,,,,,,851.9596009192883,852.2395218702877,852.2395356608868,853.2468129282697,853.2468263981591,999.0718188774717,999.0718188774717,1000.5622100366072,1000.5622100366072,1000.5622100366072,1000.5622100366072,1002.0525858015844,1002.0525858015844,856.2779046370415,None,0,856.2782933395247,856.7845205970625,856.7845324633927,856.7849070545653,,,1002.0859003625974,,,,AI,001,1,23,F,2024-02-06_16h35.17.298,eye_track_exp,2023.1.3,120.05351855665123,
90,0,180,0,-12,0,0,0,180,12,j,present,resp,freq_top,,,,,0,136,136,569,,,,,,,,,,,0.8149576497402009,,,,,,,,,,,,,,,,,,,,,,,856.7854493779159,856.7865134990734,856.7865240825558,857.6011011312785,857.6011165254367,1003.4263941173795,1003.4263941173795,1004.9167958599992,1004.9167958599992,1004.9167958599992,1004.9167958599992,1006.4071668143006,1006.4071668143006,860.6325661483752,None,0,860.6329458709333,861.1316123520155,861.1316219733635,861.1320879673494,,,1006.4321457595834,1006.9317172888586,,,AI,001,1,23,F,2024-02-06_16h35.17.298,eye_track_exp,2023.1.3,120.05351855665123,
0,-12,180,270,180,180,0,12,0,0,j,present,resp,freq_top,,,,,0,137,137,650,,,,,,,,,,,0.9812038311464113,,,,,,,,,,,,,,,,,,,,,,,861.1326232350439,861.1335670893441,861.133577352115,862.11427339896,862.114287189559,1007.9475094497684,1007.9475094497684,1009.4378884218622,1009.4378884218622,1009.4378884218622,1009.4378884218622,,,864.6802402514895,j,1,864.6807379959246,864.6814628041866,864.6814730669594,864.6824201283744,2.5228852034906595,None,,,,,AI,001,1,23,F,2024-02-06_16h35.17.298,eye_track_exp,2023.1.3,120.05351855665123,
0,-168,0,90,0,12,180,0,0,0,None,present,inhibit,freq_top,,,,,0,138,138,243,,,,,,,,,,,0.8395544068615727,,,,,,,,,,,,,,,,,,,,,,,864.6829188349438,864.7707559750179,864.770768482771,865.6110707727166,865.6110845633157,1011.4361729354041,1011.4361729354041,1012.9265749987335,1012.9265749987335,1012.9265749987335,1012.9265749987335,1014.4169417837857,1014.4169417837857,868.6423504184968,None,1,868.6427529115808,868.6427897934173,868.6427987733423,868.6433471902128,,,,,,,AI,001,1,23,F,2024-02-06_16h35.17.298,eye_track_exp,2023.1.3,120.05351855665123,
0,0,0,180,0,0,-168,0,180,168,f,abs,resp,freq_top,,,,,0,139,139,903,,,,,,,,,,,1.0491334485898904,,,,,,,,,,,,,,,,,,,,,,,868.64384717963,868.7756400922881,868.7756529207527,869.8240220059488,869.8240348344134,1015.6492094779278,1015.6492094779278,1017.1395993542155,1017.1395993542155,1017.1395993542155,1017.1395993542155,,,872.0817458642632,j,0,872.082304223195,872.5875683837348,872.587579608642,872.5882652900873,2.2128218501184165,None,1017.8889433385957,,,,AI,001,1,23,F,2024-02-06_16h35.17.298,eye_track_exp,2023.1.3,120.05351855665123,
0,168,0,0,0,0,168,0,0,0,f,abs,resp,freq_top,,,,,0,140,140,998,,,,,,,,,,,1.0434427281847949,,,,,,,,,,,,,,,,,,,,,,,872.5887989542243,872.5895972054477,872.5896074682187,873.6375958687204,873.6376093386098,1019.4625796888213,1019.4625796888213,1020.952979186457,1020.952979186457,1020.952979186457,1020.952979186457,,,875.8448272101996,f,1,875.8453368209648,875.8460609878039,875.8460712505766,875.8466645670742,2.1598447803571617,None,,,,,AI,001,1,23,F,2024-02-06_16h35.17.298,eye_track_exp,2023.1.3,120.05351855665123,
0,0,168,0,0,168,0,180,180,180,f,abs,resp,freq_top,,,,,0,141,141,766,,,,,,,,,,,0.7976854933074856,,,,,,,,,,,,,,,,,,,,,,,875.8471558972778,876.0855838202278,876.0855976108269,876.8845720392055,876.8845851883834,1022.7097726603606,1022.7097726603606,1024.2001708751523,1024.2001708751523,1024.2001708751523,1024.2001708751523,,,879.258982651425,f,1,879.2594919414787,879.2595297854496,879.2595384446649,879.2600281713094,2.336837505976291,None,,,,,AI,001,1,23,F,2024-02-06_16h35.17.298,eye_track_exp,2023.1.3,120.05351855665123,
