ori10,ori11,ori12,ori13,ori14,ori16,ori17,ori18,ori19,ori20,corrAns,distractor,responses,dist_freq,practice_trials.thisRepN,practice_trials.thisTrialN,practice_trials.thisN,practice_trials.thisIndex,trials.thisRepN,trials.thisTrialN,trials.thisN,trials.thisIndex,intro_2.started,intro_2.stopped,key_resp.keys,key_resp.rt,key_resp.duration,start_et_record_2.started,start_et_record_2.stopped,fix_check_3.started,fix_check_3.stopped,fix_practice_2.started,fixdur,fix_practice_2.stopped,practice_search_2.started,int14_2.started,per15_2.started,practice_search_2.stopped,response_2.keys,response_2.corr,response_2.rt,response_2.duration,feedback_4.started,feedback_4.stopped,pause_pract_2.started,pause_pract_2.stopped,stop_et_record_2.started,stop_et_record_2.stopped,break_3.started,break_3.stopped,key_resp_2.keys,key_resp_2.rt,key_resp_2.duration,fix_check_2.started,fix_check_2.stopped,fixation_2.started,fixation_2.stopped,search_displays_2.started,int14.started,per15.started,int14.stopped,int14_3.started,per15.stopped,per15_3.started,search_displays_2.stopped,response.keys,response.corr,response.rt,response.duration,feedback_6.started,feedback_6.stopped,pause_4.started,pause_4.stopped,int14_3.stopped,per15_3.stopped,text_feedback_2.started,text_feedback_2.stopped,end_2.started,end_2.stopped,participant,session,group,age,gender,date,expName,psychopyVersion,frameRate,
,,,,,,,,,,,,,,,,,,,,,,9.942308679455891e-06,11.93495484908999,space,11.915721594166826,None,,,,,,,,,,,,,,,,,,,,,,,,,,,,,,,,,,,,,,,,,,,,,,,,,,,,,AK,001,2,24,m,2024-02-08_16h06.12.429,eye_track_exp,2023.1.3,120.12405418108136,
90,0,180,180,180,168,0,168,0,0,f,present,resp,freq_top,0,0,0,44,,,,,,,,,,58.34698080941962,58.848004546522134,58.86969160881927,59.437723301052756,59.43773645055626,0.7272051178655112,60.16971906242179,60.16973221192529,107.25535633876643,107.25535633876643,62.70954089624502,f,1,2.490384806471411,None,62.710284324377426,62.71032858368926,62.71033756383986,62.71092832942304,,,,,,,,,,,,,,,,,,,,,,,,,,,,,,,,,,AK,001,2,24,m,2024-02-08_16h06.12.429,eye_track_exp,2023.1.3,120.12405418108136,
0,0,180,0,0,0,168,0,180,168,f,abs,resp,freq_top,0,1,1,15,,,,,,,,,,,,62.711412295364426,62.91826556099841,62.918277748343826,1.0012028520462983,63.924407342172344,63.92441985023834,111.01054975195439,111.01054975195439,65.49113466761264,f,1,1.5188756152856513,None,65.4916519883991,65.49169175763382,65.49170009634327,65.49205256723144,,,,,,,,,,,,,,,,,,,,,,,,,,,,,,,,,,AK,001,2,24,m,2024-02-08_16h06.12.429,eye_track_exp,2023.1.3,120.12405418108136,
0,0,168,0,0,0,0,0,180,168,f,abs,resp,freq_top,0,2,2,19,,,,,,,,,,,,65.49253813677205,65.74031779467987,65.74033062346643,0.8087031573751582,66.55611439171844,66.55612689978443,113.64168784485446,113.64168784485446,68.25592978548957,f,1,1.656473322524107,None,68.25643427748946,68.25647436744475,68.2564827061542,68.25691920558893,,,,,,,,,,,,,,,,,,,,,,,,,,,,,,,,,,AK,001,2,24,m,2024-02-08_16h06.12.429,eye_track_exp,2023.1.3,120.12405418108136,
90,0,0,12,0,12,180,180,180,0,j,present,resp,freq_top,0,3,3,32,,,,,,,,,,,,68.25740028505606,68.64578567973876,68.64579850852533,0.8354598387950101,69.48705543446704,69.48706794253303,116.5725717995083,116.5725717995083,70.73672445179545,j,1,1.2048516357208428,None,70.73725620496407,70.7372950120407,70.73730335075015,70.7376651225095,,,,,,,,,,,,,,,,,,,,,,,,,,,,,,,,,,AK,001,2,24,m,2024-02-08_16h06.12.429,eye_track_exp,2023.1.3,120.12405418108136,
168,0,180,0,0,180,180,0,168,0,f,abs,resp,freq_top,0,4,4,13,,,,,,,,,,,,70.73815935148014,70.95232727002076,70.95233945736982,0.9904738767847472,71.94285866398423,71.94287181349137,119.02884327970605,119.02884327970605,73.35996610634902,f,1,1.372354846127564,None,73.36049689735955,73.36053666659427,73.3605453260243,73.36105206306092,,,,,,,,,,,,,,,,,,,,,,,,,,,,,,,,,,AK,001,2,24,m,2024-02-08_16h06.12.429,eye_track_exp,2023.1.3,120.12405418108136,
180,0,180,0,12,180,180,180,12,180,j,abs,resp,freq_top,0,5,5,9,,,,,,,,,,,,73.36155078210868,73.56750218410161,73.56751501288818,0.75959491703809,74.33259653340428,74.33260872075334,121.41852406102771,121.41852406102771,75.30006209132262,j,1,0.9188700989107019,None,75.30057780850984,75.30061886062322,75.30062752005324,75.30107909331127,,,,,,,,,,,,,,,,,,,,,,,,,,,,,,,,,,AK,001,2,24,m,2024-02-08_16h06.12.429,eye_track_exp,2023.1.3,120.12405418108136,
0,270,0,0,12,0,0,12,0,0,j,present,resp,freq_top,0,6,6,40,,,,,,,,,,,,75.30157300156498,75.52347314999497,75.52348565806096,1.055480057673042,76.58090954807994,76.58092237686651,123.66664079528346,123.66664079528346,77.71455951722601,j,1,1.0869890910289541,None,77.71506817858244,77.71510698565908,77.71511532436853,77.7155729913029,,,,,,,,,,,,,,,,,,,,,,,,,,,,,,,,,,AK,001,2,24,m,2024-02-08_16h06.12.429,eye_track_exp,2023.1.3,120.12405418108136,
0,0,0,-168,0,12,0,0,0,0,None,abs,inhibit,freq_top,0,7,7,21,,,,,,,,,,,,77.71603065823365,77.99666098779198,77.99667349585798,0.7964326796999435,78.79597900954104,78.79599151760704,125.88145496390644,125.88145496390644,81.80104637991099,None,1,,,81.80142739484654,81.80146748480183,81.80147646495243,81.80219038687937,,,,,,,,,,,,,,,,,,,,,,,,,,,,,,,,,,AK,001,2,24,m,2024-02-08_16h06.12.429,eye_track_exp,2023.1.3,120.12405418108136,
180,180,168,0,270,0,0,168,0,180,f,present,resp,freq_top,0,8,8,47,,,,,,,,,,,,81.80266376907093,82.06001177682629,82.06002492632979,1.0907041870004581,83.15030237448082,83.15031488254681,130.23615068435174,130.23615068435174,84.93265272348799,f,1,1.7329017757510883,None,84.93316170556136,84.93320115407914,84.93320981350917,84.93365978316797,,,,,,,,,,,,,,,,,,,,,,,,,,,,,,,,,,AK,001,2,24,m,2024-02-08_16h06.12.429,eye_track_exp,2023.1.3,120.12405418108136,
180,168,180,0,180,0,180,0,0,168,f,abs,resp,freq_top,0,9,9,20,,,,,,,,,,,,84.93413412752125,85.22372055312735,85.22373306119334,0.8680522273436018,86.09781500121244,86.09782718855786,133.18368576145804,133.18368576145804,86.98115098583003,f,1,0.8494442383889691,None,86.98166830661285,86.98170775513063,86.9817157731195,86.98260320437475,,,,,,,,,,,,,,,,,,,,,,,,,,,,,,,,,,AK,001,2,24,m,2024-02-08_16h06.12.429,eye_track_exp,2023.1.3,120.12405418108136,
0,180,180,180,168,0,0,0,0,12,None,abs,inhibit,freq_top,0,10,10,31,,,,,,,,,,,,86.98309839550348,87.26365752530182,87.26367003336782,0.9790305745463999,88.24574950256283,88.24576201062882,135.33188549795523,135.33188549795523,91.25981081389546,None,1,,,91.26024121965747,91.26028259249142,91.26029189336259,91.26098400635237,,,,,,,,,,,,,,,,,,,,,,,,,,,,,,,,,,AK,001,2,24,m,2024-02-08_16h06.12.429,eye_track_exp,2023.1.3,120.12405418108136,
180,12,180,12,180,90,180,180,0,180,j,present,resp,freq_top,0,11,11,37,,,,,,,,,,,,91.26147278309145,91.5104634783711,91.51047662787823,0.7768853717358746,92.29283371199563,92.29285584165336,139.37851300261536,139.37851300261536,93.7262507103951,j,1,1.3911409992469999,None,93.72677765276967,93.72681710128381,93.7268254399969,93.72728214476956,,,,,,,,,,,,,,,,,,,,,,,,,,,,,,,,,,AK,001,2,24,m,2024-02-08_16h06.12.429,eye_track_exp,2023.1.3,120.12405418108136,
0,0,180,0,168,0,0,0,180,168,f,abs,resp,freq_top,0,12,12,17,,,,,,,,,,,,93.72778631604888,94.06734535219584,94.06735786026184,0.7183682609597946,94.79090426261973,94.7909170914063,141.87642383485945,141.87642383485945,95.84088457043617,f,1,1.0046000632319192,None,95.84138457235895,95.84142305871501,95.8414313974281,95.84188393284421,,,,,,,,,,,,,,,,,,,,,,,,,,,,,,,,,,AK,001,2,24,m,2024-02-08_16h06.12.429,eye_track_exp,2023.1.3,120.12405418108136,
180,180,0,168,180,180,180,180,168,180,f,abs,resp,freq_top,0,13,13,10,,,,,,,,,,,,95.84234544841092,96.12395140712397,96.12396423591053,0.8414241588985243,96.96406977833249,96.96408228639848,144.04962046037326,144.04962046037326,98.36398440276389,f,1,1.359722661523847,None,98.36456073596128,98.36460146735772,98.36461012678774,98.36511109087223,,,,,,,,,,,,,,,,,,,,,,,,,,,,,,,,,,AK,001,2,24,m,2024-02-08_16h06.12.429,eye_track_exp,2023.1.3,120.12405418108136,
0,0,0,-168,0,0,0,12,0,0,None,abs,inhibit,freq_top,0,14,14,23,,,,,,,,,,,,98.36560820631712,98.60505941652082,98.60507192458681,0.731935220903047,99.3370923813709,99.33710456871631,146.42262157519508,146.42262157519508,102.35052861011718,None,1,,,102.35092566103413,102.35096607170999,102.35097537258116,102.35193015496043,,,,,,,,,,,,,,,,,,,,,,,,,,,,,,,,,,AK,001,2,24,m,2024-02-08_16h06.12.429,eye_track_exp,2023.1.3,120.12405418108136,
180,0,180,0,168,180,0,180,12,180,None,abs,inhibit,freq_top,0,15,15,30,,,,,,,,,,,,102.35240578219236,102.3531267599501,102.3531363815382,0.8072506961773528,103.15868342020622,103.15869721115087,150.2444005557445,150.2444005557445,106.1723297203207,None,1,,,106.17274890089539,106.17279059444627,106.17279989531744,106.17343299589265,,,,,,,,,,,,,,,,,,,,,,,,,,,,,,,,,,AK,001,2,24,m,2024-02-08_16h06.12.429,eye_track_exp,2023.1.3,120.12405418108136,
12,0,0,12,0,0,180,0,180,180,j,abs,resp,freq_top,0,16,16,6,,,,,,,,,,,,106.17393203566098,106.62335134067325,106.62336416945982,0.7363392969391921,107.36360434998642,107.36361685805241,154.44924675784569,154.44924675784569,108.36379806464902,j,1,0.9590870593310683,None,108.36429550081812,108.36435258891288,108.3643612483429,108.36480031353494,,,,,,,,,,,,,,,,,,,,,,,,,,,,,,,,,,AK,001,2,24,m,2024-02-08_16h06.12.429,eye_track_exp,2023.1.3,120.12405418108136,
0,180,0,12,0,180,180,12,0,0,j,abs,resp,freq_top,0,17,17,2,,,,,,,,,,,,108.36526343270089,108.6137679170024,108.61378106650955,1.0383015768849906,109.65334985253503,109.65336236060102,156.73899867478758,156.73899867478758,111.3699164332902,j,1,1.6776488369941944,None,111.37043086759877,111.3704696746754,111.37047801338485,111.37082246628415,,,,,,,,,,,,,,,,,,,,,,,,,,,,,,,,,,AK,001,2,24,m,2024-02-08_16h06.12.429,eye_track_exp,2023.1.3,120.12405418108136,
180,12,180,12,0,180,0,180,180,180,j,abs,resp,freq_top,0,18,18,5,,,,,,,,,,,,111.37131124301959,111.77682883962552,111.77684295128711,1.0554448625471555,112.83414721288136,112.83415972094735,159.9196699923159,159.9196699923159,114.06693322745195,j,1,1.1842941480063018,None,114.06743868160993,114.06747813012771,114.06748711027831,114.06811475862196,,,,,,,,,,,,,,,,,,,,,,,,,,,,,,,,,,AK,001,2,24,m,2024-02-08_16h06.12.429,eye_track_exp,2023.1.3,120.12405418108136,
90,0,0,12,0,0,0,12,0,0,j,present,resp,freq_top,0,19,19,34,,,,,,,,,,,,114.06859134801198,114.64150375177996,114.6415165805629,1.0620794006105527,115.70645364895609,115.70646679845959,162.7922737355002,162.7922737355002,116.80695788437879,j,1,1.0639348008917295,None,116.80745307550751,116.80749220330472,116.8075005420178,116.80795275671335,,,,,,,,,,,,,,,,,,,,,,,,,,,,,,,,,,AK,001,2,24,m,2024-02-08_16h06.12.429,eye_track_exp,2023.1.3,120.12405418108136,
180,180,0,168,180,180,180,0,0,168,f,abs,resp,freq_top,0,20,20,18,,,,,,,,,,,,116.80842132811449,117.09834867870086,117.09836118676685,1.0585737536644837,118.16302115338476,118.1630413587227,165.24854938505086,165.24854938505086,119.04644052510776,f,1,0.8474105551285902,None,119.04695143150093,119.04699120073565,119.04699953944873,119.0474639414897,,,,,,,,,,,,,,,,,,,,,,,,,,,,,,,,,,AK,001,2,24,m,2024-02-08_16h06.12.429,eye_track_exp,2023.1.3,120.12405418108136,
180,180,180,-168,180,180,12,180,0,180,None,abs,inhibit,freq_top,0,21,21,22,,,,,,,,,,,,119.04794149304144,119.51278452643237,119.51279799665645,0.8533877766790867,120.36916594932336,120.36917845738935,167.4550373510101,167.4550373510101,123.38297068494285,None,1,,,123.38416408273406,123.38420417269299,123.38421315283995,123.384639709966,,,,,,,,,,,,,,,,,,,,,,,,,,,,,,,,,,AK,001,2,24,m,2024-02-08_16h06.12.429,eye_track_exp,2023.1.3,120.12405418108136,
180,270,180,12,180,180,180,180,12,180,j,present,resp,freq_top,0,22,22,35,,,,,,,,,,,,123.38513073174181,123.89234564084472,123.89235846962765,1.0845195477847016,124.98202141894217,124.9820342477251,172.0678607486625,172.0678607486625,126.29873848135321,j,1,1.276602072222886,None,126.29923591752231,126.29927472459894,126.2992830633084,126.29975035183088,,,,,,,,,,,,,,,,,,,,,,,,,,,,,,,,,,AK,001,2,24,m,2024-02-08_16h06.12.429,eye_track_exp,2023.1.3,120.12405418108136,
0,180,0,12,0,180,180,180,0,12,j,abs,resp,freq_top,0,23,23,4,,,,,,,,,,,,126.30022758265841,126.65574242107323,126.65575492913922,0.8799880124625862,127.53814543224871,127.53815858175221,174.6240543581298,174.6240543581298,128.43879193890461,j,1,0.8639035627966223,None,128.43930027954048,128.43933876589654,128.439347104606,128.4397207429938,,,,,,,,,,,,,,,,,,,,,,,,,,,,,,,,,,AK,001,2,24,m,2024-02-08_16h06.12.429,eye_track_exp,2023.1.3,120.12405418108136,
12,0,0,12,0,0,90,180,180,0,j,present,resp,freq_top,0,24,24,38,,,,,,,,,,,,128.440186748634,128.65394254243438,128.6539547297798,0.9134471608417614,129.57005735750135,129.57006986556735,176.65567988074326,176.65567988074326,130.8701095065153,j,1,1.264514469574351,None,130.87065825782702,130.8706983477823,130.87070668649176,130.87116820205847,,,,,,,,,,,,,,,,,,,,,,,,,,,,,,,,,,AK,001,2,24,m,2024-02-08_16h06.12.429,eye_track_exp,2023.1.3,120.12405418108136,
0,180,0,12,0,12,0,180,180,180,j,abs,resp,freq_top,0,25,25,0,,,,,,,,,,,,130.87167076973856,131.1025299006942,131.10254272947714,0.7030317278672424,131.80989278983907,131.80990529790506,178.89548227895648,178.89548227895648,133.15895603190438,j,1,1.3119511498953216,None,133.15948746435242,133.15952659214963,133.15953493085908,133.16015327833156,,,,,,,,,,,,,,,,,,,,,,,,,,,,,,,,,,AK,001,2,24,m,2024-02-08_16h06.12.429,eye_track_exp,2023.1.3,120.12405418108136,
168,0,270,180,180,180,180,168,180,180,f,present,resp,freq_top,0,26,26,49,,,,,,,,,,,,133.16064814874335,133.45012136031437,133.45013386838036,1.0204293175419155,134.47394377399905,134.47395660278562,181.55993063475398,181.55993063475398,135.9743889328638,f,1,1.4638006759341806,None,135.9749306283411,135.97497007685888,135.97497841556833,135.9754287059477,,,,,,,,,,,,,,,,,,,,,,,,,,,,,,,,,,AK,001,2,24,m,2024-02-08_16h06.12.429,eye_track_exp,2023.1.3,120.12405418108136,
0,180,0,0,180,0,180,168,0,168,f,abs,resp,freq_top,0,27,27,14,,,,,,,,,,,,135.9759216520397,136.24752308219468,136.24753623169818,0.7201236146262254,136.97171541391435,136.9717285634215,184.05782927965265,184.05782927965265,138.97146012107987,f,1,1.9576973811163043,None,138.97199219496542,138.97203324708244,138.97204190651246,138.97252683461193,,,,,,,,,,,,,,,,,,,,,,,,,,,,,,,,,,AK,001,2,24,m,2024-02-08_16h06.12.429,eye_track_exp,2023.1.3,120.12405418108136,
90,0,180,168,180,180,0,168,0,0,f,present,resp,freq_top,0,28,28,46,,,,,,,,,,,,138.97301240415254,139.24575303048186,139.2457658592648,1.0279570261632713,140.27786380191537,140.2778759892608,187.3634032587688,187.3634032587688,141.4446684849354,f,1,1.1318965762402513,None,141.44519542730632,141.44524834604817,141.44525732619877,141.44563449249836,,,,,,,,,,,,,,,,,,,,,,,,,,,,,,,,,,AK,001,2,24,m,2024-02-08_16h06.12.429,eye_track_exp,2023.1.3,120.12405418108136,
0,0,0,0,168,0,0,12,0,0,None,abs,inhibit,freq_top,0,29,29,29,,,,,,,,,,,,141.44613096650937,141.8016249581451,141.8016374662111,0.7781344235238471,142.58400256832465,142.58401475567007,189.6698072603249,189.6698072603249,145.58936660436302,None,1,,,145.58974986433532,145.58979059573176,145.58979957588235,145.5905061212543,,,,,,,,,,,,,,,,,,,,,,,,,,,,,,,,,,AK,001,2,24,m,2024-02-08_16h06.12.429,eye_track_exp,2023.1.3,120.12405418108136,
180,270,0,0,0,0,0,168,0,168,f,present,resp,freq_top,0,30,30,43,,,,,,,,,,,,145.5910192726842,145.59185186088143,145.59186436894743,0.9140326726812793,146.50568571784243,146.50569886734593,193.5915256890039,193.5915256890039,147.68910720631538,f,1,1.1443456299275567,None,147.68964344955748,147.6896832187922,147.6896912367847,165.57375525499083,,,,,,,,,,,,,,,,,,,,,,,,,,,,,,,,,,AK,001,2,24,m,2024-02-08_16h06.12.429,eye_track_exp,2023.1.3,120.12405418108136,
0,180,0,-168,180,0,180,0,12,180,None,abs,inhibit,freq_top,0,31,31,24,,,,,,,,,,,,165.5742857252808,165.76602443627053,165.76603694433652,0.807514171964053,166.57213690366916,166.57214941173515,213.65809169246495,213.65809169246495,169.5860070660965,None,1,,,169.58639417470476,169.58644356553123,169.58645286639876,169.5875057889898,,,,,,,,,,,,,,,,,,,,,,,,,,,,,,,,,,AK,001,2,24,m,2024-02-08_16h06.12.429,eye_track_exp,2023.1.3,120.12405418108136,
180,270,180,12,180,0,12,180,0,180,j,present,resp,freq_top,0,32,32,33,,,,,,,,,,,,169.5880199025778,169.6030991780608,169.603109761807,0.8084541210298671,170.41081813015262,170.41083031750168,217.49657856284102,217.49657856284102,171.86828461174446,j,1,1.4144037571531953,None,171.8687919902186,171.8688330423356,171.86884138104506,171.86929263358252,,,,,,,,,,,,,,,,,,,,,,,,,,,,,,,,,,AK,001,2,24,m,2024-02-08_16h06.12.429,eye_track_exp,2023.1.3,120.12405418108136,
0,168,180,90,0,180,0,168,0,0,f,present,resp,freq_top,0,33,33,48,,,,,,,,,,,,171.86977820312313,172.09322678599347,172.09323929405946,0.9874424797955685,173.08358531206613,173.0835974994152,220.1693130313506,220.1693130313506,174.41679409927383,f,1,1.2854186552212923,None,174.41732938035784,174.41736754599333,174.4173768468645,174.41786241640511,,,,,,,,,,,,,,,,,,,,,,,,,,,,,,,,,,AK,001,2,24,m,2024-02-08_16h06.12.429,eye_track_exp,2023.1.3,120.12405418108136,
180,0,180,0,12,0,12,180,180,180,j,abs,resp,freq_top,0,34,34,7,,,,,,,,,,,,174.41833772291648,174.65782581588064,174.65783864466357,1.088368371465472,175.74792013311162,175.7479329618982,222.83375240700116,222.83375240700116,176.69791288484703,j,1,0.9087299059392535,None,176.69844944881334,176.6984879351694,176.69849595315827,176.6989709389527,,,,,,,,,,,,,,,,,,,,,,,,,,,,,,,,,,AK,001,2,24,m,2024-02-08_16h06.12.429,eye_track_exp,2023.1.3,120.12405418108136,
0,180,0,0,180,168,180,0,0,168,f,abs,resp,freq_top,0,35,35,16,,,,,,,,,,,,176.69944945265888,176.93140640695128,176.93141923573785,1.0709852270059546,178.0043624285936,178.0043749366596,225.0902036826301,225.0902036826301,179.03762554570494,f,1,0.988503144322749,None,179.0381463944068,179.038185522204,179.03819386091345,179.03868071333272,,,,,,,,,,,,,,,,,,,,,,,,,,,,,,,,,,AK,001,2,24,m,2024-02-08_16h06.12.429,eye_track_exp,2023.1.3,120.12405418108136,
0,180,0,180,168,180,12,180,0,180,None,abs,inhibit,freq_top,0,36,36,28,,,,,,,,,,,,179.03918360173338,179.26245643023503,179.26246893830466,0.9437525349332576,180.21101396156882,180.21102646963482,227.29671602328017,227.29671602328017,183.21626478357211,None,1,,,183.21663970483496,183.21667915335274,183.21668845422028,183.21813457909593,,,,,,,,,,,,,,,,,,,,,,,,,,,,,,,,,,AK,001,2,24,m,2024-02-08_16h06.12.429,eye_track_exp,2023.1.3,120.12405418108136,
0,270,0,0,12,0,180,180,180,12,j,present,resp,freq_top,0,37,37,42,,,,,,,,,,,,183.21862592158868,183.62540105991502,183.6254138887016,1.0477382355875442,184.67409913059237,184.67411195937893,231.75962864514077,231.75962864514077,187.4229451813153,j,1,2.7029834437962563,None,187.42346699217524,187.42350579925187,187.42351413796496,187.4240208750016,,,,,,,,,,,,,,,,,,,,,,,,,,,,,,,,,,AK,001,2,24,m,2024-02-08_16h06.12.429,eye_track_exp,2023.1.3,120.12405418108136,
0,0,168,0,0,0,0,0,168,0,f,abs,resp,freq_top,0,38,38,11,,,,,,,,,,,,187.42449072927775,187.78785325665012,187.7878660854367,0.7743653809727205,188.56209773738738,188.56211056617394,235.6480457910693,235.6480457910693,189.91216707697458,f,1,1.310298160849925,None,189.91267702120604,189.9127167904444,189.91272512915384,189.91318632399998,,,,,,,,,,,,,,,,,,,,,,,,,,,,,,,,,,AK,001,2,24,m,2024-02-08_16h06.12.429,eye_track_exp,2023.1.3,120.12405418108136,
180,168,0,180,0,180,180,180,168,180,f,abs,resp,freq_top,0,39,39,12,,,,,,,,,,,,189.913649122449,190.25245061879832,190.25246376830182,0.9943735534702125,191.25193939168457,191.25195189975057,238.33747179270722,238.33747179270722,192.38503804376523,f,1,1.0842084517171315,None,192.38555825102594,192.38559834098123,192.38560700041126,192.3859591505825,,,,,,,,,,,,,,,,,,,,,,,,,,,,,,,,,,AK,001,2,24,m,2024-02-08_16h06.12.429,eye_track_exp,2023.1.3,120.12405418108136,
180,0,180,12,180,180,12,180,180,180,j,abs,resp,freq_top,0,40,40,1,,,,,,,,,,,,192.3864421543658,192.70915442907426,192.70916725786083,0.9660010352668895,193.67490060898126,193.67491311704725,240.7604323685664,240.7604323685664,194.59117642531055,j,1,0.8700520790844166,None,194.5917008019278,194.591739929725,194.59174858915503,194.59221812271426,,,,,,,,,,,,,,,,,,,,,,,,,,,,,,,,,,AK,001,2,24,m,2024-02-08_16h06.12.429,eye_track_exp,2023.1.3,120.12405418108136,
0,0,0,-168,180,180,180,180,0,12,None,abs,inhibit,freq_top,0,41,41,25,,,,,,,,,,,,194.59268701483234,194.94888723112672,194.9488997391927,1.032845590274694,195.98084020849274,195.9808523958418,243.0668402187548,243.0668402187548,198.99475238519153,None,1,,,198.9953983145533,198.99544000810783,198.99544962969594,198.9960060782796,,,,,,,,,,,,,,,,,,,,,,,,,,,,,,,,,,AK,001,2,24,m,2024-02-08_16h06.12.429,eye_track_exp,2023.1.3,120.12405418108136,
180,270,0,0,168,0,0,168,180,0,f,present,resp,freq_top,0,42,42,45,,,,,,,,,,,,198.99648876134233,198.99724726329805,198.99725720561037,0.8239458050985887,199.8191747370438,199.81918692438921,246.9052998279658,246.9052998279658,200.93663702362028,f,1,1.0766981598244456,None,200.93717070110506,200.93721111178093,200.93721977121095,200.93757448713586,,,,,,,,,,,,,,,,,,,,,,,,,,,,,,,,,,AK,001,2,24,m,2024-02-08_16h06.12.429,eye_track_exp,2023.1.3,120.12405418108136,
12,0,0,-168,0,0,180,180,180,180,None,abs,inhibit,freq_top,0,43,43,27,,,,,,,,,,,,200.93809052504366,201.36878878302377,201.36880129108977,0.7889573894504828,202.15943582848922,202.1594486572758,249.24501152666562,249.24501152666562,205.1728989976873,None,1,,,205.1733297241699,205.1733784735552,205.17338777442274,205.1739230555104,,,,,,,,,,,,,,,,,,,,,,,,,,,,,,,,,,AK,001,2,24,m,2024-02-08_16h06.12.429,eye_track_exp,2023.1.3,120.12405418108136,
180,180,90,180,12,180,12,0,0,180,j,present,resp,freq_top,0,44,44,39,,,,,,,,,,,,205.1744272267897,205.17514916670552,205.17515942973478,1.0113131837337987,206.18925954814404,206.18927269765118,253.27497379720444,253.27497379720444,207.5890490919155,j,1,1.3631716805721226,None,207.58956512981968,207.5896039368963,207.5896122756094,207.589976933843,,,,,,,,,,,,,,,,,,,,,,,,,,,,,,,,,,AK,001,2,24,m,2024-02-08_16h06.12.429,eye_track_exp,2023.1.3,120.12405418108136,
180,0,90,180,12,0,180,180,12,180,j,present,resp,freq_top,0,45,45,41,,,,,,,,,,,,207.59047244569228,207.8136551519783,207.8136683014818,0.9673583822370961,208.78725511451557,208.78726762258157,255.87280258936153,255.87280258936153,209.75390668597902,j,1,0.9251295841932006,None,209.75442272388682,209.75446153096345,209.7544698696729,209.75494838338273,,,,,,,,,,,,,,,,,,,,,,,,,,,,,,,,,,AK,001,2,24,m,2024-02-08_16h06.12.429,eye_track_exp,2023.1.3,120.12405418108136,
180,12,180,-168,180,180,0,180,180,180,None,abs,inhibit,freq_top,0,46,46,26,,,,,,,,,,,,209.7554413294747,209.97853102705994,209.97854353512594,0.7420281728444689,210.71867306737477,210.7186862168819,257.8045178493303,257.8045178493303,213.73243001576702,None,1,,,213.73283316036031,213.73287357103254,213.7328828719037,213.73361282981205,,,,,,,,,,,,,,,,,,,,,,,,,,,,,,,,,,AK,001,2,24,m,2024-02-08_16h06.12.429,eye_track_exp,2023.1.3,120.12405418108136,
180,0,180,12,0,180,180,0,12,180,j,abs,resp,freq_top,0,47,47,3,,,,,,,,,,,,213.73409551287477,214.10833877487676,214.10835128294275,0.9436809851287631,215.05655538122664,215.05656788929264,262.14256052300334,262.14256052300334,215.87387507584936,j,1,0.7670410989267111,None,215.87438245432713,215.87442158212434,215.8744299208338,215.87487668329777,,,,,,,,,,,,,,,,,,,,,,,,,,,,,,,,,,AK,001,2,24,m,2024-02-08_16h06.12.429,eye_track_exp,2023.1.3,120.12405418108136,
0,180,180,180,12,0,180,12,0,0,j,abs,resp,freq_top,0,48,48,8,,,,,,,,,,,,215.8753754023419,216.13947808650846,216.13949059457445,0.9055765712937971,217.04705983473832,217.04707298424546,264.1325662574709,264.1325662574709,218.0132697752524,j,1,0.9202514384160168,None,218.01376432494362,218.01380345274083,218.01381179145028,218.01429511595416,,,,,,,,,,,,,,,,,,,,,,,,,,,,,,,,,,AK,001,2,24,m,2024-02-08_16h06.12.429,eye_track_exp,2023.1.3,120.12405418108136,
90,0,0,12,0,180,180,180,0,12,j,present,resp,freq_top,0,49,49,36,,,,,,,,,,,,218.01476208375607,218.20429713007252,218.20431027957966,0.7267456720678915,218.9368057221509,218.93681790949995,266.022629657331,266.022629657331,220.02035094426174,j,1,1.0468635357028688,None,220.0208778866363,220.02091765587465,220.02092631530468,220.02138269935676,,,,,,,,,,,,,,,,,,,,,,,,,,,,,,,,,,AK,001,2,24,m,2024-02-08_16h06.12.429,eye_track_exp,2023.1.3,120.12405418108136,
,,,,,,,,,,,,,,,,,,,,,,,,,,,,,,,,,,,,,,,,,,,,,,220.02143337306188,220.52418643048077,220.5242047114989,223.05839310478405,space,2.5209881955779565,None,,,,,,,,,,,,,,,,,,,,,,,,,,,AK,001,2,24,m,2024-02-08_16h06.12.429,eye_track_exp,2023.1.3,120.12405418108136,
0,0,0,-168,180,90,180,0,-168,180,f,present,resp,freq_bottom,,,,,0,0,0,540,,,,,,223.05841812091603,223.56003743439578,,,,0.9430196117842049,,,,,,,,,,,,,,,,,,,,,223.70995526602564,223.7116153108982,223.71162846040534,224.66540794897082,224.66544066237475,271.7512010950668,271.7512010950668,273.2332876200926,273.2332876200926,273.2332876200926,273.2332876200926,226.166920783533,f,1,1.4629562211157463,None,226.16851411871903,226.1685599816301,226.16856928249763,226.16914272922077,,,,,,,AK,001,2,24,m,2024-02-08_16h06.12.429,eye_track_exp,2023.1.3,120.12405418108136,
0,0,180,180,180,90,0,168,0,12,None,present,inhibit,freq_bottom,,,,,0,1,1,23,,,,,,,,,,,0.8841546396020338,,,,,,,,,,,,,,,,,,,,,226.1696353545958,226.3895194593424,226.38953292957012,227.27974706765963,227.27976085860428,274.3656758781617,274.3656758781617,275.8561023968032,275.8561023968032,275.8561023968032,275.8561023968032,230.31082672543926,None,1,,,230.31121543764675,230.31125392400645,230.31126258343647,230.31169459279408,277.3465148037758,277.3465148037758,,,,,AK,001,2,24,m,2024-02-08_16h06.12.429,eye_track_exp,2023.1.3,120.12405418108136,
90,0,0,180,180,12,0,168,0,0,None,present,inhibit,freq_bottom,,,,,0,2,2,55,,,,,,,,,,,0.7620710227258007,,,,,,,,,,,,,,,,,,,,,230.31218144521335,230.31287708612217,230.31290659232764,231.0766539191318,231.07666771007644,278.1625128127489,278.1625128127489,279.6529268233244,279.6529268233244,279.6529268233244,279.6529268233244,234.1079673815293,None,1,,,234.10836475316682,234.1084042016846,234.1084131818352,234.1090430752156,281.14334243749545,281.14334243749545,,,,,AK,001,2,24,m,2024-02-08_16h06.12.429,eye_track_exp,2023.1.3,120.12405418108136,
-168,0,12,0,0,0,270,180,180,180,None,present,inhibit,freq_bottom,,,,,0,3,3,237,,,,,,,,,,,0.9720805958291892,,,,,,,,,,,,,,,,,,,,,234.1095260789989,234.2833153944157,234.28332982679785,235.2569580126692,235.25697180361385,282.34234705201015,282.34234705201015,283.8327645904974,283.8327645904974,283.8327645904974,283.8327645904974,238.287763775872,None,1,,,238.28815152592142,238.28819225731422,238.28820091674424,238.2886310017857,285.3231962406535,285.3231962406535,,,,,AK,001,2,24,m,2024-02-08_16h06.12.429,eye_track_exp,2023.1.3,120.12405418108136,
0,-12,0,0,0,0,-12,0,90,0,j,present,resp,freq_bottom,,,,,0,4,4,675,,,,,,,,,,,1.0615365295810637,,,,,,,,,,,,,,,,,,,,,238.28910310110223,238.28981766447032,238.289827606779,239.35317550933541,239.35318930028006,286.43892247179974,286.43892247179974,,,,,240.53714157976356,j,1,1.141493470135174,None,240.53765408975232,240.5376935382701,240.53770283913764,240.53844113575906,,,,,,,AK,001,2,24,m,2024-02-08_16h06.12.429,eye_track_exp,2023.1.3,120.12405418108136,
-12,0,0,0,0,0,270,0,-168,0,None,present,inhibit,freq_bottom,,,,,0,5,5,279,,,,,,,,,,,0.9445626660085767,,,,,,,,,,,,,,,,,,,,,240.53891836658659,240.7690250892556,240.76903823876273,241.71807973603427,241.7180938476995,288.8036086091415,288.8036086091415,290.2940325620257,290.2940325620257,290.2940325620257,290.2940325620257,244.74922161342693,None,1,,,244.74960070404268,244.74964015256046,244.74964881199048,244.7502322010223,291.7844449689983,291.7844449689983,,,,,AK,001,2,24,m,2024-02-08_16h06.12.429,eye_track_exp,2023.1.3,120.12405418108136,
0,0,-12,180,180,180,180,-12,0,90,j,present,resp,freq_bottom,,,,,0,6,6,482,,,,,,,,,,,0.9282710697414571,,,,,,,,,,,,,,,,,,,,,244.75071424264752,244.9739299830544,244.97394409471963,245.90624851667235,245.90626262833757,292.9917773897796,292.9917773897796,294.4738748192758,294.4738748192758,294.4738748192758,294.4738748192758,247.40744159374663,j,1,1.453092167757859,None,247.40801760622708,247.4080580168993,247.40806667633296,247.40852498470122,,,,,,,AK,001,2,24,m,2024-02-08_16h06.12.429,eye_track_exp,2023.1.3,120.12405418108136,
0,0,168,0,180,180,180,168,0,0,f,abs,resp,freq_bottom,,,,,0,7,7,875,,,,,,,,,,,0.9825646776047815,,,,,,,,,,,,,,,,,,,,,247.4089778408379,247.92148879341403,247.92150354651676,248.90334856965637,248.90336236060102,295.9892805873533,295.9892805873533,,,,,250.1697065543558,f,1,1.2233693465022952,None,250.17023093097305,250.17027166236585,250.17028224611568,250.1707383094472,,,,,,,AK,001,2,24,m,2024-02-08_16h06.12.429,eye_track_exp,2023.1.3,120.12405418108136,
270,180,12,180,180,0,180,-12,180,180,j,present,resp,freq_bottom,,,,,0,8,8,450,,,,,,,,,,,1.0166001646998226,,,,,,,,,,,,,,,,,,,,,250.17123125553917,250.4694530575507,250.46946684849536,251.484735990005,251.48474978094964,298.5704412589148,298.5704412589148,,,,,252.63545113066357,j,1,1.1059465084399562,None,252.63598801535045,252.63602682242708,252.6360364440152,252.6365284279491,,,,,,,AK,001,2,24,m,2024-02-08_16h06.12.429,eye_track_exp,2023.1.3,120.12405418108136,
168,180,0,0,168,0,180,0,0,180,f,abs,resp,freq_bottom,,,,,0,9,9,917,,,,,,,,,,,0.7864895463044639,,,,,,,,,,,,,,,,,,,,,252.637007903817,253.05843672265473,253.05845083431996,253.8496193699284,253.84963348159,300.943462258354,300.943462258354,,,,,254.56639185269523,f,1,0.6686356528516626,None,254.566924247305,254.5669640165397,254.56697267596974,254.56752752095417,,,,,,,AK,001,2,24,m,2024-02-08_16h06.12.429,eye_track_exp,2023.1.3,120.12405418108136,
-168,180,0,12,180,180,0,0,180,180,None,abs,inhibit,freq_bottom,,,,,0,10,10,350,,,,,,,,,,,0.7475272656516733,,,,,,,,,,,,,,,,,,,,,254.5680207877631,254.79921603290495,254.79923014456654,255.54819133364072,255.5482057660265,302.63371122659737,302.63371122659737,,,,,256.41510903826565,j,0,0.8185817078046966,None,256.41562026537576,256.9210381823141,256.92105036966313,256.9216590955439,,,303.4830082732842,,,,AK,001,2,24,m,2024-02-08_16h06.12.429,eye_track_exp,2023.1.3,120.12405418108136,
180,180,12,180,180,270,180,12,180,180,j,present,resp,freq_bottom,,,,,0,11,11,451,,,,,,,,,,,1.006928747341508,,,,,,,,,,,,,,,,,,,,,256.9221924523117,256.9229727632046,256.92298591271174,257.92930216537206,257.92931563559614,305.01505458006795,305.01505458006795,,,,,259.0875850067423,j,1,1.109049470993341,None,259.0880962338524,259.08884960429714,259.0888601880433,259.08941888166373,,,,,,,AK,001,2,24,m,2024-02-08_16h06.12.429,eye_track_exp,2023.1.3,120.12405418108136,
168,180,0,180,180,0,180,168,0,180,f,abs,resp,freq_bottom,,,,,0,12,12,788,,,,,,,,,,,0.9872200625422226,,,,,,,,,,,,,,,,,,,,,259.08990541336243,259.3287049212522,259.32871935363437,260.31862053349687,260.3186346451621,307.4047302298786,307.4047302298786,,,,,261.41881302942784,j,0,1.0550935224746354,None,261.41933804748624,261.92517033420154,261.9251815593889,261.9262694404206,,,308.48716640346174,,,,AK,001,2,24,m,2024-02-08_16h06.12.429,eye_track_exp,2023.1.3,120.12405418108136,
180,12,0,0,180,180,-168,180,180,180,None,abs,inhibit,freq_bottom,,,,,0,13,13,394,,,,,,,,,,,0.9994355736626583,,,,,,,,,,,,,,,,,,,,,261.92678996840186,261.92765142136705,261.92766200511323,262.92518829450273,262.9252020854474,310.01921944535934,310.01921944535934,311.5096264001004,311.5096264001004,311.5096264001004,311.5096264001004,265.9651958249997,None,1,,,265.96558742368507,265.9664604225545,265.96647196846243,265.9669969865172,312.9833905710984,312.9833905710984,,,,,AK,001,2,24,m,2024-02-08_16h06.12.429,eye_track_exp,2023.1.3,120.12405418108136,
0,0,0,0,0,-12,0,0,-168,0,None,abs,inhibit,freq_bottom,,,,,0,14,14,407,,,,,,,,,,,0.855900593587834,,,,,,,,,,,,,,,,,,,,,265.96749474340686,266.27317231496636,266.273186105911,267.13017914116426,267.1301929321089,314.2157144286648,314.2157144286648,315.7061140068545,315.7061140068545,315.7061140068545,315.7061140068545,270.1611997865293,None,1,,,270.1615942716926,270.16163339948616,270.16164270035733,270.1622071669299,317.1965353939777,317.1965353939777,,,,,AK,001,2,24,m,2024-02-08_16h06.12.429,eye_track_exp,2023.1.3,120.12405418108136,
180,12,0,168,0,0,0,180,180,180,None,abs,inhibit,freq_bottom,,,,,0,15,15,370,,,,,,,,,,,1.0725763036665645,,,,,,,,,,,,,,,,,,,,,270.1627042823784,270.16369113672044,270.1637013997497,271.23464618850267,271.2346596587304,318.3205993736992,318.3205993736992,319.81103423105014,319.81103423105014,319.81103423105014,319.81103423105014,274.26615079981275,None,1,,,274.2665459264135,274.26658569564825,274.26659467579884,274.26714791718405,321.3014350921185,321.3014350921185,,,,,AK,001,2,24,m,2024-02-08_16h06.12.429,eye_track_exp,2023.1.3,120.12405418108136,
180,180,180,0,180,-12,0,90,180,-12,j,present,resp,freq_bottom,,,,,0,16,16,504,,,,,,,,,,,0.876356679353062,,,,,,,,,,,,,,,,,,,,,274.2676421461547,274.76564726997094,274.7656620230737,275.6474348201482,275.6474595155596,322.7335810785662,322.7335810785662,,,,,276.58993299525173,j,1,0.8943267074682808,None,276.59046827633574,276.5905077248535,276.5905167050041,276.59097373049735,,,,,,,AK,001,2,24,m,2024-02-08_16h06.12.429,eye_track_exp,2023.1.3,120.12405418108136,
180,12,0,0,180,180,12,180,180,270,j,present,resp,freq_bottom,,,,,0,17,17,530,,,,,,,,,,,0.8350281483265378,,,,,,,,,,,,,,,,,,,,,276.59145930003433,276.83856737101087,276.8386016880104,277.6792251926563,277.67923898360095,324.7652056390216,324.7652056390216,,,,,278.94660980093613,j,1,1.2299421748793975,None,278.94710851998025,278.9471473270569,278.9471563072075,278.94763610379596,,,,,,,AK,001,2,24,m,2024-02-08_16h06.12.429,eye_track_exp,2023.1.3,120.12405418108136,
180,0,0,168,0,168,0,90,180,180,f,present,resp,freq_bottom,,,,,0,18,18,616,,,,,,,,,,,1.0572652476095472,,,,,,,,,,,,,,,,,,,,,278.94810210943615,279.1787149277043,279.1787280772078,280.23565260674513,280.2356660769692,327.32140309712486,327.32140309712486,328.8118296157663,328.8118296157663,328.8118296157663,328.8118296157663,281.82716739127864,f,1,1.5535688212912646,None,281.8277575154243,281.8277979261002,281.8278072269677,281.82826425246094,,,,,,,AK,001,2,24,m,2024-02-08_16h06.12.429,eye_track_exp,2023.1.3,120.12405418108136,
180,180,0,168,0,168,0,180,0,0,f,abs,resp,freq_bottom,,,,,0,19,19,942,,,,,,,,,,,1.013535205655264,,,,,,,,,,,,,,,,,,,,,281.82873827609365,282.11826601000575,282.11828012166734,283.1331740211972,283.13318781214184,330.2189815996717,330.2189815996717,,,,,283.9757475012739,f,1,0.8005617539129162,None,283.9762657842184,283.9763042705745,283.9763154957618,283.9768472489304,,,,,,,AK,001,2,24,m,2024-02-08_16h06.12.429,eye_track_exp,2023.1.3,120.12405418108136,
180,180,180,180,12,0,-168,0,90,0,None,present,inhibit,freq_bottom,,,,,0,20,20,153,,,,,,,,,,,0.7721916790774644,,,,,,,,,,,,,,,,,,,,,283.9773199896845,284.1916447401345,284.19165853107916,284.96524842302097,284.9652618932487,332.0507901249148,332.0507901249148,333.5412095877218,333.5412095877218,333.5412095877218,333.5412095877218,287.99636881219703,None,1,,,287.9967552793678,287.9967931242827,287.99680178371636,287.9973277639292,335.0316207118194,335.0316207118194,,,,,AK,001,2,24,m,2024-02-08_16h06.12.429,eye_track_exp,2023.1.3,120.12405418108136,
-12,0,0,0,0,0,270,0,-168,0,None,present,inhibit,freq_bottom,,,,,0,21,21,282,,,,,,,,,,,0.8736394923029508,,,,,,,,,,,,,,,,,,,,,287.99781942714253,287.9985423292201,287.99855227152875,288.870215343999,288.87022913494366,335.9558603176156,335.9558603176156,,,,,290.1619775316649,j,0,1.2549653629066597,None,290.16256733509,290.6678258543652,290.66783707955256,290.6688078979132,,,337.2297988318096,,,,AK,001,2,24,m,2024-02-08_16h06.12.429,eye_track_exp,2023.1.3,120.12405418108136,
0,180,0,0,168,180,180,168,180,0,f,abs,resp,freq_bottom,,,,,0,22,22,919,,,,,,,,,,,0.7472735184134314,,,,,,,,,,,,,,,,,,,,,290.66936595009247,290.6700692882732,290.6700798720194,291.41806222474406,291.41807633640565,338.503727082978,338.503727082978,,,,,292.33476203243845,f,1,0.8671001754846657,None,292.335288974813,292.3360442695739,292.33606511634935,292.3366376009144,,,,,,,AK,001,2,24,m,2024-02-08_16h06.12.429,eye_track_exp,2023.1.3,120.12405418108136,
180,12,180,180,180,270,180,180,-168,180,None,present,inhibit,freq_bottom,,,,,0,23,23,16,,,,,,,,,,,0.7345375754423891,,,,,,,,,,,,,,,,,,,,,292.3371536388222,292.5516288067811,292.5516422770088,293.2917692435003,293.291791693875,340.3771608485986,340.3771608485986,341.86759442307084,341.86759442307084,341.86759442307084,341.86759442307084,296.322531709553,None,1,,,296.32293581630074,296.3229762269766,296.3229855278478,296.32344543981526,343.3580020192494,343.3580020192494,,,,,AK,001,2,24,m,2024-02-08_16h06.12.429,eye_track_exp,2023.1.3,120.12405418108136,
180,168,0,180,180,180,168,0,180,0,f,abs,resp,freq_bottom,,,,,0,24,24,800,,,,,,,,,,,0.9035185086584105,,,,,,,,,,,,,,,,,,,,,296.3239515354144,296.32481106405976,296.3248213270854,297.23000858245723,297.2300220526813,344.3238578852761,344.3238578852761,,,,,298.22203036060455,f,1,0.9347806797086378,None,298.2225887335044,298.22263170993756,298.22264069008816,298.22310669572835,,,,,,,AK,001,2,24,m,2024-02-08_16h06.12.429,eye_track_exp,2023.1.3,120.12405418108136,
0,0,12,0,0,0,270,0,0,-12,j,present,resp,freq_bottom,,,,,0,25,25,655,,,,,,,,,,,1.0357876452731656,,,,,,,,,,,,,,,,,,,,,298.2236028490188,298.56248484599564,298.5625092206901,299.60252412773843,299.6025375979625,346.6885501162942,346.6885501162942,348.1789638061455,348.1789638061455,348.1789638061455,348.1789638061455,301.377690677451,j,1,1.7384316238421889,None,301.37818907577457,301.3782407116378,301.37824969178837,301.3788978661869,,,,,,,AK,001,2,24,m,2024-02-08_16h06.12.429,eye_track_exp,2023.1.3,120.12405418108136,
180,180,180,12,0,180,-168,180,270,0,None,present,inhibit,freq_bottom,,,,,0,26,26,214,,,,,,,,,,,0.7877123247280862,,,,,,,,,,,,,,,,,,,,,301.3793879258046,301.64370100205633,301.6437141515635,302.4334041696129,302.43341796055756,349.51951130023735,349.51951130023735,351.0099339702392,351.0099339702392,351.0099339702392,351.0099339702392,305.4653965954967,None,1,,,305.4657987779319,305.46585105523263,305.46586035610017,305.46622693865356,352.500363054638,352.500363054638,,,,,AK,001,2,24,m,2024-02-08_16h06.12.429,eye_track_exp,2023.1.3,120.12405418108136,
0,180,180,12,180,180,-168,180,0,180,None,abs,inhibit,freq_bottom,,,,,0,27,27,396,,,,,,,,,,,0.8548239514433832,,,,,,,,,,,,,,,,,,,,,305.46672597841825,305.46734785380977,305.467358116839,306.32209007860365,306.3221038695483,353.40793389839746,353.40793389839746,354.8983482296935,354.8983482296935,354.8983482296935,354.8983482296935,309.353447800313,None,1,,,309.3538631322517,309.3539016186078,309.3539102780378,309.3545119480914,356.38878436991945,356.38878436991945,,,,,AK,001,2,24,m,2024-02-08_16h06.12.429,eye_track_exp,2023.1.3,120.12405418108136,
0,180,-168,0,0,270,0,0,12,180,None,present,inhibit,freq_bottom,,,,,0,28,28,287,,,,,,,,,,,0.8096213469088456,,,,,,,,,,,,,,,,,,,,,309.35498180236755,309.3622993417557,309.3623102462225,310.1774265968961,310.17744102927827,357.27136794625403,357.27136794625403,,,,,311.469272492388,j,0,1.2351724708241818,None,311.4698161121851,311.9750002245055,311.97501144969283,311.975810683045,,,358.5369783334645,,,,AK,001,2,24,m,2024-02-08_16h06.12.429,eye_track_exp,2023.1.3,120.12405418108136,
0,-168,0,0,168,180,180,180,0,0,f,abs,resp,freq_bottom,,,,,0,29,29,936,,,,,,,,,,,0.810531722814933,,,,,,,,,,,,,,,,,,,,,311.9763491713238,311.9772869555636,311.9772975393098,312.79190234215275,312.7919158123768,359.87752550683217,359.87752550683217,361.3679449696392,361.3679449696392,361.3679449696392,361.3679449696392,314.38306658011425,f,1,1.5573401635811024,None,314.38359223961015,314.38432091463983,314.3843311776691,314.3849180946163,,,,,,,AK,001,2,24,m,2024-02-08_16h06.12.429,eye_track_exp,2023.1.3,120.12405418108136,
0,0,-168,180,0,12,0,270,180,180,None,present,inhibit,freq_bottom,,,,,0,30,30,190,,,,,,,,,,,1.0686002877728284,,,,,,,,,,,,,,,,,,,,,314.38540879567154,314.64114454577793,314.641158016002,315.7138622727216,315.7138866474161,362.8000771651459,362.8000771651459,364.2904972693941,364.2904972693941,364.2904972693941,364.2904972693941,318.74542300996836,None,1,,,318.74581525009125,318.7458540571679,318.7458627165979,318.746468876725,365.7809128835652,365.7809128835652,,,,,AK,001,2,24,m,2024-02-08_16h06.12.429,eye_track_exp,2023.1.3,120.12405418108136,
-168,0,0,0,12,0,270,0,0,0,None,present,inhibit,freq_bottom,,,,,0,31,31,171,,,,,,,,,,,0.9961628358666813,,,,,,,,,,,,,,,,,,,,,318.74696182281696,318.74773507787904,318.7477450201877,319.74446117175466,319.7444749626993,366.8300391149678,366.8300391149678,368.32046114353216,368.32046114353216,368.32046114353216,368.32046114353216,322.7757024722341,None,1,,,322.7760799592579,322.7761200492132,322.77612902936016,322.7765754711072,369.8025521586351,369.8025521586351,,,,,AK,001,2,24,m,2024-02-08_16h06.12.429,eye_track_exp,2023.1.3,120.12405418108136,
180,-168,180,180,180,180,180,180,-168,180,f,abs,resp,freq_bottom,,,,,0,32,32,772,,,,,,,,,,,1.034134160810061,,,,,,,,,,,,,,,,,,,,,322.77706071992725,322.7778631604742,322.77787374422405,323.81569140099236,323.815705191937,370.9016400961118,370.9016400961118,,,,,324.76622456533005,f,1,0.91639799189943,None,324.7667406032342,324.766780051752,324.7667890319026,324.7673454804826,,,,,,,AK,001,2,24,m,2024-02-08_16h06.12.429,eye_track_exp,2023.1.3,120.12405418108136,
-168,0,180,0,180,180,180,180,-168,180,f,abs,resp,freq_bottom,,,,,0,33,33,870,,,,,,,,,,,0.8633785595372756,,,,,,,,,,,,,,,,,,,,,324.76783008786515,324.9654562493524,324.96547132317573,325.83049678189855,325.83051025212626,372.9166151377103,372.9166151377103,,,,,326.731280877284,f,1,0.8530247524868173,None,326.7318511168087,326.73188992388896,326.7318989040359,326.7323600988857,,,,,,,AK,001,2,24,m,2024-02-08_16h06.12.429,eye_track_exp,2023.1.3,120.12405418108136,
180,180,180,180,12,270,0,0,0,168,None,present,inhibit,freq_bottom,,,,,0,34,34,150,,,,,,,,,,,1.0978605644960353,,,,,,,,,,,,,,,,,,,,,326.73287292959503,326.96417593653314,326.9641897274778,328.0620983788249,328.0621118490526,375.14808620174153,375.14808620174153,376.63850149519567,376.63850149519567,376.63850149519567,376.63850149519567,331.0936658511855,None,1,,,331.09405584627166,331.09409497406523,331.0941036334989,331.09445963230246,378.12894661557584,378.12894661557584,,,,,AK,001,2,24,m,2024-02-08_16h06.12.429,eye_track_exp,2023.1.3,120.12405418108136,
0,0,12,0,0,0,-168,0,90,0,None,present,inhibit,freq_bottom,,,,,0,35,35,228,,,,,,,,,,,0.9380781237335735,,,,,,,,,,,,,,,,,,,,,331.09496508646043,331.0961738787955,331.0961838211042,332.0340979503453,332.03411174128996,379.12809414276126,379.12809414276126,,,,,333.42599233864894,j,0,1.345719400447706,None,333.4265519944274,333.93163283502145,333.93164438092936,333.93240993871586,,,380.4936141511789,,,,AK,001,2,24,m,2024-02-08_16h06.12.429,eye_track_exp,2023.1.3,120.12405418108136,
180,168,0,168,0,0,90,180,180,180,f,present,resp,freq_bottom,,,,,0,36,36,615,,,,,,,,,,,1.0069026365214082,,,,,,,,,,,,,,,,,,,,,333.93292244870827,333.93378807102636,333.9337983340556,334.9401286983775,334.94015082803526,382.0256723245875,382.0256723245875,,,,,335.72351882047224,f,1,0.735897297217889,None,335.724052497957,335.72480554768117,335.72481645214793,335.7255887450483,,,,,,,AK,001,2,24,m,2024-02-08_16h06.12.429,eye_track_exp,2023.1.3,120.12405418108136,
0,0,12,0,0,0,-168,0,90,0,None,present,inhibit,freq_bottom,,,,,0,37,37,230,,,,,,,,,,,0.7374046886402349,,,,,,,,,,,,,,,,,,,,,335.72609740640473,335.95651715144413,335.9565309423888,336.69658221904683,336.6965956892709,383.78253123488685,383.78253123488685,385.27295550848794,385.27295550848794,385.27295550848794,385.27295550848794,339.7278716274741,None,1,,,339.7282590568029,339.7282972224384,339.7283058818721,339.72885848181613,386.7633714433796,386.7633714433796,,,,,AK,001,2,24,m,2024-02-08_16h06.12.429,eye_track_exp,2023.1.3,120.12405418108136,
180,0,180,0,180,168,180,0,180,168,f,abs,resp,freq_bottom,,,,,0,38,38,867,,,,,,,,,,,0.7804546369661477,,,,,,,,,,,,,,,,,,,,,339.7293533522279,339.8947064581407,339.89472024908537,340.6769695714029,340.6769836830681,387.7625449488587,387.7625449488587,,,,,341.6602446834295,f,1,0.9346629756000766,None,341.6607934347412,341.66083480757516,341.66084378772575,341.6614570036836,,,,,,,AK,001,2,24,m,2024-02-08_16h06.12.429,eye_track_exp,2023.1.3,120.12405418108136,
180,-168,180,180,180,270,180,180,-168,180,f,present,resp,freq_bottom,,,,,0,39,39,442,,,,,,,,,,,0.8046548571003638,,,,,,,,,,,,,,,,,,,,,341.6619403281875,341.85086408286224,341.85087755308996,342.65838932029146,342.6584027905192,389.74421389690906,389.74421389690906,,,,,343.9666384219563,f,1,1.2585548571587424,None,343.96717723095935,343.967228546102,343.96723945056874,343.96782989543135,,,,,,,AK,001,2,24,m,2024-02-08_16h06.12.429,eye_track_exp,2023.1.3,120.12405418108136,
180,0,180,180,180,180,12,180,-168,180,None,abs,inhibit,freq_bottom,,,,,0,40,40,340,,,,,,,,,,,0.7018368945853539,,,,,,,,,,,,,,,,,,,,,343.96833791534664,344.1829468233991,344.1829602936268,344.889941526395,344.88995499661905,391.9756795087087,391.9756795087087,393.466100575115,393.466100575115,393.466100575115,393.466100575115,347.92146089080416,None,1,,,347.9218938623235,347.92193363156184,347.9219429324294,347.92254973399395,394.956520037922,394.956520037922,,,,,AK,001,2,24,m,2024-02-08_16h06.12.429,eye_track_exp,2023.1.3,120.12405418108136,
180,-12,0,0,180,180,180,-12,180,270,j,present,resp,freq_bottom,,,,,0,41,41,533,,,,,,,,,,,0.8916521086332144,,,,,,,,,,,,,,,,,,,,,347.92306833765906,347.9237893154168,347.92379957844605,348.8116695766621,348.81168336760675,395.8974027481818,395.8974027481818,,,,,350.180613908713,j,1,1.3281378703031805,None,350.18116394290337,350.1812037121381,350.1812123715681,355.99801314180877,,,,,,,AK,001,2,24,m,2024-02-08_16h06.12.429,eye_track_exp,2023.1.3,120.12405418108136,
180,180,168,0,0,0,-168,180,180,0,f,abs,resp,freq_bottom,,,,,0,42,42,964,,,,,,,,,,,1.0127903040745414,,,,,,,,,,,,,,,,,,,,,355.9985503472126,356.1809134608593,356.1809275725245,357.1959199329831,357.19593372392774,404.28206619140474,404.28206619140474,,,,,358.54733821939226,f,1,1.311383155403746,None,358.54786901039915,358.54790910035445,358.5479184012256,358.5483933870164,,,,,,,AK,001,2,24,m,2024-02-08_16h06.12.429,eye_track_exp,2023.1.3,120.12405418108136,
0,270,0,180,180,180,12,180,0,-12,j,present,resp,freq_bottom,,,,,0,43,43,455,,,,,,,,,,,0.7262521256267078,,,,,,,,,,,,,,,,,,,,,358.54889659613764,358.79564257463426,358.79565700702005,359.5280164644646,359.5280305761298,406.6217628162776,406.6217628162776,,,,,360.6533017445872,j,1,1.0669309637996776,None,360.65382034825234,360.6538767949096,360.6538854543396,360.65443933716233,,,,,,,AK,001,2,24,m,2024-02-08_16h06.12.429,eye_track_exp,2023.1.3,120.12405418108136,
0,0,0,-12,0,270,0,-12,0,0,j,present,resp,freq_bottom,,,,,0,44,44,714,,,,,,,,,,,0.7009606394758615,,,,,,,,,,,,,,,,,,,,,360.65493901836817,360.88500949971785,360.88502264922136,361.59259272325653,361.5926065142012,408.6867197692882,408.6867197692882,,,,,362.53488563778956,j,1,0.8901563899416942,None,362.53541161800604,362.5354520286819,362.53546100882886,362.53592027935883,,,,,,,AK,001,2,24,m,2024-02-08_16h06.12.429,eye_track_exp,2023.1.3,120.12405418108136,
0,0,168,0,0,0,168,0,0,0,f,abs,resp,freq_bottom,,,,,0,45,45,985,,,,,,,,,,,0.7270713453029833,,,,,,,,,,,,,,,,,,,,,362.53641739480736,362.80019454853755,362.80020769804105,363.53231314552977,363.53232725719135,410.6184257283858,410.6184257283858,,,,,364.54977087788575,f,1,0.9746663367368456,None,364.5502631825402,364.55030231033743,364.55031096976745,364.55078755915747,,,,,,,AK,001,2,24,m,2024-02-08_16h06.12.429,eye_track_exp,2023.1.3,120.12405418108136,
180,168,180,0,180,270,180,12,180,0,None,present,inhibit,freq_bottom,,,,,0,46,46,114,,,,,,,,,,,0.7286386705456376,,,,,,,,,,,,,,,,,,,,,364.55127441157674,364.890396948289,364.89041041851306,365.62271342930035,365.62272754096557,412.71667017320215,412.71667017320215,414.20711240710443,414.20711240710443,414.20711240710443,414.20711240710443,368.66239478791977,None,1,,,368.6627777271751,368.66281653425176,368.6628251936818,368.66317349521705,415.68086535291513,415.68086535291513,,,,,AK,001,2,24,m,2024-02-08_16h06.12.429,eye_track_exp,2023.1.3,120.12405418108136,
180,0,180,0,180,90,180,12,180,168,None,present,inhibit,freq_bottom,,,,,0,47,47,120,,,,,,,,,,,0.9096554748240767,,,,,,,,,,,,,,,,,,,,,368.66364142517705,368.66451634836267,368.66452629067135,369.5775362188688,369.577550330534,416.66338228370296,416.66338228370296,418.1537927663594,418.1537927663594,418.1537927663594,418.1537927663594,372.60932915713784,None,1,,,372.6097101720734,372.6097492998706,372.6097579593006,372.6102820151973,419.6442109462914,419.6442109462914,,,,,AK,001,2,24,m,2024-02-08_16h06.12.429,eye_track_exp,2023.1.3,120.12405418108136,
0,0,0,180,12,90,0,180,0,-12,j,present,resp,freq_bottom,,,,,0,48,48,569,,,,,,,,,,,0.8046852237752573,,,,,,,,,,,,,,,,,,,,,372.61076117034463,372.94150586852993,372.941519338754,373.74926426913953,373.7492777393636,420.84321075000844,420.84321075000844,,,,,375.1406131133299,j,1,1.3415272739875945,None,375.1411384521052,375.14117790061937,375.14118688076996,375.1416740539098,,,,,,,AK,001,2,24,m,2024-02-08_16h06.12.429,eye_track_exp,2023.1.3,120.12405418108136,
180,180,180,168,0,0,0,12,0,180,None,abs,inhibit,freq_bottom,,,,,0,49,49,374,,,,,,,,,,,0.7673996753536687,,,,,,,,,,,,,,,,,,,,,375.1421384559544,375.34785701548753,375.3478794658622,376.1221127214085,376.12212651235313,423.20790137742733,423.20790137742733,424.69833014110554,424.69833014110554,424.69833014110554,424.69833014110554,379.1534492756218,None,1,,,379.15386364540245,379.15390277319966,379.15391175335026,379.1546272788728,426.1887403030414,426.1887403030414,,,,,AK,001,2,24,m,2024-02-08_16h06.12.429,eye_track_exp,2023.1.3,120.12405418108136,
180,168,0,168,0,0,0,180,0,180,f,abs,resp,freq_bottom,,,,,0,50,50,948,,,,,,,,,,,0.9604559813961259,,,,,,,,,,,,,,,,,,,,,379.15514107174386,379.1558982908209,379.15590855385017,380.1185899368429,380.11860372778756,427.2045482535541,427.2045482535541,,,,,380.9279355789695,f,1,0.7717415660226834,None,380.9284923482701,380.92853211750844,380.9285410976554,380.92900036818537,,,,,,,AK,001,2,24,m,2024-02-08_16h06.12.429,eye_track_exp,2023.1.3,120.12405418108136,
180,180,12,0,0,0,90,0,-168,180,None,present,inhibit,freq_bottom,,,,,0,51,51,220,,,,,,,,,,,0.9983737502935033,,,,,,,,,,,,,,,,,,,,,380.92948369268925,381.15223310673537,381.15224689768,382.15038415799063,382.1503979489353,429.2445086382613,429.2445086382613,430.7349380433807,430.7349380433807,430.7349380433807,430.7349380433807,385.1899394737884,None,1,,,385.19030990497777,385.1903493534919,385.19036955882984,385.19089425616767,432.20870349725374,432.20870349725374,,,,,AK,001,2,24,m,2024-02-08_16h06.12.429,eye_track_exp,2023.1.3,120.12405418108136,
12,180,0,0,180,270,180,12,180,180,j,present,resp,freq_bottom,,,,,0,52,52,527,,,,,,,,,,,0.895673340569126,,,,,,,,,,,,,,,,,,,,,385.1913580167711,385.1921534014873,385.192163343796,386.0891700032189,386.0891834734466,433.17457347494565,433.17457347494565,,,,,387.37276859307894,j,1,1.2493864447096712,None,387.37330066696813,387.3733401154859,387.3733490956365,387.37382343998615,,,,,,,AK,001,2,24,m,2024-02-08_16h06.12.429,eye_track_exp,2023.1.3,120.12405418108136,
0,0,12,180,0,-12,0,0,0,90,j,present,resp,freq_bottom,,,,,0,53,53,602,,,,,,,,,,,0.9294941007202409,,,,,,,,,,,,,,,,,,,,,387.37431542392005,387.7552784038926,387.7552925155578,388.68675472772884,388.6867681979529,435.77239841846676,435.77239841846676,437.2711588370439,437.2711588370439,437.2711588370439,437.2711588370439,390.4032780113339,j,1,1.675372368965327,None,390.4037991807527,390.4038399121491,390.4038488922997,390.4045169513156,,,,,,,AK,001,2,24,m,2024-02-08_16h06.12.429,eye_track_exp,2023.1.3,120.12405418108136,
180,168,180,180,180,0,180,0,180,168,f,abs,resp,freq_bottom,,,,,0,54,54,752,,,,,,,,,,,0.9430744805916698,,,,,,,,,,,,,,,,,,,,,390.40501631180086,390.6859057828333,390.68591957377794,391.6344492024982,391.63446299344287,438.72825873608235,438.72825873608235,,,,,392.6264924688621,f,1,0.9442794333917846,None,392.62703673009673,392.6270761786145,392.6270851587615,392.627548598648,,,,,,,AK,001,2,24,m,2024-02-08_16h06.12.429,eye_track_exp,2023.1.3,120.12405418108136,
0,0,180,180,180,90,0,168,0,12,None,present,inhibit,freq_bottom,,,,,0,55,55,22,,,,,,,,,,,0.8205190082194684,,,,,,,,,,,,,,,,,,,,,392.62803192315187,392.891679506145,392.8916936178066,393.7157981364908,393.7158119274354,440.80152168642235,440.80152168642235,442.29194211138747,442.29194211138747,442.29194211138747,442.29194211138747,396.7470278910623,None,1,,,396.74741018888017,396.7474486752362,396.7474570139457,396.74799197431275,443.78236221563566,443.78236221563566,,,,,AK,001,2,24,m,2024-02-08_16h06.12.429,eye_track_exp,2023.1.3,120.12405418108136,
270,0,180,180,180,-12,180,180,-12,0,j,present,resp,freq_bottom,,,,,0,56,56,434,,,,,,,,,,,0.803319051006876,,,,,,,,,,,,,,,,,,,,,396.74847145018066,396.7493389968149,396.7493489391236,397.5539860961617,397.5540002078269,444.6399864271443,444.6399864271443,,,,,398.73027991127674,j,1,1.127669491339475,None,398.73082705898923,398.7308665075034,398.730875487654,398.73133411674644,,,,,,,AK,001,2,24,m,2024-02-08_16h06.12.429,eye_track_exp,2023.1.3,120.12405418108136,
180,168,0,0,0,0,168,0,270,180,f,present,resp,freq_bottom,,,,,0,57,57,659,,,,,,,,,,,1.0769132604776677,,,,,,,,,,,,,,,,,,,,,398.7318126304526,398.93692631273734,398.936940103682,400.01907512151956,400.0190889124642,447.1045914865608,447.1045914865608,448.5950064592944,448.5950064592944,448.5950064592944,448.5950064592944,403.0500505454147,None,0,,,403.0504171279681,403.5488170576682,403.5488269999769,403.5490742748225,450.08541854555006,450.08541854555006,450.1103734202952,450.60998438736715,,,AK,001,2,24,m,2024-02-08_16h06.12.429,eye_track_exp,2023.1.3,120.12405418108136,
180,180,0,270,0,168,180,180,12,180,None,present,inhibit,freq_bottom,,,,,0,58,58,179,,,,,,,,,,,0.9630640064477587,,,,,,,,,,,,,,,,,,,,,403.5496342513179,403.55037832089147,403.5503889046413,404.5148862022579,404.51490095536064,451.60915725140876,451.60915725140876,453.0995686962233,453.0995686962233,453.0995686962233,453.0995686962233,407.55431707883326,None,1,,,407.5546859064234,407.555447294857,407.55545787860683,407.55598866961736,454.57335339327983,454.57335339327983,,,,,AK,001,2,24,m,2024-02-08_16h06.12.429,eye_track_exp,2023.1.3,120.12405418108136,
-168,180,0,12,180,90,180,180,0,180,None,present,inhibit,freq_bottom,,,,,0,59,59,91,,,,,,,,,,,0.9991195917158986,,,,,,,,,,,,,,,,,,,,,407.5564889922607,407.55751529512054,407.5575255581498,408.5532939831719,408.553307453396,455.6391182390689,455.6391182390689,457.1295354568392,457.1295354568392,457.1295354568392,457.1295354568392,411.5844336155242,None,1,,,411.58480372599297,411.5848611348083,411.5848704356795,411.5853951330173,458.6116267926627,458.6116267926627,,,,,AK,001,2,24,m,2024-02-08_16h06.12.429,eye_track_exp,2023.1.3,120.12405418108136,
180,180,180,12,0,270,0,168,0,180,None,present,inhibit,freq_bottom,,,,,0,60,60,207,,,,,,,,,,,1.09235651746805,,,,,,,,,,,,,,,,,,,,,411.5858758917602,411.586579229941,411.58658917224966,412.6835430412175,412.68355619072463,459.7773419910518,459.7773419910518,461.2677441349988,461.2677441349988,461.2677441349988,461.2677441349988,415.7231746882935,None,1,,,415.7235573068283,415.7236153570848,415.72362433723174,415.72416442911344,462.7415124753534,462.7415124753534,,,,,AK,001,2,24,m,2024-02-08_16h06.12.429,eye_track_exp,2023.1.3,120.12405418108136,
180,180,180,12,180,168,0,0,90,0,None,present,inhibit,freq_bottom,,,,,0,61,61,84,,,,,,,,,,,1.066628403324232,,,,,,,,,,,,,,,,,,,,,415.72467405262796,415.72539438894455,415.7254040105363,416.7876835959614,416.7877060463361,463.8738972055071,463.8738972055071,465.3643291763801,465.3643291763801,465.3643291763801,465.3643291763801,418.39619139008937,j,0,1.5732991730437789,None,418.3966881848173,418.90227768676414,418.902296929944,418.903061846293,,,465.4642343075102,,,,AK,001,2,24,m,2024-02-08_16h06.12.429,eye_track_exp,2023.1.3,120.12405418108136,
-168,0,0,0,0,90,0,12,180,180,None,present,inhibit,freq_bottom,,,,,0,62,62,271,,,,,,,,,,,1.0810446078345721,,,,,,,,,,,,,,,,,,,,,418.90358814723004,418.9043508185423,418.9043610815679,419.98567281208307,419.9856869237483,467.07122894635904,467.07122894635904,468.561647447008,468.561647447008,468.561647447008,468.561647447008,423.01697761505056,None,1,,,423.0173467633613,423.01809660588697,423.01810654819565,423.018651771592,470.0520797386016,470.0520797386016,,,,,AK,001,2,24,m,2024-02-08_16h06.12.429,eye_track_exp,2023.1.3,120.12405418108136,
-12,0,0,0,0,0,270,0,-168,0,None,present,inhibit,freq_bottom,,,,,0,63,63,281,,,,,,,,,,,1.03696353197737,,,,,,,,,,,,,,,,,,,,,423.01917037525345,423.02021912848795,423.0202293915172,424.0653556075267,424.0653690777508,471.1511333590752,471.1511333590752,472.64156532995185,472.64156532995185,472.64156532995185,472.64156532995185,427.09703757679745,None,1,,,427.0974429664275,427.0974824149416,427.0974913950922,427.09794200619217,474.13198318915966,474.13198318915966,,,,,AK,001,2,24,m,2024-02-08_16h06.12.429,eye_track_exp,2023.1.3,120.12405418108136,
0,0,-12,180,180,180,90,0,0,-12,j,present,resp,freq_bottom,,,,,0,64,64,481,,,,,,,,,,,1.0336203469019685,,,,,,,,,,,,,,,,,,,,,427.0984442531517,427.0991488742111,427.09915913724035,428.1370698027058,428.13708359365046,475.2227288879876,475.2227288879876,,,,,428.9620325671567,j,1,0.7845665031272802,None,428.9625803563067,428.96265027318805,428.96265925333864,428.9633946634822,,,,,,,AK,001,2,24,m,2024-02-08_16h06.12.429,eye_track_exp,2023.1.3,120.12405418108136,
-168,180,180,0,-168,180,90,0,180,180,f,present,resp,freq_bottom,,,,,0,65,65,722,,,,,,,,,,,0.8326367702883632,,,,,,,,,,,,,,,,,,,,,428.96389947620264,429.17044805817204,429.1704618491167,430.00215748104165,430.00217095126936,477.0878483175693,477.0878483175693,,,,,431.0690400347921,f,1,1.031187721684546,None,431.06956569428803,431.0696057842433,431.0696147643939,431.0701324058973,,,,,,,AK,001,2,24,m,2024-02-08_16h06.12.429,eye_track_exp,2023.1.3,120.12405418108136,
0,-168,0,180,-168,90,0,180,0,0,f,present,resp,freq_bottom,,,,,0,66,66,720,,,,,,,,,,,0.8509774933175124,,,,,,,,,,,,,,,,,,,,,431.07061508896004,431.29394917491663,431.2939725874494,432.1501163570865,432.15013014803117,479.2443854819212,479.2443854819212,,,,,432.92525660778847,f,1,0.7308267196531233,None,432.9257704006559,432.9258217157985,432.9258306959491,432.92629670159295,,,,,,,AK,001,2,24,m,2024-02-08_16h06.12.429,eye_track_exp,2023.1.3,120.12405418108136,
0,180,180,0,12,90,180,168,180,0,None,present,inhibit,freq_bottom,,,,,0,67,67,161,,,,,,,,,,,0.7618969956357647,,,,,,,,,,,,,,,,,,,,,432.9268271718829,433.2751806613742,433.2751947730394,434.04020958387264,434.0402233748173,481.126144808768,481.126144808768,482.61656427157504,482.61656427157504,482.61656427157504,482.61656427157504,437.07201182300923,None,1,,,437.0724460774072,437.07248520520443,437.072494185355,437.07283735537203,484.106974112794,484.106974112794,,,,,AK,001,2,24,m,2024-02-08_16h06.12.429,eye_track_exp,2023.1.3,120.12405418108136,
180,180,180,168,0,180,0,168,0,270,f,present,resp,freq_bottom,,,,,0,68,68,614,,,,,,,,,,,0.9444332404122605,,,,,,,,,,,,,,,,,,,,,437.0733181141186,437.07406635304505,437.0740766160743,438.0201835286098,438.0201973195544,485.10614088315924,485.10614088315924,486.5965699675544,486.5965699675544,486.5965699675544,486.5965699675544,441.051937339078,None,0,,,441.0523234855318,441.55832479150195,441.5583360166893,441.5592795738812,488.08697884661524,488.08697884661524,488.12029937254556,,,,AK,001,2,24,m,2024-02-08_16h06.12.429,eye_track_exp,2023.1.3,120.12405418108136,
0,180,0,180,90,168,0,12,180,180,None,present,inhibit,freq_bottom,,,,,0,69,69,1,,,,,,,,,,,0.9129642809960717,,,,,,,,,,,,,,,,,,,,,441.5597885559546,441.56079914354996,441.5608100480167,442.4752446128732,442.4752580830973,489.5607487905654,489.5607487905654,491.0594954181979,491.0594954181979,491.0594954181979,491.0594954181979,445.50641022351556,None,1,,,445.5068101609104,445.50753274226736,445.5075430052966,445.5081122826632,492.5332858882066,492.5332858882066,,,,,AK,001,2,24,m,2024-02-08_16h06.12.429,eye_track_exp,2023.1.3,120.12405418108136,
0,180,180,168,180,180,0,180,168,180,f,abs,resp,freq_bottom,,,,,0,70,70,832,,,,,,,,,,,1.023064457222838,,,,,,,,,,,,,,,,,,,,,445.5085911170936,445.75571907268386,445.75573254290794,446.7799366129693,446.77995072463455,493.8654792770212,493.8654792770212,,,,,447.9045746808515,f,1,1.0852504698414123,None,447.9050855872447,447.9051253564794,447.90513433663,447.90570040680177,,,,,,,AK,001,2,24,m,2024-02-08_16h06.12.429,eye_track_exp,2023.1.3,120.12405418108136,
12,180,180,180,0,270,0,12,0,0,j,present,resp,freq_bottom,,,,,0,71,71,594,,,,,,,,,,,0.9500994428174216,,,,,,,,,,,,,,,,,,,,,447.9061734682764,448.1369687760198,448.13698224624386,449.0862729426808,449.0862864129049,496.17189257944483,496.17189257944483,497.6706324719671,497.6706324719671,497.6706324719671,497.6706324719671,450.76876241986974,j,1,1.6426843021727109,None,450.7692909658399,450.7693300936371,450.76933875306713,450.7698907115737,,,,,,,AK,001,2,24,m,2024-02-08_16h06.12.429,eye_track_exp,2023.1.3,120.12405418108136,
0,0,0,180,168,0,0,180,0,168,f,abs,resp,freq_bottom,,,,,0,72,72,901,,,,,,,,,,,0.9430857707106327,,,,,,,,,,,,,,,,,,,,,450.77038910990086,451.0017559400476,451.0017690895547,451.95067845033554,451.9506919205596,499.03616370556847,499.03616370556847,,,,,452.6510079576947,f,1,0.6661914484466251,None,452.65152431632305,452.6515631233997,452.6515721035503,452.6520307326391,,,,,,,AK,001,2,24,m,2024-02-08_16h06.12.429,eye_track_exp,2023.1.3,120.12405418108136,
180,168,0,180,180,180,168,0,180,0,f,abs,resp,freq_bottom,,,,,0,73,73,801,,,,,,,,,,,1.086523472900835,,,,,,,,,,,,,,,,,,,,,452.6525111706651,452.84156513751805,452.84157924918327,453.9319837023104,453.93199749325504,501.01782752210784,501.01782752210784,,,,,455.2493729930975,f,1,1.2767922589700902,None,455.249886465248,455.24992463088347,455.2499332903135,455.2503781284613,,,,,,,AK,001,2,24,m,2024-02-08_16h06.12.429,eye_track_exp,2023.1.3,120.12405418108136,
0,12,0,0,180,180,180,270,180,12,j,present,resp,freq_bottom,,,,,0,74,74,531,,,,,,,,,,,1.026512756167863,,,,,,,,,,,,,,,,,,,,,455.25085792504615,455.5059794970366,455.5059936086982,456.5379000817193,456.5379138726639,503.62399534571523,503.62399534571523,,,,,457.80518173899327,j,1,1.2303475645057915,None,457.805739149735,457.80577891896974,457.80578789912033,457.80631003070084,,,,,,,AK,001,2,24,m,2024-02-08_16h06.12.429,eye_track_exp,2023.1.3,120.12405418108136,
0,-12,0,-12,0,0,270,180,180,180,j,present,resp,freq_bottom,,,,,0,75,75,716,,,,,,,,,,,0.718482688642676,,,,,,,,,,,,,,,,,,,,,457.8068039389509,458.0791366098929,458.07915040083753,458.80265671324014,458.8026705041848,505.88876833393806,505.88876833393806,,,,,459.7030787161457,j,1,0.8532425211269583,None,459.70360116844677,459.7036406169609,459.7036495971115,459.7041069433253,,,,,,,AK,001,2,24,m,2024-02-08_16h06.12.429,eye_track_exp,2023.1.3,120.12405418108136,
180,180,0,270,0,168,180,180,12,180,None,present,inhibit,freq_bottom,,,,,0,76,76,180,,,,,,,,,,,0.8515673752867269,,,,,,,,,,,,,,,,,,,,,459.70459860653864,460.06916703977186,460.06918115143344,460.9258650129523,460.92587848317635,508.0119881795581,508.0119881795581,509.5024079630857,509.5024079630857,509.5024079630857,509.5024079630857,463.957560773164,None,1,,,463.95797001143,463.9580101013853,463.9580190815359,463.9586640487396,510.9928235772568,510.9928235772568,,,,,AK,001,2,24,m,2024-02-08_16h06.12.429,eye_track_exp,2023.1.3,120.12405418108136,
0,0,180,0,-168,180,270,0,12,180,None,present,inhibit,freq_bottom,,,,,0,77,77,315,,,,,,,,,,,1.0357899717481602,,,,,,,,,,,,,,,,,,,,,463.95917848304816,463.95992126974306,463.9599315327723,464.9978614414176,464.99787555308285,512.0835846706286,512.0835846706286,513.5740236973324,513.5740236973324,513.5740236973324,513.5740236973324,468.0291178157204,None,1,,,468.0295001135346,468.0295517493978,468.02956105026897,468.03013096907307,515.06441750257,515.06441750257,,,,,AK,001,2,24,m,2024-02-08_16h06.12.429,eye_track_exp,2023.1.3,120.12405418108136,
0,168,180,180,180,168,0,180,0,180,f,abs,resp,freq_bottom,,,,,0,78,78,761,,,,,,,,,,,0.8952240665808039,,,,,,,,,,,,,,,,,,,,,468.03063385747373,468.03156843451507,468.0315786975443,468.92790639348095,468.9279201844256,516.0136353956477,516.0136353956477,517.5040465197417,517.5040465197417,517.5040465197417,517.5040465197417,470.4533959078726,f,1,1.4800204304701765,None,470.4539023241923,470.45394177270646,470.45395075285705,470.4544228521736,,,,,,,AK,001,2,24,m,2024-02-08_16h06.12.429,eye_track_exp,2023.1.3,120.12405418108136,
12,180,180,180,0,90,0,0,12,0,j,present,resp,freq_bottom,,,,,0,79,79,593,,,,,,,,,,,0.7355905021524217,,,,,,,,,,,,,,,,,,,,,470.454894310049,470.7101326239863,470.7101457734934,471.45058127228185,471.4505947425059,518.5365238737286,518.5365238737286,520.0352640869678,520.0352640869678,520.0352640869678,520.0352640869678,473.2173058395347,j,1,1.725846264311258,None,473.21780167210454,473.2178401584606,473.2178488178906,473.2183270108799,,,,,,,AK,001,2,24,m,2024-02-08_16h06.12.429,eye_track_exp,2023.1.3,120.12405418108136,
180,180,180,12,180,168,0,0,90,0,None,present,inhibit,freq_bottom,,,,,0,80,80,81,,,,,,,,,,,0.9428551247990887,,,,,,,,,,,,,,,,,,,,,473.21879173364505,473.4325914660367,473.4326132749702,474.38184592115067,474.3818597120953,521.4674062247832,521.4674062247832,522.9578337055827,522.9578337055827,522.9578337055827,522.9578337055827,477.41282262792447,None,1,,,477.41321005725695,477.41324822289243,477.41325688232246,477.41381204802747,524.4482400188826,524.4482400188826,,,,,AK,001,2,24,m,2024-02-08_16h06.12.429,eye_track_exp,2023.1.3,120.12405418108136,
12,180,0,0,-168,180,270,0,180,180,None,present,inhibit,freq_bottom,,,,,0,81,81,326,,,,,,,,,,,0.7312239305470861,,,,,,,,,,,,,,,,,,,,,477.41430659771504,477.41506734471113,477.4150772870198,478.1449838806293,478.14499767157395,525.239253005464,525.239253005464,526.7296660538777,526.7296660538777,526.7296660538777,526.7296660538777,481.18512867913523,None,1,,,481.1855295786918,481.1855683857684,481.18557672447787,481.18600648879874,528.2034299041552,528.2034299041552,,,,,AK,001,2,24,m,2024-02-08_16h06.12.429,eye_track_exp,2023.1.3,120.12405418108136,
0,0,0,0,168,0,0,0,0,168,f,abs,resp,freq_bottom,,,,,0,82,82,935,,,,,,,,,,,0.7175906667926031,,,,,,,,,,,,,,,,,,,,,481.1864891718651,481.1871963586782,481.1872063009869,481.90870362554415,481.9087170957682,528.9944406456998,528.9944406456998,,,,,482.65878605049147,f,1,0.7069016756831843,None,482.65930305055736,482.659341857634,482.65935019634344,490.23576838653753,,,,,,,AK,001,2,24,m,2024-02-08_16h06.12.429,eye_track_exp,2023.1.3,120.12405418108136,
180,180,168,0,168,180,180,0,0,180,f,abs,resp,freq_bottom,,,,,0,83,83,911,,,,,,,,,,,1.0031678401611432,,,,,,,,,,,,,,,,,,,,,490.2363190621654,490.50173220679426,490.50174663918006,491.5090981748508,491.5091116450749,538.6030667853775,538.6030667853775,,,,,492.2839449670755,f,1,0.7298542976932367,None,492.28446677793545,492.28450654717017,492.2845152066002,492.28497383569265,,,,,,,AK,001,2,24,m,2024-02-08_16h06.12.429,eye_track_exp,2023.1.3,120.12405418108136,
0,168,0,0,0,270,0,168,0,0,f,present,resp,freq_bottom,,,,,0,84,84,660,,,,,,,,,,,1.0668457488513647,,,,,,,,,,,,,,,,,,,,,492.2854622917075,492.5420736064407,492.54208932170513,493.61576279318615,493.6157769048514,540.7013214932194,540.7013214932194,,,,,494.7653095521855,f,1,1.1118358832572994,None,494.7658262315308,494.76586600076917,494.7658746601992,494.7667069276722,,,,,,,AK,001,2,24,m,2024-02-08_16h06.12.429,eye_track_exp,2023.1.3,120.12405418108136,
0,168,180,180,180,270,180,180,180,12,None,present,inhibit,freq_bottom,,,,,0,85,85,12,,,,,,,,,,,0.9697130213680683,,,,,,,,,,,,,,,,,,,,,494.76720660887804,495.0315302688796,495.0315440598242,496.00514017372916,496.0051539646738,543.0993146862675,543.0993146862675,544.5897293382768,544.5897293382768,544.5897293382768,544.5897293382768,499.04531511987807,None,1,,,499.0456999834496,499.0457391112468,499.0457477706768,499.0462881832791,546.0634954335947,546.0634954335947,,,,,AK,001,2,24,m,2024-02-08_16h06.12.429,eye_track_exp,2023.1.3,120.12405418108136,
0,180,180,0,180,168,0,168,180,0,f,abs,resp,freq_bottom,,,,,0,86,86,845,,,,,,,,,,,1.0725737074827233,,,,,,,,,,,,,,,,,,,,,499.0467638105074,499.0475351412533,499.0475447628414,500.1185347730643,500.11854888472953,547.2042163087208,547.2042163087208,,,,,501.08595767527004,f,1,0.9286238247113943,None,501.08659815240026,501.086637921635,501.08664690178557,501.08712124613885,,,,,,,AK,001,2,24,m,2024-02-08_16h06.12.429,eye_track_exp,2023.1.3,120.12405418108136,
0,0,0,0,180,180,-168,180,90,12,None,present,inhibit,freq_bottom,,,,,0,87,87,135,,,,,,,,,,,0.802819002560581,,,,,,,,,,,,,,,,,,,,,501.08760873999563,501.30102360881574,501.3010370790398,502.1087191483748,502.1087326185989,549.1942201188722,549.1942201188722,550.6846315636867,550.6846315636867,550.6846315636867,550.6846315636867,505.1397404351774,None,1,,,505.1401628229505,505.14020163002715,505.1402099687366,505.1407545506918,552.1750580823282,552.1750580823282,,,,,AK,001,2,24,m,2024-02-08_16h06.12.429,eye_track_exp,2023.1.3,120.12405418108136,
0,0,0,0,168,0,0,0,0,168,f,abs,resp,freq_bottom,,,,,0,88,88,933,,,,,,,,,,,0.9198443467996262,,,,,,,,,,,,,,,,,,,,,505.1412859831398,505.14210157319394,505.1421115155026,506.0639896625653,506.0640127543775,553.1575679572852,553.1575679572852,,,,,506.82282484730604,f,1,0.7033535542650498,None,506.82335307255926,506.8233918796359,506.8234008597865,506.82378540263744,,,,,,,AK,001,2,24,m,2024-02-08_16h06.12.429,eye_track_exp,2023.1.3,120.12405418108136,
180,0,180,90,0,0,168,0,168,0,f,present,resp,freq_bottom,,,,,0,89,89,589,,,,,,,,,,,1.0613702363506525,,,,,,,,,,,,,,,,,,,,,506.8242841216852,507.06318593913966,507.0631997300843,508.1280803518166,508.12809446348183,555.2141817094889,555.2141817094889,,,,,509.1623011377851,f,1,0.9980461573140929,None,509.1628999213608,509.16293936987495,509.16294802930497,509.16340569623935,,,,,,,AK,001,2,24,m,2024-02-08_16h06.12.429,eye_track_exp,2023.1.3,120.12405418108136,
0,0,0,180,180,180,168,180,180,-168,f,abs,resp,freq_bottom,,,,,0,90,90,805,,,,,,,,,,,0.890373165693169,,,,,,,,,,,,,,,,,,,,,509.16389319009613,509.4277922172878,509.4278053667949,510.31839153967303,510.31840565133825,557.404018873709,557.404018873709,,,,,511.41903272238415,f,1,1.0643799597564794,None,511.41966774727916,511.41970591291465,511.4197145723447,511.4201616555292,,,,,,,AK,001,2,24,m,2024-02-08_16h06.12.429,eye_track_exp,2023.1.3,120.12405418108136,
180,168,180,180,180,180,180,180,180,168,f,abs,resp,freq_bottom,,,,,0,91,91,758,,,,,,,,,,,0.7128818877429808,,,,,,,,,,,,,,,,,,,,,511.4206510737058,511.64216283064525,511.64217630087296,512.3582502562567,512.3582637264808,559.4439824656147,559.4439824656147,,,,,513.5997697874409,f,1,1.2006697722899844,None,513.6003480449581,513.6003862105936,513.6003948700272,513.600857347752,,,,,,,AK,001,2,24,m,2024-02-08_16h06.12.429,eye_track_exp,2023.1.3,120.12405418108136,
0,0,180,0,-168,180,270,0,12,180,None,present,inhibit,freq_bottom,,,,,0,92,92,317,,,,,,,,,,,0.741511155584246,,,,,,,,,,,,,,,,,,,,,513.6013432380132,513.8161468228864,513.8161782534116,514.556712533853,514.5567260040771,561.6421336451567,561.6421336451567,,,,,515.6734038104078,f,0,1.0827421215108188,None,515.673932035661,516.1792402664796,516.179251491667,516.1802319316193,,,562.7412209411959,,,,AK,001,2,24,m,2024-02-08_16h06.12.429,eye_track_exp,2023.1.3,120.12405418108136,
180,168,180,0,0,180,180,90,180,168,f,present,resp,freq_bottom,,,,,0,93,93,636,,,,,,,,,,,0.7742764318718315,,,,,,,,,,,,,,,,,,,,,516.1807861351626,516.1816087810475,516.1816196855143,516.9543933459645,516.9544068161922,564.0401377426715,564.0401377426715,,,,,517.6883057279265,f,1,0.684428850257973,None,517.6888140685587,517.6895494787022,517.6895597417315,517.6901335091752,,,,,,,AK,001,2,24,m,2024-02-08_16h06.12.429,eye_track_exp,2023.1.3,120.12405418108136,
180,0,180,0,12,270,180,-12,180,0,j,present,resp,freq_bottom,,,,,0,94,94,578,,,,,,,,,,,1.0682427288688054,,,,,,,,,,,,,,,,,,,,,517.6906290210245,517.9210397859133,517.9210529354204,518.9946151171862,518.9946289081308,566.0800978066618,566.0800978066618,567.5788412270995,567.5788412270995,567.5788412270995,567.5788412270995,522.0258493618312,None,0,,,522.0262374326012,522.5247348610719,522.52474448266,522.5252727079132,569.0525999458623,569.0525999458623,569.0858774953595,569.5854929525085,,,AK,001,2,24,m,2024-02-08_16h06.12.429,eye_track_exp,2023.1.3,120.12405418108136,
-168,180,0,12,180,90,180,180,0,180,None,present,inhibit,freq_bottom,,,,,0,95,95,92,,,,,,,,,,,1.0409924056670423,,,,,,,,,,,,,,,,,,,,,522.5257996502878,522.5337243119611,522.5337435551373,523.5735586538503,523.573572444795,570.6595968297515,570.6595968297515,572.1500185375953,572.1500185375953,572.1500185375953,572.1500185375953,526.605027344558,None,1,,,526.6053980964643,526.6061341480454,526.606146976832,526.6067688522235,573.6404421697589,573.6404421697589,,,,,AK,001,2,24,m,2024-02-08_16h06.12.429,eye_track_exp,2023.1.3,120.12405418108136,
180,180,180,0,-12,0,270,0,-168,0,None,present,inhibit,freq_bottom,,,,,0,96,96,333,,,,,,,,,,,0.9312695893458326,,,,,,,,,,,,,,,,,,,,,526.6072582703964,526.6080106786831,526.6080206209917,527.5372118173655,527.5372259290307,574.6229552519144,574.6229552519144,576.1216935408338,576.1216935408338,576.1216935408338,576.1216935408338,530.5680932704054,None,1,,,530.5684653051903,530.5685047537081,530.5685137338587,530.5689678728704,577.5954570703943,577.5954570703943,,,,,AK,001,2,24,m,2024-02-08_16h06.12.429,eye_track_exp,2023.1.3,120.12405418108136,
-168,0,180,180,180,90,180,180,12,180,None,present,inhibit,freq_bottom,,,,,0,97,97,26,,,,,,,,,,,1.0132239470531264,,,,,,,,,,,,,,,,,,,,,530.5694457451427,530.5702805783731,530.5702905206817,531.583860168801,531.5838742804663,578.6695779457768,578.6695779457768,580.1683088581485,580.1683088581485,580.1683088581485,580.1683088581485,534.6155097453884,None,1,,,534.6159523384958,534.6159949942084,534.616003974359,534.6164520197017,581.6420845750545,581.6420845750545,,,,,AK,001,2,24,m,2024-02-08_16h06.12.429,eye_track_exp,2023.1.3,120.12405418108136,
168,0,0,180,180,0,90,168,0,0,f,present,resp,freq_bottom,,,,,0,98,98,469,,,,,,,,,,,0.9395443425770126,,,,,,,,,,,,,,,,,,,,,534.6169308541284,534.6815686910923,534.6815808784377,535.6220238820679,535.622037031575,582.7078516658803,582.7078516658803,,,,,536.6722588412777,f,1,1.007703987943387,None,536.6727508252116,536.6727905944463,536.6727998953174,536.6732553172114,,,,,,,AK,001,2,24,m,2024-02-08_16h06.12.429,eye_track_exp,2023.1.3,120.12405418108136,
180,180,0,168,0,90,0,12,0,0,None,present,inhibit,freq_bottom,,,,,0,99,99,194,,,,,,,,,,,1.0209975990881126,,,,,,,,,,,,,,,,,,,,,536.6737325480426,536.9130933153065,536.9131067855305,537.937089879757,537.937103349981,585.0225805872251,585.0225805872251,586.5213288184568,586.5213288184568,586.5213288184568,586.5213288184568,540.9686239972689,None,1,,,540.9690188031527,540.9690582516669,540.9690672318175,540.9695935327545,587.9950971588078,587.9950971588078,,,,,AK,001,2,24,m,2024-02-08_16h06.12.429,eye_track_exp,2023.1.3,120.12405418108136,
12,0,0,0,0,12,0,270,0,0,j,present,resp,freq_bottom,,,,,0,100,100,667,,,,,,,,,,,1.0655614760012677,,,,,,,,,,,,,,,,,,,,,540.9700858374053,540.9709177841614,540.9709277264701,542.0331396400506,542.0331534309953,589.1191566484558,589.1191566484558,,,,,543.3499930083126,j,1,1.26810749174183,None,543.3505266857974,543.3505651721571,543.3505738315871,543.3511241864944,,,,,,,AK,001,2,24,m,2024-02-08_16h06.12.429,eye_track_exp,2023.1.3,120.12405418108136,
180,12,180,180,180,168,0,180,0,180,None,abs,inhibit,freq_bottom,,,,,0,101,101,402,,,,,,,,,,,0.738039036149414,,,,,,,,,,,,,,,,,,,,,543.3516164911489,543.5749733481971,543.5749874598623,544.3151875504336,544.3152013413783,591.400587494245,591.400587494245,592.8909989390595,592.8909989390595,592.8909989390595,592.8909989390595,547.3458230115066,None,1,,,547.3462187795449,547.3462575866251,547.3462662460552,547.3470529713413,594.3814228919437,594.3814228919437,,,,,AK,001,2,24,m,2024-02-08_16h06.12.429,eye_track_exp,2023.1.3,120.12405418108136,
180,180,0,168,0,90,0,12,0,0,None,present,inhibit,freq_bottom,,,,,0,102,102,191,,,,,,,,,,,1.0445086882626065,,,,,,,,,,,,,,,,,,,,,547.3475221841763,547.3482505384891,547.3482604807978,548.395114734245,548.3951285251896,595.4805101879792,595.4805101879792,596.9709187463195,596.9709187463195,596.9709187463195,596.9709187463195,551.4260924031769,None,1,,,551.426490095535,551.4265301854903,551.4265388449239,551.4269958704135,598.4613410956044,598.4613410956044,,,,,AK,001,2,24,m,2024-02-08_16h06.12.429,eye_track_exp,2023.1.3,120.12405418108136,
0,0,180,0,0,0,168,0,-168,180,f,abs,resp,freq_bottom,,,,,0,103,103,960,,,,,,,,,,,0.9465119339618462,,,,,,,,,,,,,,,,,,,,,551.4274721390866,551.4283056894383,551.4283159524675,552.3747737322919,552.3747878439572,599.4688318236003,599.4688318236003,,,,,553.5160375857777,f,1,1.0944208066102874,None,553.5165533029649,553.5165921100415,553.5166007694716,553.5171373334342,,,,,,,AK,001,2,24,m,2024-02-08_16h06.12.429,eye_track_exp,2023.1.3,120.12405418108136,
-168,180,180,180,180,270,0,-168,0,0,f,present,resp,freq_bottom,,,,,0,104,104,424,,,,,,,,,,,0.9946938863795861,,,,,,,,,,,,,,,,,,,,,553.5176152057029,553.9657525943003,553.9657663852449,554.9644097411547,554.9644318708088,602.0500059653859,602.0500059653859,,,,,556.0226909147823,f,1,1.009570576268743,None,556.0232220265134,556.0232614750275,556.0232704551781,556.0238217722472,,,,,,,AK,001,2,24,m,2024-02-08_16h06.12.429,eye_track_exp,2023.1.3,120.12405418108136,
180,0,180,12,180,180,12,0,270,180,j,present,resp,freq_bottom,,,,,0,105,105,497,,,,,,,,,,,0.8076817206387796,,,,,,,,,,,,,,,,,,,,,556.024310228262,556.230979080101,556.2309922296045,557.0373753843814,557.0373885338886,604.1232400509543,604.1232400509543,,,,,558.3537935360873,j,1,1.271505195647478,None,558.3543140640686,558.3543531918658,558.3543615305789,558.3548050858444,,,,,,,AK,001,2,24,m,2024-02-08_16h06.12.429,eye_track_exp,2023.1.3,120.12405418108136,
12,0,12,0,0,0,0,0,270,0,j,present,resp,freq_bottom,,,,,0,106,106,652,,,,,,,,,,,1.069410564417863,,,,,,,,,,,,,,,,,,,,,558.3552868067491,558.5863271443013,558.5863406145254,559.660415947721,559.6604294179451,606.7460881825064,606.7460881825064,,,,,561.0098922766847,j,1,1.3050098146486562,None,561.010391316453,561.0104317271253,561.0104403865589,561.0110077396057,,,,,,,AK,001,2,24,m,2024-02-08_16h06.12.429,eye_track_exp,2023.1.3,120.12405418108136,
0,180,0,0,-168,180,12,180,270,180,None,present,inhibit,freq_bottom,,,,,0,107,107,329,,,,,,,,,,,0.9401132598719135,,,,,,,,,,,,,,,,,,,,,561.0114718209297,561.268531822443,561.2685459341083,562.2081165803065,562.2081300505342,609.2939559100305,609.2939559100305,610.7843734485177,610.7843734485177,610.7843734485177,610.7843734485177,565.2398142648417,None,1,,,565.2401965626559,565.2402433877251,565.2402520471551,565.2405997072492,612.2747893834094,612.2747893834094,,,,,AK,001,2,24,m,2024-02-08_16h06.12.429,eye_track_exp,2023.1.3,120.12405418108136,
0,180,0,180,180,180,180,12,180,168,None,abs,inhibit,freq_bottom,,,,,0,108,108,412,,,,,,,,,,,0.8536024079317222,,,,,,,,,,,,,,,,,,,,,565.2410743723194,565.2417937464816,565.2418036887902,566.0964269265969,566.0964407175416,613.1823634343673,613.1823634343673,614.6727867458103,614.6727867458103,614.6727867458103,614.6727867458103,569.1275113951706,None,1,,,569.1278843921136,569.127936669418,569.1279459702855,569.1283924120289,616.1632074914996,616.1632074914996,,,,,AK,001,2,24,m,2024-02-08_16h06.12.429,eye_track_exp,2023.1.3,120.12405418108136,
180,12,0,180,180,180,-168,180,270,0,None,present,inhibit,freq_bottom,,,,,0,109,109,53,,,,,,,,,,,0.9339088052643436,,,,,,,,,,,,,,,,,,,,,569.1288597005514,569.129747131803,569.1297570741153,570.0684880762856,570.0685018672302,617.1623707339495,617.1623707339495,618.6528126471312,618.6528126471312,618.6528126471312,618.6528126471312,573.1081854708864,None,1,,,573.1086752097835,573.1087191483748,573.1087287699629,573.1093528903912,620.1265748938094,620.1265748938094,,,,,AK,001,2,24,m,2024-02-08_16h06.12.429,eye_track_exp,2023.1.3,120.12405418108136,
180,180,180,0,180,-12,0,90,180,12,j,present,resp,freq_bottom,,,,,0,110,110,505,,,,,,,,,,,0.8258269907995922,,,,,,,,,,,,,,,,,,,,,573.1098904165119,573.3073283155682,573.3073427479503,574.1395069512764,574.1395207422211,621.2256368529961,621.2256368529961,622.7160636923545,622.7160636923545,622.7160636923545,622.7160636923545,577.1712761562922,None,0,,,577.1716603784225,577.6778085739898,577.6778197991771,577.6783871522275,624.2064748164521,624.2064748164521,624.239779627118,,,,AK,001,2,24,m,2024-02-08_16h06.12.429,eye_track_exp,2023.1.3,120.12405418108136,
180,180,0,-168,180,180,-168,0,270,180,f,present,resp,freq_bottom,,,,,0,111,111,537,,,,,,,,,,,0.8521716275392476,,,,,,,,,,,,,,,,,,,,,577.6789112081242,577.9702484422633,577.9702622332079,578.8277395551231,578.8277530253472,625.9217190701202,625.9217190701202,,,,,579.8035406165764,f,1,0.9288322924767272,None,579.804051202249,579.80476993497,579.8047801979992,579.8053344015425,,,,,,,AK,001,2,24,m,2024-02-08_16h06.12.429,eye_track_exp,2023.1.3,120.12405418108136,
0,12,0,180,-168,0,0,180,0,0,None,abs,inhibit,freq_bottom,,,,,0,112,112,378,,,,,,,,,,,1.0986057984069082,,,,,,,,,,,,,,,,,,,,,579.8058193296456,580.0186075122801,580.0186209825042,581.1170318808145,581.1170456717591,628.2031345213654,628.2031345213654,629.6935591156871,629.6935591156871,629.6935591156871,629.6935591156871,584.148298838867,None,1,,,584.1486987762619,584.1487375833385,584.1487465634891,584.1493825505422,631.1839708812222,631.1839708812222,,,,,AK,001,2,24,m,2024-02-08_16h06.12.429,eye_track_exp,2023.1.3,120.12405418108136,
180,0,0,168,180,168,0,270,180,180,f,present,resp,freq_bottom,,,,,0,113,113,491,,,,,,,,,,,0.9274099213448302,,,,,,,,,,,,,,,,,,,,,584.1498982677294,584.1508597852226,584.1508700482482,585.0806497651683,585.0806632353961,632.1664977543223,632.1664977543223,,,,,586.298109229414,f,1,1.1797190822944685,None,586.2986355303474,586.2986740167071,586.2986826761371,586.2991355322738,,,,,,,AK,001,2,24,m,2024-02-08_16h06.12.429,eye_track_exp,2023.1.3,120.12405418108136,
0,0,0,168,0,0,0,180,0,168,f,abs,resp,freq_bottom,,,,,0,114,114,954,,,,,,,,,,,0.8886187670390933,,,,,,,,,,,,,,,,,,,,,586.2996172531784,586.5131732386399,586.513186388147,587.403785389808,587.4037988600357,634.4895429360222,634.4895429360222,,,,,588.678788372501,f,1,1.2404447810440615,None,588.6793028068096,588.6793412931693,588.6793499525993,588.67980761953,,,,,,,AK,001,2,24,m,2024-02-08_16h06.12.429,eye_track_exp,2023.1.3,120.12405418108136,
0,0,0,180,180,168,0,168,0,270,f,present,resp,freq_bottom,,,,,0,115,115,473,,,,,,,,,,,0.9563763514478579,,,,,,,,,,,,,,,,,,,,,588.6802854917987,588.8860088621259,588.88602233235,589.8434666842841,589.8434801545118,636.9374920621885,636.9374920621885,638.4195898124053,638.4195898124053,638.4195898124053,638.4195898124053,591.4187774295497,f,1,1.5287598739851092,None,591.4193111070344,591.4193505555522,591.4193595356992,591.4197857721083,,,,,,,AK,001,2,24,m,2024-02-08_16h06.12.429,eye_track_exp,2023.1.3,120.12405418108136,
180,180,180,12,180,-12,0,270,0,180,j,present,resp,freq_bottom,,,,,0,116,116,493,,,,,,,,,,,0.9195823392811524,,,,,,,,,,,,,,,,,,,,,591.4202893019465,591.6674198232977,591.6674345764004,592.5912954122978,592.5913092032424,639.6851941059431,639.6851941059431,641.1756183795442,641.1756183795442,641.1756183795442,641.1756183795442,594.4908056092572,j,1,1.8530953108092945,None,594.4912799536105,594.4913187606871,594.4913274201172,594.4918056131064,,,,,,,AK,001,2,24,m,2024-02-08_16h06.12.429,eye_track_exp,2023.1.3,120.12405418108136,
180,180,168,180,180,180,180,-168,0,0,f,abs,resp,freq_bottom,,,,,0,117,117,776,,,,,,,,,,,0.7873576570607765,,,,,,,,,,,,,,,,,,,,,594.4922809196178,594.6896165091093,594.6896296586128,595.4800996668382,595.480114419941,642.574458272451,642.574458272451,,,,,596.7644035191915,f,1,1.2358437370385218,None,596.7649141048641,596.7649535533819,596.7649650992898,596.7655032668517,,,,,,,AK,001,2,24,m,2024-02-08_16h06.12.429,eye_track_exp,2023.1.3,120.12405418108136,
0,180,0,180,180,12,180,180,0,168,None,abs,inhibit,freq_bottom,,,,,0,118,118,348,,,,,,,,,,,0.898886541772886,,,,,,,,,,,,,,,,,,,,,596.7659808183998,597.0714479978742,597.07146243026,597.9695832697253,597.9696076444161,645.0556881553093,645.0556881553093,646.5461438594393,646.5461438594393,646.5461438594393,646.5461438594393,601.0012511273308,None,1,,,601.0016494611264,601.001688268203,601.001696927633,601.0022341330368,648.0365585114487,648.0365585114487,,,,,AK,001,2,24,m,2024-02-08_16h06.12.429,eye_track_exp,2023.1.3,120.12405418108136,
180,180,12,0,0,0,90,0,-168,180,None,present,inhibit,freq_bottom,,,,,0,119,119,222,,,,,,,,,,,0.9118189070454746,,,,,,,,,,,,,,,,,,,,,601.0027213061767,601.1674252755292,601.1674384250364,602.0832392555712,602.0832524050784,649.1689419587237,649.1689419587237,650.6593534035419,650.6593534035419,650.6593534035419,650.6593534035419,605.1147105120363,None,1,,,605.115100827843,605.1151402763571,605.1151492565077,605.1157082708451,652.1497719041909,652.1497719041909,,,,,AK,001,2,24,m,2024-02-08_16h06.12.429,eye_track_exp,2023.1.3,120.12405418108136,
180,180,180,12,0,270,0,168,0,180,None,present,inhibit,freq_bottom,,,,,0,120,120,211,,,,,,,,,,,1.067671750234073,,,,,,,,,,,,,,,,,,,,,605.1162018583782,605.1169712648043,605.1169815278336,606.1880299090299,606.1880433792576,653.2738342803132,653.2738342803132,654.7642540638371,654.7642540638371,654.7642540638371,654.7642540638371,609.2194036667242,None,1,,,609.2197731357519,609.2198122635491,609.2198209229791,609.2202718547996,656.2546709608905,656.2546709608905,,,,,AK,001,2,24,m,2024-02-08_16h06.12.429,eye_track_exp,2023.1.3,120.12405418108136,
0,0,0,0,0,0,12,0,270,168,None,present,inhibit,freq_bottom,,,,,0,121,121,267,,,,,,,,,,,0.8097958963217824,,,,,,,,,,,,,,,,,,,,,609.2207349739656,609.40222957882,609.4022427283235,610.2181348998129,610.2181486907575,657.3121057553799,657.3121057553799,658.8025412541683,658.8025412541683,658.8025412541683,658.8025412541683,613.2577351163636,None,1,,,613.2581058682736,613.258144033909,613.2581530140596,613.2588053578147,660.2763035008466,660.2763035008466,,,,,AK,001,2,24,m,2024-02-08_16h06.12.429,eye_track_exp,2023.1.3,120.12405418108136,
180,180,0,-168,0,-168,0,90,0,180,f,present,resp,freq_bottom,,,,,0,122,122,699,,,,,,,,,,,0.9331101795346347,,,,,,,,,,,,,,,,,,,,,613.259279702168,613.4320183400341,613.432031168817,614.3641880597352,614.3642018506798,661.4503263001643,661.4503263001643,662.9407524980852,662.9407524980852,662.9407524980852,662.9407524980852,615.9389779562989,f,1,1.5270039339338837,None,615.9395212553754,615.9395600624521,615.9395687218821,615.9400344068054,,,,,,,AK,001,2,24,m,2024-02-08_16h06.12.429,eye_track_exp,2023.1.3,120.12405418108136,
180,180,0,0,168,180,180,0,168,180,f,abs,resp,freq_bottom,,,,,0,123,123,914,,,,,,,,,,,0.8382041121588665,,,,,,,,,,,,,,,,,,,,,615.9405283150554,616.1553819321962,616.1553957231408,616.9957665007059,616.99577997093,664.0814653552225,664.0814653552225,,,,,618.1797688124534,j,0,1.1360854955055402,None,618.1802989620228,618.6851639582965,618.6851755042044,618.6863041166289,,,665.2471507266855,,,,AK,001,2,24,m,2024-02-08_16h06.12.429,eye_track_exp,2023.1.3,120.12405418108136,
168,0,0,0,0,-168,0,0,180,180,f,abs,resp,freq_bottom,,,,,0,124,124,1006,,,,,,,,,,,0.7457964946120847,,,,,,,,,,,,,,,,,,,,,618.6868355490806,618.6878865473518,618.687897131098,619.4352544012363,619.4352675507398,666.5210918066405,666.5210918066405,,,,,620.768843882659,j,0,1.2877573428631877,None,620.7693640899197,621.2669618997897,621.2669712006609,623.3985525281059,,,667.8283229441549,668.327900877106,,,AK,001,2,24,m,2024-02-08_16h06.12.429,eye_track_exp,2023.1.3,120.12405418108136,
-168,0,0,0,12,0,180,180,180,180,None,abs,inhibit,freq_bottom,,,,,0,125,125,351,,,,,,,,,,,1.0465903529720597,,,,,,,,,,,,,,,,,,,,,623.3991028830133,623.4001128291711,623.4001240543585,624.4479096776522,624.4479241100344,671.5335572170261,671.5335572170261,673.0239750762339,673.0239750762339,673.0239750762339,673.0239750762339,627.4790063335713,None,1,,,627.4793921593046,627.4801185892975,627.4801291730437,627.48068305587,674.5143938976034,674.5143938976034,,,,,AK,001,2,24,m,2024-02-08_16h06.12.429,eye_track_exp,2023.1.3,120.12405418108136,
0,180,0,0,0,0,168,0,168,180,f,abs,resp,freq_bottom,,,,,0,126,126,990,,,,,,,,,,,0.8755416847110058,,,,,,,,,,,,,,,,,,,,,627.4811570795027,627.6623104386563,627.6623335304685,628.5442682909634,628.5443006836467,675.6301297503378,675.6301297503378,677.1205565896998,677.1205565896998,677.1205565896998,677.1205565896998,630.2694808318702,f,1,1.6832146056876809,None,630.2700334318142,630.2700719181739,630.270080577604,630.2705417724501,,,,,,,AK,001,2,24,m,2024-02-08_16h06.12.429,eye_track_exp,2023.1.3,120.12405418108136,
180,180,180,168,180,180,12,0,180,180,None,abs,inhibit,freq_bottom,,,,,0,127,127,375,,,,,,,,,,,0.7028118160488207,,,,,,,,,,,,,,,,,,,,,630.2710161168034,630.4929772019641,630.4929922757874,631.2006534342036,631.2006669044276,678.2862416404423,678.2862416404423,679.7766562924553,679.7766562924553,679.7766562924553,679.7766562924553,634.2321804958847,None,1,,,634.2325663216143,634.2326182781981,634.2326272583487,634.2330672856988,681.2670789624608,681.2670789624608,,,,,AK,001,2,24,m,2024-02-08_16h06.12.429,eye_track_exp,2023.1.3,120.12405418108136,
0,-168,0,180,168,0,0,0,180,0,f,abs,resp,freq_bottom,,,,,0,128,128,903,,,,,,,,,,,1.030343090367854,,,,,,,,,,,,,,,,,,,,,634.2335515723607,634.2343896127895,634.2343998758188,635.2642126910032,635.2642261612309,682.3495151360439,682.3495151360439,,,,,636.2972166666441,f,1,0.995914333845576,None,636.2977278937578,636.2977663801139,636.2977750395439,636.2982355929526,,,,,,,AK,001,2,24,m,2024-02-08_16h06.12.429,eye_track_exp,2023.1.3,120.12405418108136,
180,0,180,-12,180,90,180,180,-168,0,None,present,inhibit,freq_bottom,,,,,0,129,129,142,,,,,,,,,,,0.866369411857807,,,,,,,,,,,,,,,,,,,,,636.2987211624932,636.5134282107574,636.5134420017021,637.3784979287921,637.3785113990161,684.4644074961179,684.4644074961179,685.9548259967632,685.9548259967632,685.9548259967632,685.9548259967632,640.4100766263364,None,1,,,640.4104701493416,640.4105089564182,640.410519860885,640.4111343597215,687.445241610938,687.445241610938,,,,,AK,001,2,24,m,2024-02-08_16h06.12.429,eye_track_exp,2023.1.3,120.12405418108136,
180,180,180,270,0,0,12,0,-12,180,j,present,resp,freq_bottom,,,,,0,130,130,591,,,,,,,,,,,1.0892912501831482,,,,,,,,,,,,,,,,,,,,,640.411618967104,640.4123412277404,640.4123511700491,641.5001279671378,641.5001523418323,688.5859605617479,688.5859605617479,690.0763742515992,690.0763742515992,690.0763742515992,690.0763742515992,643.0416881014316,j,1,1.494685015451978,None,643.0422214581959,643.0422609067136,643.0422698868642,643.0427291573942,,,,,,,AK,001,2,24,m,2024-02-08_16h06.12.429,eye_track_exp,2023.1.3,120.12405418108136,
180,180,0,0,0,168,180,180,12,180,None,abs,inhibit,freq_bottom,,,,,0,131,131,399,,,,,,,,,,,0.9692201419687663,,,,,,,,,,,,,,,,,,,,,643.0432365358683,643.2823590084372,643.2823724786613,644.2563515318216,644.2563656434868,691.3419849595302,691.3419849595302,692.832405384499,692.832405384499,692.832405384499,692.832405384499,647.2872900729562,None,1,,,647.2876835959614,647.2877230444756,647.2877320246262,647.2882570426846,694.3144989653592,694.3144989653592,,,,,AK,001,2,24,m,2024-02-08_16h06.12.429,eye_track_exp,2023.1.3,120.12405418108136,
0,0,12,0,0,0,90,0,0,168,None,present,inhibit,freq_bottom,,,,,0,132,132,227,,,,,,,,,,,1.0373707158767507,,,,,,,,,,,,,,,,,,,,,647.2887483851773,647.2894921340303,647.2895030384971,648.3278152449602,648.3278287151843,695.4219179162974,695.4219179162974,696.9123386619831,696.9123386619831,696.9123386619831,696.9123386619831,651.3681499094928,None,1,,,651.3685745423027,651.3686136700962,651.3686223295299,651.3690556217662,698.3860912870732,698.3860912870732,,,,,AK,001,2,24,m,2024-02-08_16h06.12.429,eye_track_exp,2023.1.3,120.12405418108136,
0,180,90,0,180,180,180,12,180,168,None,present,inhibit,freq_bottom,,,,,0,133,133,101,,,,,,,,,,,0.9723642044494514,,,,,,,,,,,,,,,,,,,,,651.3695344561929,651.3702499817191,651.3702596033072,652.3413191455511,652.3413326157752,699.4268945230069,699.4268945230069,700.9256353776873,700.9256353776873,700.9256353776873,700.9256353776873,655.3722875136154,None,1,,,655.3726601898416,655.3726996383557,655.3727082977857,655.3732419752741,702.3993998694023,702.3993998694023,,,,,AK,001,2,24,m,2024-02-08_16h06.12.429,eye_track_exp,2023.1.3,120.12405418108136,
0,180,0,180,180,168,0,0,180,12,None,abs,inhibit,freq_bottom,,,,,0,134,134,400,,,,,,,,,,,0.9562361241302294,,,,,,,,,,,,,,,,,,,,,655.3737371664029,655.5720820606111,655.5720958515558,656.5294180093078,656.5294311588113,703.6233818090368,703.6233818090368,705.1138047997629,705.1138047997629,705.1138047997629,705.1138047997629,659.5690310546415,None,1,,,659.5694123902977,659.5694511973743,659.5694598568043,659.5700679412512,706.5875654428419,706.5875654428419,,,,,AK,001,2,24,m,2024-02-08_16h06.12.429,eye_track_exp,2023.1.3,120.12405418108136,
180,12,0,12,0,0,0,180,270,180,j,present,resp,freq_bottom,,,,,0,135,135,622,,,,,,,,,,,0.8742434095440055,,,,,,,,,,,,,,,,,,,,,659.5705637738174,659.5712930902882,659.5713030325969,660.4432688644083,660.443282655353,707.536782053041,707.536782053041,,,,,661.3263194085412,j,1,0.8312706597862416,None,661.3268162032691,661.3268537274671,661.3268623868971,661.3273296754196,,,,,,,AK,001,2,24,m,2024-02-08_16h06.12.429,eye_track_exp,2023.1.3,120.12405418108136,
180,90,180,0,180,180,-12,0,12,180,j,present,resp,freq_bottom,,,,,0,136,136,501,,,,,,,,,,,0.9767669029424495,,,,,,,,,,,,,,,,,,,,,661.3278017747361,661.5335652350186,661.5335790259633,662.5160969189092,662.5161110305744,709.6017101412835,709.6017101412835,,,,,663.7331198837201,j,1,1.166607421826484,None,663.7336538819254,663.7336933304432,663.7337023105938,663.7339826195603,,,,,,,AK,001,2,24,m,2024-02-08_16h06.12.429,eye_track_exp,2023.1.3,120.12405418108136,
270,180,180,0,180,180,12,180,-168,180,None,present,inhibit,freq_bottom,,,,,0,137,137,105,,,,,,,,,,,0.8184319363745959,,,,,,,,,,,,,,,,,,,,,663.7344617747076,663.9483394419731,663.9483532329177,664.7726226015002,664.7726367131618,711.8581652655485,711.8581652655485,713.3569093274236,713.3569093274236,713.3569093274236,713.3569093274236,667.8039104063282,None,1,,,667.8042859690286,667.8043247761052,667.8043334355352,667.8049383127836,714.830667404749,714.830667404749,,,,,AK,001,2,24,m,2024-02-08_16h06.12.429,eye_track_exp,2023.1.3,120.12405418108136,
180,0,180,0,180,168,0,0,180,168,f,abs,resp,freq_bottom,,,,,0,138,138,865,,,,,,,,,,,1.0186268851541884,,,,,,,,,,,,,,,,,,,,,667.8054376732689,668.0535130346871,668.0535268256317,669.077236025285,669.0772498162296,716.1628957520043,716.1628957520043,,,,,669.8271346778747,f,1,0.7005405222735135,None,669.8276568094552,669.8276968994105,669.8277058795611,669.828164187933,,,,,,,AK,001,2,24,m,2024-02-08_16h06.12.429,eye_track_exp,2023.1.3,120.12405418108136,
168,180,180,180,180,180,168,180,270,180,f,present,resp,freq_bottom,,,,,0,139,139,420,,,,,,,,,,,0.9049224271524084,,,,,,,,,,,,,,,,,,,,,669.8286449466759,670.0355524139304,670.0355658841545,670.9422714263164,670.9422852172611,718.0363327248197,718.0363327248197,719.5267422453217,719.5267422453217,719.5267422453217,719.5267422453217,672.808931272346,f,1,1.8199284095899202,None,672.8094797029371,672.8095188307343,672.8095274901643,672.8099941372457,,,,,,,AK,001,2,24,m,2024-02-08_16h06.12.429,eye_track_exp,2023.1.3,120.12405418108136,
180,0,180,-168,180,180,180,0,-168,180,f,abs,resp,freq_bottom,,,,,0,140,140,883,,,,,,,,,,,0.7210245814883695,,,,,,,,,,,,,,,,,,,,,672.8104588600072,673.0495636929954,673.0495768425026,673.772842935894,673.7728564061181,720.8589619331433,720.8589619331433,722.3493820373915,722.3493820373915,722.3493820373915,722.3493820373915,675.4984259079902,f,1,1.684555213800195,None,675.4989512467655,675.4989919781619,675.4990009583089,675.4994618324381,,,,,,,AK,001,2,24,m,2024-02-08_16h06.12.429,eye_track_exp,2023.1.3,120.12405418108136,
168,0,168,0,0,0,0,180,0,180,f,abs,resp,freq_bottom,,,,,0,141,141,974,,,,,,,,,,,0.8297412753000852,,,,,,,,,,,,,,,,,,,,,675.4999656829968,675.721916505132,675.7219302960766,676.5540502400909,676.5540640310355,723.6399742397989,723.6399742397989,,,,,677.8374018758259,f,1,1.2393059055902995,None,677.8379182344506,677.8379615316044,677.837970511755,677.8385272810556,,,,,,,AK,001,2,24,m,2024-02-08_16h06.12.429,eye_track_exp,2023.1.3,120.12405418108136,
180,168,0,168,0,0,0,180,0,180,f,abs,resp,freq_bottom,,,,,0,142,142,946,,,,,,,,,,,0.9666036228995023,,,,,,,,,,,,,,,,,,,,,677.8390189442689,678.3781493065399,678.3781630974845,679.3436488530424,679.343662643987,726.4293047311294,726.4293047311294,,,,,680.0359491441268,f,1,0.641994113499095,None,680.0364549190053,680.0364934053614,680.0365020647951,680.0369497894171,,,,,,,AK,001,2,24,m,2024-02-08_16h06.12.429,eye_track_exp,2023.1.3,120.12405418108136,
180,180,180,12,180,168,0,0,90,0,None,present,inhibit,freq_bottom,,,,,0,143,143,90,,,,,,,,,,,0.8686116469648769,,,,,,,,,,,,,,,,,,,,,680.0374273409652,680.2677980158987,680.2678114861264,681.1419627015894,681.141976492534,728.2361214988632,728.2361214988632,729.7265541111774,729.7265541111774,729.7265541111774,729.7265541111774,684.1816854330427,None,1,,,684.1820770317281,684.1821354027015,684.1821447035727,684.1827040386306,731.2003099434623,731.2003099434623,,,,,AK,001,2,24,m,2024-02-08_16h06.12.429,eye_track_exp,2023.1.3,120.12405418108136,
180,180,-168,180,180,90,180,12,0,180,None,present,inhibit,freq_bottom,,,,,0,144,144,61,,,,,,,,,,,0.8939598077156113,,,,,,,,,,,,,,,,,,,,,684.1832248873325,684.3975599008081,684.3975727295947,685.2970210276617,685.2970344978894,732.3826602283261,732.3826602283261,733.8730752010597,733.8730752010597,733.8730752010597,733.8730752010597,688.3284877940532,None,1,,,688.3293415497428,688.3293809982606,688.3293896576906,688.3297783698981,735.3634937017086,735.3634937017086,,,,,AK,001,2,24,m,2024-02-08_16h06.12.429,eye_track_exp,2023.1.3,120.12405418108136,
180,180,180,168,0,0,0,90,180,168,f,present,resp,freq_bottom,,,,,0,145,145,613,,,,,,,,,,,0.9976422089538206,,,,,,,,,,,,,,,,,,,,,688.3303085194675,688.3310859438861,688.3310958861948,689.3269537919987,689.3269675829433,736.4126164051959,736.4126164051959,,,,,690.4444016461894,f,1,1.0749916105996817,None,690.4449106282627,690.4449510389386,690.4449600190892,690.4457310291109,,,,,,,AK,001,2,24,m,2024-02-08_16h06.12.429,eye_track_exp,2023.1.3,120.12405418108136,
0,0,0,168,0,0,0,168,0,90,f,present,resp,freq_bottom,,,,,0,146,146,617,,,,,,,,,,,0.962210175873754,,,,,,,,,,,,,,,,,,,,,690.446207297784,690.6595560983551,690.6595698892997,691.6251422391615,691.6251557093856,738.7190265004247,738.7190265004247,,,,,692.9004383596075,f,1,1.21657490085272,None,692.9009293813833,692.9009675470224,692.9009762064525,692.901440929214,,,,,,,AK,001,2,24,m,2024-02-08_16h06.12.429,eye_track_exp,2023.1.3,120.12405418108136,
168,0,0,0,0,0,0,-168,0,0,f,abs,resp,freq_bottom,,,,,0,147,147,1005,,,,,,,,,,,0.7195495617889448,,,,,,,,,,,,,,,,,,,,,692.9019059726998,693.2408100993343,693.240823890279,693.9642869055315,693.9643006964761,741.050412317174,741.050412317174,742.5408215169518,742.5408215169518,742.5408215169518,742.5408215169518,696.9961722110529,None,0,,,696.9965731106095,697.494856619076,697.4948662406641,697.495332246308,744.022922795084,744.022922795084,744.0562237571139,744.5558071422965,,,AK,001,2,24,m,2024-02-08_16h06.12.429,eye_track_exp,2023.1.3,120.12405418108136,
