ori10,ori11,ori12,ori13,ori14,ori16,ori17,ori18,ori19,ori20,corrAns,distractor,responses,dist_freq,practice_trials.thisRepN,practice_trials.thisTrialN,practice_trials.thisN,practice_trials.thisIndex,trials.thisRepN,trials.thisTrialN,trials.thisN,trials.thisIndex,intro_2.started,intro_2.stopped,key_resp.keys,key_resp.rt,key_resp.duration,start_et_record_2.started,start_et_record_2.stopped,fix_check_3.started,fix_check_3.stopped,fix_practice_2.started,fixdur,fix_practice_2.stopped,practice_search_2.started,int14_2.started,per15_2.started,practice_search_2.stopped,response_2.keys,response_2.corr,feedback_4.started,text_feedback.started,feedback_4.stopped,pause_pract_2.started,pause_pract_2.stopped,response_2.rt,response_2.duration,stop_et_record_2.started,stop_et_record_2.stopped,break_3.started,break_3.stopped,key_resp_2.keys,key_resp_2.rt,key_resp_2.duration,fix_check_2.started,fix_check_2.stopped,fixation_2.started,fixation_2.stopped,search_displays_2.started,int14.started,per15.started,int14.stopped,int14_3.started,per15.stopped,per15_3.started,search_displays_2.stopped,response.keys,response.corr,response.rt,response.duration,feedback_6.started,text_feedback_2.started,feedback_6.stopped,pause_4.started,pause_4.stopped,text_feedback_2.stopped,int14_3.stopped,per15_3.stopped,end_2.started,end_2.stopped,participant,session,group,age,gender,date,expName,psychopyVersion,frameRate,
,,,,,,,,,,,,,,,,,,,,,,1.026280472160579e-05,43.819999704944394,space,43.805354791092896,None,,,,,,,,,,,,,,,,,,,,,,,,,,,,,,,,,,,,,,,,,,,,,,,,,,,,,,by,001,2,24,f,2024-02-12_12h17.15.003,eye_track_exp,2023.1.3,120.14704069045904,
180,168,0,180,0,180,180,180,168,180,f,abs,resp,freq_top,0,0,0,12,,,,,,,,,,117.35971900440529,117.86211440718193,117.90144692718798,118.82315423456157,118.82316770449279,0.867396806514908,119.69725399415529,119.69726714337389,243.45862421970617,243.45862421970617,122.70219264823982,None,0,122.70276928958299,246.447706840416,123.20147906259535,123.20148932540019,123.20187129416536,,,,,,,,,,,,,,,,,,,,,,,,,,,,,,,,,,,,by,001,2,24,f,2024-02-12_12h17.15.003,eye_track_exp,2023.1.3,120.14704069045904,
0,0,168,0,0,0,0,0,180,168,f,abs,resp,freq_top,0,1,1,19,,,,,,,,,,,,123.20239405578343,124.30193299927907,124.30194582778495,0.9018347621939717,125.20924864723406,125.20926115502732,248.97054414673755,248.97054414673755,128.2074953111811,f,1,128.20811524873193,,128.20885609495144,128.2088650749056,128.20947410822635,2.950089523246561,None,,,,,,,,,,,,,,,,,,,,,,,,,,,,,,,,,,by,001,2,24,f,2024-02-12_12h17.15.003,eye_track_exp,2023.1.3,120.14704069045904,
180,0,180,0,168,180,0,180,12,180,None,abs,inhibit,freq_top,0,2,2,30,,,,,,,,,,,,128.20997634423497,128.4484031075773,128.44841561537055,0.856796536965191,129.30534377830293,129.30535596538357,253.06703150937642,253.06703150937642,132.31059159938115,None,1,132.31098222738785,,132.31102103361832,132.31102969285985,132.3122285167425,,,,,,,,,,,,,,,,,,,,,,,,,,,,,,,,,,,,by,001,2,24,f,2024-02-12_12h17.15.003,eye_track_exp,2023.1.3,120.14704069045904,
180,180,90,180,12,180,12,0,0,180,j,present,resp,freq_top,0,3,3,39,,,,,,,,,,,,132.3127140756933,132.5695616114656,132.56957411925896,1.0895703833857344,133.66024792370627,133.66026043149964,257.42163129847575,257.42163129847575,135.5587157510962,j,1,135.55921894924268,,135.55925647262268,135.5592648111516,135.559835679667,1.85956677445688,None,,,,,,,,,,,,,,,,,,,,,,,,,,,,,,,,,,by,001,2,24,f,2024-02-12_12h17.15.003,eye_track_exp,2023.1.3,120.14704069045904,
12,0,0,-168,0,0,180,180,180,180,None,abs,inhibit,freq_top,0,4,4,27,,,,,,,,,,,,135.56032059719257,136.69965965973665,136.6996734503806,0.915205619262099,137.6144661930382,137.61447838011884,261.3765711712683,261.3765711712683,140.62850699281853,None,1,140.6289296920902,,140.62896849832077,140.62897747827492,140.62980780332362,,,,,,,,,,,,,,,,,,,,,,,,,,,,,,,,,,,,by,001,2,24,f,2024-02-12_12h17.15.003,eye_track_exp,2023.1.3,120.14704069045904,
180,12,180,12,180,90,180,180,0,180,j,present,resp,freq_top,0,5,5,37,,,,,,,,,,,,140.63033280993022,140.86256564987923,140.86257847838522,0.9168769485484152,141.77815183563087,141.77816434342424,265.5396853039201,265.5396853039201,143.9103284225812,j,1,143.91083322429097,,143.91086914410778,143.91087748263658,143.91132391464419,2.092202429493227,None,,,,,,,,,,,,,,,,,,,,,,,,,,,,,,,,,,by,001,2,24,f,2024-02-12_12h17.15.003,eye_track_exp,2023.1.3,120.14704069045904,
180,0,180,12,0,180,180,0,12,180,j,abs,resp,freq_top,0,6,6,3,,,,,,,,,,,,143.91180915288237,144.1595029082223,144.15951541601555,0.9509464211045355,145.11696678956378,145.11697929735703,268.87847909081813,268.87847909081813,146.56649976780398,j,1,146.56701354946802,,146.56705011070994,146.56705812852624,146.5675773623052,1.4095665178867876,None,,,,,,,,,,,,,,,,,,,,,,,,,,,,,,,,,,by,001,2,24,f,2024-02-12_12h17.15.003,eye_track_exp,2023.1.3,120.14704069045904,
90,0,180,168,180,180,0,168,0,0,f,present,resp,freq_top,0,7,7,46,,,,,,,,,,,,146.56807542904937,147.19087950954054,147.1908952244604,0.9563100698336646,148.14762435312252,148.14763654020328,271.9092068904472,271.9092068904472,150.46344805866215,f,1,150.46396825457907,,150.4640048158211,150.46401347506264,150.46446311419675,2.2667939057206468,None,,,,,,,,,,,,,,,,,,,,,,,,,,,,,,,,,,by,001,2,24,f,2024-02-12_12h17.15.003,eye_track_exp,2023.1.3,120.14704069045904,
168,0,270,180,180,180,180,168,180,180,f,present,resp,freq_top,0,8,8,49,,,,,,,,,,,,150.4649772165734,150.68778174606223,150.6877942538556,0.877353526505793,151.57004107687612,151.57005358466938,275.3313032222642,275.3313032222642,154.08536152012664,j,0,154.0858643975605,277.82913071477867,154.59122575091658,154.59123633443403,154.59231264608457,2.4764152210531165,None,,,,,,,,,,,,,,,,,,,,,,,,,,,,,,,,,,by,001,2,24,f,2024-02-12_12h17.15.003,eye_track_exp,2023.1.3,120.14704069045904,
0,0,180,0,168,0,0,0,180,168,f,abs,resp,freq_top,0,9,9,17,,,,,,,,,,,,154.5928411805304,154.70888752479107,154.70890035329705,0.952994272791938,155.66637738385714,155.66638925022517,279.4277591550633,279.4277591550633,157.7154201207419,f,1,157.71595891799245,,157.7166933499591,157.71670265062585,157.71730110042927,2.0117545478644843,None,,,,,,,,,,,,,,,,,,,,,,,,,,,,,,,,,,by,001,2,24,f,2024-02-12_12h17.15.003,eye_track_exp,2023.1.3,120.14704069045904,
180,270,0,0,0,0,0,168,0,168,f,present,resp,freq_top,0,10,10,43,,,,,,,,,,,,157.71781680636911,158.031539523344,158.03155203113738,0.7443024077144682,158.78010176853786,158.78011459704373,282.5417885374734,282.5417885374734,160.49609371993313,f,1,160.49662033010316,,160.49665817419566,160.49666651272457,160.49712064183575,1.666350231841875,None,,,,,,,,,,,,,,,,,,,,,,,,,,,,,,,,,,by,001,2,24,f,2024-02-12_12h17.15.003,eye_track_exp,2023.1.3,120.14704069045904,
0,180,180,180,12,0,180,12,0,0,j,abs,resp,freq_top,0,11,11,8,,,,,,,,,,,,160.49762416069495,160.72892565111079,160.72893847961677,0.9399317056149329,161.66885296479597,161.66886515187662,285.43094768022127,285.43094768022127,162.73639857654894,j,1,162.73694186377668,,162.73697938715657,162.73698772568548,162.7374787367513,1.0319960060037374,None,,,,,,,,,,,,,,,,,,,,,,,,,,,,,,,,,,by,001,2,24,f,2024-02-12_12h17.15.003,eye_track_exp,2023.1.3,120.14704069045904,
180,180,0,168,180,180,180,0,0,168,f,abs,resp,freq_top,0,12,12,18,,,,,,,,,,,,162.7379902734267,163.343337964424,163.3433511136426,0.9324512996205196,164.27515317236123,164.27517498082136,288.03705898803616,288.03705898803616,165.65854397740134,f,1,165.6590664183068,,165.65910330026145,165.65911195950298,165.65956384362562,1.3381348309638952,None,,,,,,,,,,,,,,,,,,,,,,,,,,,,,,,,,,by,001,2,24,f,2024-02-12_12h17.15.003,eye_track_exp,2023.1.3,120.14704069045904,
0,0,168,0,0,0,0,0,168,0,f,abs,resp,freq_top,0,13,13,11,,,,,,,,,,,,165.66007249388724,166.1990753212899,166.1990884705085,0.9879342158364534,167.1897756166021,167.18980704644173,290.95121736107376,290.95121736107376,168.7730573151989,f,1,168.77368591199127,,168.77373177390018,168.77374941309586,168.7742571012194,1.5437084319511314,None,,,,,,,,,,,,,,,,,,,,,,,,,,,,,,,,,,by,001,2,24,f,2024-02-12_12h17.15.003,eye_track_exp,2023.1.3,120.14704069045904,
0,0,0,0,168,0,0,12,0,0,None,abs,inhibit,freq_top,0,14,14,29,,,,,,,,,,,,168.77478531495262,169.1717024966838,169.1717172494657,1.0107899281289485,170.18721472609855,170.1872269131792,293.9486664126623,293.9486664126623,173.20055476874052,None,1,173.20174525409425,,173.2017853431754,173.20179496455478,173.2023430624722,,,,,,,,,,,,,,,,,,,,,,,,,,,,,,,,,,,,by,001,2,24,f,2024-02-12_12h17.15.003,eye_track_exp,2023.1.3,120.14704069045904,
12,0,0,12,0,0,180,0,180,180,j,abs,resp,freq_top,0,15,15,6,,,,,,,,,,,,173.2028427327797,173.2036194988159,173.2036291201954,0.8517179430802078,174.05861665088764,174.05863781792243,297.8203281146971,297.8203281146971,175.68354352840356,j,1,175.6841147176317,,175.68415320314966,175.6841618623912,175.68486839235732,1.5866550628006735,None,,,,,,,,,,,,,,,,,,,,,,,,,,,,,,,,,,by,001,2,24,f,2024-02-12_12h17.15.003,eye_track_exp,2023.1.3,120.14704069045904,
180,0,180,0,12,180,180,180,12,180,j,abs,resp,freq_top,0,16,16,9,,,,,,,,,,,,175.68537415620506,175.89087238971968,175.890885859651,0.9065001532111078,176.79808124036254,176.7980937481559,300.55966473982505,300.55966473982505,178.6807437069764,j,1,178.68124786726082,,178.68128442850286,178.68129276703178,178.68178570237353,1.8391540557629469,None,,,,,,,,,,,,,,,,,,,,,,,,,,,,,,,,,,by,001,2,24,f,2024-02-12_12h17.15.003,eye_track_exp,2023.1.3,120.14704069045904,
168,0,180,0,0,180,180,0,168,0,f,abs,resp,freq_top,0,17,17,13,,,,,,,,,,,,178.68228793838216,179.22121636045017,179.22122886824354,0.7695782111669581,179.9952380585852,179.99525088709117,303.75689724623294,303.75689724623294,181.9615462326526,f,1,181.96206354215576,,181.96211357332902,181.96212223257055,181.96260105655574,1.921745260026114,None,,,,,,,,,,,,,,,,,,,,,,,,,,,,,,,,,,by,001,2,24,f,2024-02-12_12h17.15.003,eye_track_exp,2023.1.3,120.14704069045904,
180,270,180,12,180,0,12,180,0,180,j,present,resp,freq_top,0,18,18,33,,,,,,,,,,,,181.9631119518059,182.16903128102888,182.1690444302476,1.0651981567894835,183.2339101671041,183.23392267489737,306.995805078549,306.995805078549,185.78292147414925,j,1,185.78344904645712,,185.78348753197508,185.78349587050388,185.78397277021327,2.506045221284012,None,,,,,,,,,,,,,,,,,,,,,,,,,,,,,,,,,,by,001,2,24,f,2024-02-12_12h17.15.003,eye_track_exp,2023.1.3,120.14704069045904,
0,0,0,-168,0,0,0,12,0,0,None,abs,inhibit,freq_top,0,19,19,23,,,,,,,,,,,,185.78447789263566,186.08191963197578,186.08193246048177,0.8578993836577262,186.93920378594862,186.93921597302938,310.70094571745983,310.70094571745983,189.95283375282543,None,1,189.95323785076346,,189.9532760155687,189.95328499552284,189.95381096426752,,,,,,,,,,,,,,,,,,,,,,,,,,,,,,,,,,,,by,001,2,24,f,2024-02-12_12h17.15.003,eye_track_exp,2023.1.3,120.14704069045904,
90,0,0,12,0,0,0,12,0,0,j,present,resp,freq_top,0,20,20,34,,,,,,,,,,,,189.95431608668991,190.403638036007,190.4036511852256,0.8921118355611554,191.30214466962752,191.30215717742078,315.0638792247478,315.0638792247478,192.7688935028749,j,1,192.76942845157362,,192.769465654241,192.7694739927698,192.76984954728198,1.4300356820069737,None,,,,,,,,,,,,,,,,,,,,,,,,,,,,,,,,,,by,001,2,24,f,2024-02-12_12h17.15.003,eye_track_exp,2023.1.3,120.14704069045904,
180,168,180,0,180,0,180,0,0,168,f,abs,resp,freq_top,0,21,21,20,,,,,,,,,,,,192.77035050044003,193.10950573049365,193.1095182382869,1.0513846386901782,194.1666644216781,194.16668687156357,317.9280878855287,317.9280878855287,195.64985939957455,f,1,195.65045752866524,,195.6505056355627,195.65051461551684,195.65095751968533,1.4455620227781765,None,,,,,,,,,,,,,,,,,,,,,,,,,,,,,,,,,,by,001,2,24,f,2024-02-12_12h17.15.003,eye_track_exp,2023.1.3,120.14704069045904,
90,0,0,12,0,12,180,180,180,0,j,present,resp,freq_top,0,22,22,32,,,,,,,,,,,,195.65144821003855,195.87339836103,195.87341247238658,1.0374707069674467,196.9143697226733,196.91438287189192,320.6757300061321,320.6757300061321,198.31394561226614,j,1,198.3144763917005,,198.31451327365505,198.31452129147135,198.31486798184505,1.3540870781333751,None,,,,,,,,,,,,,,,,,,,,,,,,,,,,,,,,,,by,001,2,24,f,2024-02-12_12h17.15.003,eye_track_exp,2023.1.3,120.14704069045904,
0,270,0,0,12,0,0,12,0,0,j,present,resp,freq_top,0,23,23,40,,,,,,,,,,,,198.31543339824555,198.68821246315008,198.68822625379403,0.8753211439846998,199.57017224834965,199.5701847561429,323.3317891019276,323.3317891019276,200.88645040371307,j,1,200.8869590539747,,200.88699593592935,200.88700427445815,200.88744717862664,1.273832586231947,None,,,,,,,,,,,,,,,,,,,,,,,,,,,,,,,,,,by,001,2,24,f,2024-02-12_12h17.15.003,eye_track_exp,2023.1.3,120.14704069045904,
180,270,0,0,168,0,0,168,180,0,f,present,resp,freq_top,0,24,24,45,,,,,,,,,,,,200.88795358389973,201.10325311668555,201.1032656244788,0.7419181036725552,201.8433382851366,201.84335913145878,325.6048329471953,325.6048329471953,203.22647476504585,f,1,203.2271030411256,,203.2271405645056,203.22714922374712,203.2275084219142,1.3359828490879408,None,,,,,,,,,,,,,,,,,,,,,,,,,,,,,,,,,,by,001,2,24,f,2024-02-12_12h17.15.003,eye_track_exp,2023.1.3,120.14704069045904,
0,270,0,0,12,0,180,180,180,12,j,present,resp,freq_top,0,25,25,42,,,,,,,,,,,,203.22802605212985,203.83351325312947,203.83352608163545,0.9841771852860504,204.82393196273574,204.823944470529,328.585606223878,328.585606223878,206.72369290352708,j,1,206.72420893017954,,206.72424677427216,206.7242554335137,206.72470892119964,1.8594365651213138,None,,,,,,,,,,,,,,,,,,,,,,,,,,,,,,,,,,by,001,2,24,f,2024-02-12_12h17.15.003,eye_track_exp,2023.1.3,120.14704069045904,
0,180,180,180,168,0,0,0,0,12,None,abs,inhibit,freq_top,0,26,26,31,,,,,,,,,,,,206.7252217407256,207.2221259015232,207.2221387300292,0.9503472861609513,208.17941852231002,208.1794445000346,331.9410648814518,331.9410648814518,211.19296606603598,None,1,211.19335733546802,,211.19339582098587,211.19340512165275,211.1942380124026,,,,,,,,,,,,,,,,,,,,,,,,,,,,,,,,,,,,by,001,2,24,f,2024-02-12_12h17.15.003,eye_track_exp,2023.1.3,120.14704069045904,
0,180,0,180,168,180,12,180,0,180,None,abs,inhibit,freq_top,0,27,27,28,,,,,,,,,,,,211.1947511526413,211.19546794541213,211.1954772460789,1.0745042839322614,212.267399623355,212.26741213114838,336.02923007155744,336.02923007155744,215.2811521024638,None,1,215.28153471265432,,215.28157351888478,215.28158249883904,215.28239326041614,,,,,,,,,,,,,,,,,,,,,,,,,,,,,,,,,,,,by,001,2,24,f,2024-02-12_12h17.15.003,eye_track_exp,2023.1.3,120.14704069045904,
0,0,180,0,0,0,168,0,180,168,f,abs,resp,freq_top,0,28,28,15,,,,,,,,,,,,215.28293013339078,215.6232803387752,215.62329252585585,1.0910024590291894,216.71413278016814,216.71414560867413,340.4754173754417,340.4754173754417,218.31394465012818,f,1,218.31444560328612,,218.3144828059534,218.3144911444823,218.31483975913193,1.5526216778966955,None,,,,,,,,,,,,,,,,,,,,,,,,,,,,,,,,,,by,001,2,24,f,2024-02-12_12h17.15.003,eye_track_exp,2023.1.3,120.14704069045904,
180,12,180,12,0,180,0,180,180,180,j,abs,resp,freq_top,0,29,29,5,,,,,,,,,,,,218.31533814658872,218.51306326762574,218.513075775419,0.7255224511676728,219.24491574237277,219.24492857087876,343.00658839995174,343.00658839995174,220.54463037225753,j,1,220.54513100470297,,220.54516692451966,220.54517526304846,220.54585485315204,1.2621602493657065,None,,,,,,,,,,,,,,,,,,,,,,,,,,,,,,,,,,by,001,2,24,f,2024-02-12_12h17.15.003,eye_track_exp,2023.1.3,120.14704069045904,
180,0,180,0,12,0,12,180,180,180,j,abs,resp,freq_top,0,30,30,7,,,,,,,,,,,,220.54634169495353,221.2771945083731,221.27720861972966,0.8205059917024261,222.10104917936042,222.1010616871538,345.8624636632569,345.8624636632569,223.7166231138889,j,1,223.7171317641505,,223.71716896681778,223.7171776260593,244.2576797850968,1.5735196348289264,None,,,,,,,,,,,,,,,,,,,,,,,,,,,,,,,,,,by,001,2,24,f,2024-02-12_12h17.15.003,eye_track_exp,2023.1.3,120.14704069045904,
180,180,168,0,270,0,0,168,0,180,f,present,resp,freq_top,0,31,31,47,,,,,,,,,,,,244.25825097432505,244.4989294611771,244.49894196897037,0.7987188231647528,245.29741768589145,245.29743051439743,369.0592455683926,369.0592455683926,247.51309918744244,f,1,247.5136184212214,,247.51365562388867,247.51366396241758,247.5142213610019,2.1676969042556493,None,,,,,,,,,,,,,,,,,,,,,,,,,,,,,,,,,,by,001,2,24,f,2024-02-12_12h17.15.003,eye_track_exp,2023.1.3,120.14704069045904,
0,180,0,12,0,180,180,180,0,12,j,abs,resp,freq_top,0,32,32,4,,,,,,,,,,,,247.51472423843575,247.7455895596487,247.74560174672933,0.9231876492674931,248.66951780211775,248.66952966848578,372.4313524195845,372.4313524195845,249.75327158973414,j,1,249.75381648052507,,249.75386234243388,249.75387196381337,249.75434597710876,1.0357893952179893,None,,,,,,,,,,,,,,,,,,,,,,,,,,,,,,,,,,by,001,2,24,f,2024-02-12_12h17.15.003,eye_track_exp,2023.1.3,120.14704069045904,
0,180,0,0,180,168,180,0,0,168,f,abs,resp,freq_top,0,33,33,16,,,,,,,,,,,,249.75484276100235,250.00212279702475,250.00213530481813,0.7935123128207854,250.8015510305139,250.80156353830716,374.5628462093048,374.5628462093048,251.77584398740748,f,1,251.77636610760032,,251.77640234812975,251.77641068665855,251.7770899560495,0.9355352625148043,None,,,,,,,,,,,,,,,,,,,,,,,,,,,,,,,,,,by,001,2,24,f,2024-02-12_12h17.15.003,eye_track_exp,2023.1.3,120.14704069045904,
180,12,180,-168,180,180,0,180,180,180,None,abs,inhibit,freq_top,0,34,34,26,,,,,,,,,,,,251.77757423214973,251.99234074051265,251.9923529275933,1.0328900471143208,253.0239299743173,253.02394216139794,376.78594258730436,376.78594258730436,256.03785852467047,None,1,256.03825203909105,,256.0382902038963,256.0382991838504,256.039845339532,,,,,,,,,,,,,,,,,,,,,,,,,,,,,,,,,,,,by,001,2,24,f,2024-02-12_12h17.15.003,eye_track_exp,2023.1.3,120.14704069045904,
12,0,0,12,0,0,90,180,180,0,j,present,resp,freq_top,0,35,35,38,,,,,,,,,,,,256.040340840575,256.0411788627273,256.0411884841068,0.8578179214605953,256.8957764068381,256.8957885939187,380.6576260977994,380.6576260977994,258.5126184391813,j,1,258.5131476150524,,258.51318642128297,258.5131950805245,258.5134843633341,1.577211999558699,None,,,,,,,,,,,,,,,,,,,,,,,,,,,,,,,,,,by,001,2,24,f,2024-02-12_12h17.15.003,eye_track_exp,2023.1.3,120.14704069045904,
0,180,0,-168,180,0,180,0,12,180,None,abs,inhibit,freq_top,0,36,36,24,,,,,,,,,,,,258.5139737708366,258.7444911188253,258.7445039473313,0.8283518844429765,259.57736358808177,259.57737609587514,383.3386552390335,383.3386552390335,262.5905852877562,None,1,262.59098970640684,,262.59102883335004,262.5910381340168,262.5918517820078,,,,,,,,,,,,,,,,,,,,,,,,,,,,,,,,,,,,by,001,2,24,f,2024-02-12_12h17.15.003,eye_track_exp,2023.1.3,120.14704069045904,
180,0,90,180,12,0,180,180,12,180,j,present,resp,freq_top,0,37,37,41,,,,,,,,,,,,262.592354338729,262.5933610557347,262.5933706771142,0.9523513359163492,263.54855397080746,263.5485664786007,387.31025292682364,387.31025292682364,266.5538252039091,None,0,266.5542058898236,390.2910217135292,267.05309333764365,267.05310488329906,267.0537450257468,,,,,,,,,,,,,,,,,,,,,,,,,,,,,,,,,,,,by,001,2,24,f,2024-02-12_12h17.15.003,eye_track_exp,2023.1.3,120.14704069045904,
0,168,180,90,0,180,0,168,0,0,f,present,resp,freq_top,0,38,38,48,,,,,,,,,,,,267.0543059521701,267.0555881613416,267.0555987448589,0.7470723476600852,267.8034095603158,267.80342206810906,391.5649359729267,391.5649359729267,269.54411242132915,f,1,269.5446579535454,,269.5454061761559,269.5454157975354,269.54601809589053,1.6934472435697216,None,,,,,,,,,,,,,,,,,,,,,,,,,,,,,,,,,,by,001,2,24,f,2024-02-12_12h17.15.003,eye_track_exp,2023.1.3,120.14704069045904,
90,0,180,180,180,168,0,168,0,0,f,present,resp,freq_top,0,39,39,44,,,,,,,,,,,,269.546521294037,269.5525513332666,269.5525615960714,0.7547932179877035,270.3094697465343,270.3094819336151,394.07112027494054,394.07112027494054,271.75851075157084,f,1,271.75903383390164,,271.7590703951437,271.7590787336725,271.7596986712233,1.4108169765058847,None,,,,,,,,,,,,,,,,,,,,,,,,,,,,,,,,,,by,001,2,24,f,2024-02-12_12h17.15.003,eye_track_exp,2023.1.3,120.14704069045904,
0,0,0,-168,180,180,180,180,0,12,None,abs,inhibit,freq_top,0,40,40,25,,,,,,,,,,,,271.7602313749336,272.4666821250163,272.466695274235,0.8099031444635825,273.282236111218,273.28224926043663,397.04356785125094,397.04356785125094,276.2954847507549,None,1,276.2959946838671,,276.29603349009767,276.29604279076443,276.29658928511867,,,,,,,,,,,,,,,,,,,,,,,,,,,,,,,,,,,,by,001,2,24,f,2024-02-12_12h17.15.003,eye_track_exp,2023.1.3,120.14704069045904,
0,180,0,0,180,0,180,168,0,168,f,abs,resp,freq_top,0,41,41,14,,,,,,,,,,,,276.29706490197736,276.5709858963405,276.5709984041339,0.7864519592372401,277.3612831199953,277.3612953070759,401.1233996438807,401.1233996438807,278.8451820621567,f,1,278.84569937165975,,278.8457362536144,278.8457445921433,278.84622213327793,1.445646049492325,None,,,,,,,,,,,,,,,,,,,,,,,,,,,,,,,,,,by,001,2,24,f,2024-02-12_12h17.15.003,eye_track_exp,2023.1.3,120.14704069045904,
0,0,0,-168,0,12,0,0,0,0,None,abs,inhibit,freq_top,0,42,42,21,,,,,,,,,,,,278.8467185964588,279.4936537380984,279.49366656660425,0.7162410736648003,280.20938879866173,280.209401306455,403.9709533760779,403.9709533760779,283.21452180461154,None,1,283.21492365756103,,283.2149621430789,283.214971123033,283.21612216073095,,,,,,,,,,,,,,,,,,,,,,,,,,,,,,,,,,,,by,001,2,24,f,2024-02-12_12h17.15.003,eye_track_exp,2023.1.3,120.14704069045904,
0,180,0,12,0,180,180,12,0,0,j,abs,resp,freq_top,0,43,43,2,,,,,,,,,,,,283.21671547913184,283.21757402689366,283.2175842896985,0.8583018949759542,284.0728883637754,284.07290055085605,407.8343082997868,407.8343082997868,285.13914855923053,j,1,285.1396716415612,,285.13970788209065,285.13971622061945,285.14047278175883,1.022751463891609,None,,,,,,,,,,,,,,,,,,,,,,,,,,,,,,,,,,by,001,2,24,f,2024-02-12_12h17.15.003,eye_track_exp,2023.1.3,120.14704069045904,
180,270,180,12,180,180,180,180,12,180,j,present,resp,freq_top,0,44,44,35,,,,,,,,,,,,285.1409512850314,285.35519022108645,285.3552027288798,0.8317610950484566,286.187548908679,286.187561737185,409.9491554994522,409.9491554994522,288.3704340140139,j,1,288.3709513235169,,288.3709882054716,288.3709962232879,288.3713567043055,2.140181362520707,None,,,,,,,,,,,,,,,,,,,,,,,,,,,,,,,,,,by,001,2,24,f,2024-02-12_12h17.15.003,eye_track_exp,2023.1.3,120.14704069045904,
90,0,0,12,0,180,180,180,0,12,j,present,resp,freq_top,0,45,45,36,,,,,,,,,,,,288.37183937684244,288.6110217391862,288.61103424697956,1.0267840738924676,289.64278255425813,289.6427950620515,413.40453667285,413.40453667285,292.1584516121583,j,1,292.1589474339139,,292.15898399515595,292.15899201297213,292.15945480132496,2.4766098936312346,None,,,,,,,,,,,,,,,,,,,,,,,,,,,,,,,,,,by,001,2,24,f,2024-02-12_12h17.15.003,eye_track_exp,2023.1.3,120.14704069045904,
0,180,0,12,0,12,0,180,180,180,j,abs,resp,freq_top,0,46,46,0,,,,,,,,,,,,292.1599281731951,292.3738928999351,292.37390572844106,1.0207619976181956,293.3976512929851,293.39766380077845,417.15963921109824,417.15963921109824,294.9140118073569,j,1,294.9145393796648,,294.9145765823321,294.9145865244242,294.91505059562746,1.4731744197332546,None,,,,,,,,,,,,,,,,,,,,,,,,,,,,,,,,,,by,001,2,24,f,2024-02-12_12h17.15.003,eye_track_exp,2023.1.3,120.14704069045904,
180,180,180,-168,180,180,12,180,0,180,None,abs,inhibit,freq_top,0,47,47,22,,,,,,,,,,,,294.91555026593494,295.24645676665205,295.24646991587065,0.8897232818981067,296.13751613184627,296.1375286396395,419.8989604420191,419.8989604420191,299.15086451301704,None,1,299.15125353746055,,299.15129298511636,299.1513019650705,299.1522660272939,,,,,,,,,,,,,,,,,,,,,,,,,,,,,,,,,,,,by,001,2,24,f,2024-02-12_12h17.15.003,eye_track_exp,2023.1.3,120.14704069045904,
180,180,0,168,180,180,180,180,168,180,f,abs,resp,freq_top,0,48,48,10,,,,,,,,,,,,299.152753189808,299.1536685037087,299.15367812508816,1.0488555810863376,300.2010024835987,300.20101595353003,423.9621555866861,423.9621555866861,301.8578316104649,f,1,301.8583591827728,,301.8583970268654,301.85840568610695,301.8588726437241,1.6137238518153936,None,,,,,,,,,,,,,,,,,,,,,,,,,,,,,,,,,,by,001,2,24,f,2024-02-12_12h17.15.003,eye_track_exp,2023.1.3,120.14704069045904,
180,0,180,12,180,180,12,180,180,180,j,abs,resp,freq_top,0,49,49,1,,,,,,,,,,,,301.8593873875261,302.4240234941258,302.4240366433444,0.8998990656859649,303.3230570586288,303.3230695664222,427.0844619211457,427.0844619211457,305.6045180073738,j,1,305.60503692044017,,305.60507412310744,305.60508246163636,305.605540760012,2.235219103985287,None,,,,,,,,,,,,,,,,,,,,,,,,,,,,,,,,,,by,001,2,24,f,2024-02-12_12h17.15.003,eye_track_exp,2023.1.3,120.14704069045904,
,,,,,,,,,,,,,,,,,,,,,,,,,,,,,,,,,,,,,,,,,,,,,,,305.6055946397371,306.1083344878989,306.10835052353127,308.6015292861963,space,2.4789844500855907,None,,,,,,,,,,,,,,,,,,,,,,,,,,,by,001,2,24,f,2024-02-12_12h17.15.003,eye_track_exp,2023.1.3,120.14704069045904,
0,180,0,180,180,168,0,0,90,12,None,present,inhibit,freq_bottom,,,,,0,0,0,44,,,,,,308.6015543017829,309.1024939898449,,,,0.7910681511603185,,,,,,,,,,,,,,,,,,,,,,309.26663376154886,309.2680381622396,309.2680516321708,310.05831453957205,310.05832897164134,433.82035729954816,433.82035729954816,435.31074169290093,435.31074169290093,435.31074169290093,435.31074169290093,311.86635134199,f,0,1.77157541060717,None,311.86779230392267,435.61048005552175,312.3725965794072,312.3726100493384,312.373875581452,,,,,,by,001,2,24,f,2024-02-12_12h17.15.003,eye_track_exp,2023.1.3,120.14704069045904,
180,168,180,180,180,180,180,180,180,168,f,abs,resp,freq_bottom,,,,,0,1,1,755,,,,,,,,,,,1.0547992437282014,,,,,,,,,,,,,,,,,,,,,,312.374431376473,312.3752158396129,312.375226743843,313.4304329364194,313.4304467270632,437.2007699669281,437.2007699669281,438.69116911306276,438.69116911306276,438.69116911306276,438.69116911306276,315.1141275204807,f,1,1.6382763293846665,None,315.1146692041451,,315.11552807261955,315.115538656137,315.1161399923542,,,,,,by,001,2,24,f,2024-02-12_12h17.15.003,eye_track_exp,2023.1.3,120.14704069045904,
180,168,180,180,180,180,270,180,180,168,f,present,resp,freq_bottom,,,,,0,2,2,427,,,,,,,,,,,0.8259461414913997,,,,,,,,,,,,,,,,,,,,,,315.11667205463914,315.3880170850042,315.38803087564816,316.22019456994997,316.22020868130653,439.9900710570946,439.9900710570946,441.4721220529715,441.4721220529715,441.4721220529715,441.4721220529715,318.54464031434975,f,1,2.2735314370543165,None,318.54515249245037,,318.5451906572556,318.54519931649713,318.5456479934934,,,,,,by,001,2,24,f,2024-02-12_12h17.15.003,eye_track_exp,2023.1.3,120.14704069045904,
0,0,0,180,180,168,0,168,0,270,f,present,resp,freq_bottom,,,,,0,3,3,473,,,,,,,,,,,0.8948731809335959,,,,,,,,,,,,,,,,,,,,,,318.5461617751573,318.7851712733832,318.78518538473975,319.683619858014,319.6836358936465,443.44542400777925,443.44542400777925,444.93582379533916,444.93582379533916,444.93582379533916,444.93582379533916,322.6410195968257,f,1,2.9132887088928783,None,322.6415555076625,,322.6415952760309,322.6416045766978,322.6421000777407,,,,,,by,001,2,24,f,2024-02-12_12h17.15.003,eye_track_exp,2023.1.3,120.14704069045904,
180,180,180,180,180,-168,0,-168,0,0,f,abs,resp,freq_bottom,,,,,0,4,4,748,,,,,,,,,,,0.8878303593956567,,,,,,,,,,,,,,,,,,,,,,322.64259654092166,322.85587333902913,322.8558871296731,323.74713026321524,323.7471440538592,447.5086111346301,447.5086111346301,448.9989910380058,448.9989910380058,448.9989910380058,448.9989910380058,325.35496123225494,f,1,1.571492410173505,None,325.35550259520676,,325.35554140143734,325.3555503813915,325.3560186218592,,,,,,by,001,2,24,f,2024-02-12_12h17.15.003,eye_track_exp,2023.1.3,120.14704069045904,
180,-168,180,180,180,180,180,180,-168,180,f,abs,resp,freq_bottom,,,,,0,5,5,768,,,,,,,,,,,0.8639132799462985,,,,,,,,,,,,,,,,,,,,,,325.3565433077533,325.3573290537437,325.3573386751232,326.2284109073089,326.22842501866546,449.99814211162345,449.99814211162345,,,,,327.66939176204664,f,1,1.3844476617789496,None,327.66989079092866,,327.66992831430866,327.6699369735502,327.6704982206862,,,,,,by,001,2,24,f,2024-02-12_12h17.15.003,eye_track_exp,2023.1.3,120.14704069045904,
12,180,180,168,180,270,180,0,0,0,None,present,inhibit,freq_bottom,,,,,0,6,6,68,,,,,,,,,,,0.8086294002716992,,,,,,,,,,,,,,,,,,,,,,327.6709715925564,327.89401537368155,327.8940371821417,328.7006474546961,328.70066124534003,452.4626947046494,452.4626947046494,453.95307749443884,453.95307749443884,453.95307749443884,453.95307749443884,330.8583906126124,j,0,2.1201361805227634,None,330.8589217127595,454.6025170811557,331.36463232219046,331.3646441885585,331.36577822848596,,,,,,by,001,2,24,f,2024-02-12_12h17.15.003,eye_track_exp,2023.1.3,120.14704069045904,
0,0,-168,180,180,-168,0,0,0,0,f,abs,resp,freq_bottom,,,,,0,7,7,815,,,,,,,,,,,1.0299527801494675,,,,,,,,,,,,,,,,,,,,,,331.3663134978974,331.6403316681932,331.64034577954976,332.6722319932676,332.6722454631988,456.4342808467841,456.4342808467841,,,,,333.6229567397122,f,1,0.9005156862147032,None,333.62346603139906,,333.6241860312964,333.6241959733885,333.6247565790993,,,,,,by,001,2,24,f,2024-02-12_12h17.15.003,eye_track_exp,2023.1.3,120.14704069045904,
0,0,180,180,180,90,0,168,0,12,None,present,inhibit,freq_bottom,,,,,0,8,8,20,,,,,,,,,,,0.8967590127481341,,,,,,,,,,,,,,,,,,,,,,333.6252729264644,333.93913226702784,333.9391463783844,334.8374759786226,334.8374897692664,458.5990934736259,458.5990934736259,460.09781607514424,460.09781607514424,460.09781607514424,460.09781607514424,337.18619614272484,f,0,2.303088635513859,None,337.1867121693773,460.93042139076397,337.6925363110861,337.69254849816684,337.6937017808532,,,,,,by,001,2,24,f,2024-02-12_12h17.15.003,eye_track_exp,2023.1.3,120.14704069045904,
0,0,0,180,168,0,0,180,180,-168,f,abs,resp,freq_bottom,,,,,0,9,9,900,,,,,,,,,,,1.0578666240977173,,,,,,,,,,,,,,,,,,,,,,337.6942412195291,338.1021508273103,338.10216461795426,339.15905230695023,339.15906577688145,462.92038276413257,462.92038276413257,464.41076715748534,464.41076715748534,464.41076715748534,464.41076715748534,341.4748949345361,f,1,2.2698082839102653,None,341.4754048676483,,341.4761562973853,341.4761662394774,341.4767303730273,,,,,,by,001,2,24,f,2024-02-12_12h17.15.003,eye_track_exp,2023.1.3,120.14704069045904,
180,180,180,180,180,-168,180,0,180,-168,f,abs,resp,freq_bottom,,,,,0,10,10,747,,,,,,,,,,,0.9566219138264507,,,,,,,,,,,,,,,,,,,,,,341.4772226669437,341.68225490497923,341.6822686956232,342.6391989111164,342.6392123810476,466.4007333415436,466.4007333415436,467.8911193384596,467.8911193384596,467.8911193384596,467.8911193384596,344.5801217168646,f,1,1.8932380747799016,None,344.5806447991954,,344.58068296400063,344.5806935475181,344.5811502423304,,,,,,by,001,2,24,f,2024-02-12_12h17.15.003,eye_track_exp,2023.1.3,120.14704069045904,
180,168,0,180,180,180,168,0,180,0,f,abs,resp,freq_bottom,,,,,0,11,11,801,,,,,,,,,,,0.8877078866070737,,,,,,,,,,,,,,,,,,,,,,344.581665306845,344.58240134237485,344.5824116051796,345.4698485210015,345.4698619909328,469.23165170862876,469.23165170862876,470.72202744274,470.72202744274,470.72202744274,470.72202744274,347.51135996274604,f,1,1.990613490744181,None,347.51187823438704,,347.51191607847966,347.5119250584338,347.5123904124878,,,,,,by,001,2,24,f,2024-02-12_12h17.15.003,eye_track_exp,2023.1.3,120.14704069045904,
0,-12,180,180,180,90,180,180,0,168,None,present,inhibit,freq_bottom,,,,,0,12,12,28,,,,,,,,,,,0.738898307151457,,,,,,,,,,,,,,,,,,,,,,347.51297988233694,347.7350672983423,347.73508108898625,348.47526856477236,348.4752833175543,472.2374030485662,472.2374030485662,473.72777910339005,473.72777910339005,473.72777910339005,473.72777910339005,350.9672151494392,j,0,2.457393753831184,None,350.96778473510415,474.7102758898493,351.4723609838951,351.4723728502631,351.4733224804173,,,,,,by,001,2,24,f,2024-02-12_12h17.15.003,eye_track_exp,2023.1.3,120.14704069045904,
180,180,180,0,12,0,270,0,0,-12,j,present,resp,freq_bottom,,,,,0,13,13,573,,,,,,,,,,,0.9864413717918952,,,,,,,,,,,,,,,,,,,,,,351.4738734647485,351.47480545570704,351.47481571851176,352.46374568000056,352.4637591499319,476.2256303286407,476.2256303286407,477.7160269090741,477.7160269090741,477.7160269090741,477.7160269090741,354.8879959179694,f,0,2.3882153939813406,None,354.8885985370372,478.623577639401,355.38611493828205,355.38612488037415,355.38648632352977,479.1231542987041,,,,,by,001,2,24,f,2024-02-12_12h17.15.003,eye_track_exp,2023.1.3,120.14704069045904,
180,180,180,0,12,0,-168,0,0,180,None,abs,inhibit,freq_bottom,,,,,0,14,14,397,,,,,,,,,,,1.0856505272346673,,,,,,,,,,,,,,,,,,,,,,355.3870395528496,355.5616339154909,355.56164738542213,356.6517907311478,356.6518054839297,480.4137167517197,480.4137167517197,481.9040934479689,481.9040934479689,481.9040934479689,481.9040934479689,359.68351722996636,None,1,,,359.68391266866274,,359.68470547033155,359.6847157331363,359.68530841011193,,483.394496763368,483.394496763368,,,by,001,2,24,f,2024-02-12_12h17.15.003,eye_track_exp,2023.1.3,120.14704069045904,
180,12,0,0,180,180,12,180,180,270,j,present,resp,freq_bottom,,,,,0,15,15,530,,,,,,,,,,,0.8983210958139459,,,,,,,,,,,,,,,,,,,,,,359.68582892674146,359.68670158585985,359.6867121693773,360.5904156307648,360.5904297421214,484.35200265806645,484.35200265806645,485.8423803164536,485.8423803164536,485.8423803164536,485.8423803164536,362.6821038493215,j,1,2.052950087649492,None,362.6826301387788,,362.6826695864346,362.6826990919983,362.68326707409994,,,,,,by,001,2,24,f,2024-02-12_12h17.15.003,eye_track_exp,2023.1.3,120.14704069045904,
12,180,0,0,0,0,-168,0,90,0,None,present,inhibit,freq_bottom,,,,,0,16,16,246,,,,,,,,,,,1.0311288461465145,,,,,,,,,,,,,,,,,,,,,,362.68378823215494,362.7227153713724,362.72272819987836,363.7543597677527,363.75437355839665,487.52427698540373,487.52427698540373,489.00631868061384,489.00631868061384,489.00631868061384,489.00631868061384,365.5962865965204,j,0,1.7929069710409067,None,365.59681737595474,489.339387105299,366.10149112139095,366.10150394989694,366.10254049317905,,,,,,by,001,2,24,f,2024-02-12_12h17.15.003,eye_track_exp,2023.1.3,120.14704069045904,
180,180,168,0,168,180,180,0,0,180,f,abs,resp,freq_bottom,,,,,0,17,17,911,,,,,,,,,,,0.9850711837112506,,,,,,,,,,,,,,,,,,,,,,366.10366202531316,366.13654533465717,366.13657067095653,367.12641017351837,367.12642428487493,490.8880523633957,490.8880523633957,492.3867714370749,492.3867714370749,492.3867714370749,492.3867714370749,368.94250937122354,f,1,1.7724092634949784,None,368.9430231528876,,368.9437935046708,368.943803446763,368.94428451573674,,,,,,by,001,2,24,f,2024-02-12_12h17.15.003,eye_track_exp,2023.1.3,120.14704069045904,
180,180,180,12,0,270,0,168,0,180,None,present,inhibit,freq_bottom,,,,,0,18,18,207,,,,,,,,,,,0.8667605127876944,,,,,,,,,,,,,,,,,,,,,,368.944792524573,368.94555453782743,368.94556480063216,369.8154388503606,369.8154526410045,493.57741073284126,493.57741073284126,495.06780057830906,495.06780057830906,495.06780057830906,495.06780057830906,372.84691583473807,None,1,,,372.84730614203204,,372.84735200394096,372.8473609838951,372.8480325561824,,496.5581846509492,496.5581846509492,,,by,001,2,24,f,2024-02-12_12h17.15.003,eye_track_exp,2023.1.3,120.14704069045904,
180,180,168,180,180,0,0,168,180,0,f,abs,resp,freq_bottom,,,,,0,19,19,777,,,,,,,,,,,1.097213213915838,,,,,,,,,,,,,,,,,,,,,,372.8485367164669,373.0545503352089,373.05456444656545,374.1535171273383,374.15353059726954,497.91535944190866,497.91535944190866,499.40574608024997,499.40574608024997,499.40574608024997,499.40574608024997,375.74587018321665,f,1,1.544669928473354,None,375.7464035283523,,375.74644233458287,375.7464516352496,375.7469185928668,,,,,,by,001,2,24,f,2024-02-12_12h17.15.003,eye_track_exp,2023.1.3,120.14704069045904,
0,0,-12,0,0,180,180,180,0,168,None,abs,inhibit,freq_bottom,,,,,0,20,20,409,,,,,,,,,,,0.7478574020157956,,,,,,,,,,,,,,,,,,,,,,375.7474105660706,375.9612665712226,375.961282606855,376.71013285200775,376.7101463219391,500.47149666330563,500.47149666330563,501.961882339509,501.961882339509,501.961882339509,501.961882339509,379.7408378810387,None,1,,,379.74131381861,,379.74136352907067,379.74137282973754,379.7419097027122,,503.45227956136773,503.45227956136773,,,by,001,2,24,f,2024-02-12_12h17.15.003,eye_track_exp,2023.1.3,120.14704069045904,
12,180,180,180,0,270,0,12,0,0,j,present,resp,freq_bottom,,,,,0,21,21,594,,,,,,,,,,,0.8253215589581325,,,,,,,,,,,,,,,,,,,,,,379.7424215601003,381.86444727099195,381.8644610616358,382.6962668406212,382.69628063126515,506.45803410843166,506.45803410843166,507.9567413157429,507.9567413157429,507.9567413157429,507.9567413157429,385.0458291961402,j,1,2.3133350839420928,None,385.046405196058,,385.0464443230012,385.0464529822427,385.04717426499076,,,,,,by,001,2,24,f,2024-02-12_12h17.15.003,eye_track_exp,2023.1.3,120.14704069045904,
168,180,0,180,180,180,0,180,168,180,f,abs,resp,freq_bottom,,,,,0,22,22,786,,,,,,,,,,,0.7408762884232906,,,,,,,,,,,,,,,,,,,,,,385.04768419810296,385.24439266004197,385.24440677139853,385.98507114689403,385.98508461682536,509.7468714481074,509.7468714481074,511.2372834227481,511.2372834227481,511.2372834227481,511.2372834227481,388.1762325628532,f,1,2.145195704790467,None,388.17682139127714,,388.17685891465703,388.1768678946113,388.1773540949873,,,,,,by,001,2,24,f,2024-02-12_12h17.15.003,eye_track_exp,2023.1.3,120.14704069045904,
180,0,180,0,180,-12,180,270,0,-12,j,present,resp,freq_bottom,,,,,0,23,23,511,,,,,,,,,,,0.8895366687379136,,,,,,,,,,,,,,,,,,,,,,388.1778255425817,388.3834494954549,388.3834645689493,389.2745133506262,389.2745268205574,513.0357174470247,513.0357174470247,514.5261056889293,514.5261056889293,514.5261056889293,514.5261056889293,390.93183990281113,j,1,1.6083605741833935,None,390.93233700741735,,390.9323742100846,390.932383190039,390.93284052627655,,,,,,by,001,2,24,f,2024-02-12_12h17.15.003,eye_track_exp,2023.1.3,120.14704069045904,
0,-168,180,0,180,180,180,-168,0,180,f,abs,resp,freq_bottom,,,,,0,24,24,871,,,,,,,,,,,0.7060016796310031,,,,,,,,,,,,,,,,,,,,,,390.93331229458363,391.1646705511382,391.16468402106943,391.87169569757566,391.8717094882195,515.6334911880994,515.6334911880994,517.1238762228774,517.1238762228774,517.1238762228774,517.1238762228774,393.84658004859443,f,1,1.9380589503510919,None,393.8471073001897,,393.8471457857074,393.8471550863744,393.8477079949814,,,,,,by,001,2,24,f,2024-02-12_12h17.15.003,eye_track_exp,2023.1.3,120.14704069045904,
0,180,0,168,0,180,180,0,12,180,None,abs,inhibit,freq_bottom,,,,,0,25,25,373,,,,,,,,,,,1.0379360009553913,,,,,,,,,,,,,,,,,,,,,,393.84821023099016,394.0617166593545,394.0617304499983,395.1022929030139,395.1023063729451,518.8640479837437,518.8640479837437,520.3544471298784,520.3544471298784,520.3544471298784,520.3544471298784,398.1337323640114,None,1,,,398.1341345376734,,398.13418136172027,398.1341903416744,398.13473683602865,,521.8448276746793,521.8448276746793,,,by,001,2,24,f,2024-02-12_12h17.15.003,eye_track_exp,2023.1.3,120.14704069045904,
0,0,12,0,0,0,90,0,0,168,None,present,inhibit,freq_bottom,,,,,0,26,26,229,,,,,,,,,,,0.9387309364362852,,,,,,,,,,,,,,,,,,,,,,398.1352342613475,398.3580596371585,398.35807342780254,399.29905235826413,399.2990661489082,523.0687784311764,523.0687784311764,524.5591618623913,524.5591618623913,524.5591618623913,524.5591618623913,401.41475457785236,j,0,2.0706938356771616,None,401.4152766980451,525.1586475675871,401.9207371516097,401.9207499801157,401.92124740543454,,,,,,by,001,2,24,f,2024-02-12_12h17.15.003,eye_track_exp,2023.1.3,120.14704069045904,
12,0,180,0,180,90,180,168,180,180,None,present,inhibit,freq_bottom,,,,,0,27,27,129,,,,,,,,,,,0.9561983396966358,,,,,,,,,,,,,,,,,,,,,,401.9218157082489,402.19680692072234,402.19682167350425,403.1541005036472,403.15411429429105,526.9154720120486,526.9154720120486,528.4058634610795,528.4058634610795,528.4058634610795,528.4058634610795,406.0111152589948,f,0,2.816444713788428,None,406.0116126843136,529.7463823613174,406.50937924142477,406.509389183517,406.50982984269694,530.2459487578159,,,,,by,001,2,24,f,2024-02-12_12h17.15.003,eye_track_exp,2023.1.3,120.14704069045904,
0,12,0,0,0,180,0,-12,0,90,j,present,resp,freq_bottom,,,,,0,28,28,662,,,,,,,,,,,0.9710385913556994,,,,,,,,,,,,,,,,,,,,,,406.51038082702803,406.5113035173197,406.51132243936604,407.48345796226886,407.4834714322001,531.2534229661045,531.2534229661045,532.7438102458713,532.7438102458713,532.7438102458713,532.7438102458713,410.0653920263137,j,1,2.5249448176990654,None,410.0658920173339,,410.066622280036,410.0666322221282,410.0670873133772,,,,,,by,001,2,24,f,2024-02-12_12h17.15.003,eye_track_exp,2023.1.3,120.14704069045904,
0,0,0,12,0,0,270,180,180,12,j,present,resp,freq_bottom,,,,,0,29,29,623,,,,,,,,,,,0.8645112673721635,,,,,,,,,,,,,,,,,,,,,,410.0675754380293,410.2649577172442,410.26497118717566,411.1301118389149,411.13012530884635,534.8919656991408,534.8919656991408,536.390678358567,536.390678358567,536.390678358567,536.390678358567,413.37958266304395,j,1,2.2148814320513566,None,413.3801147253289,,413.3801554558354,413.38017630215745,413.38066154039575,,,,,,by,001,2,24,f,2024-02-12_12h17.15.003,eye_track_exp,2023.1.3,120.14704069045904,
0,0,180,180,180,90,0,12,0,12,j,present,resp,freq_bottom,,,,,0,30,30,439,,,,,,,,,,,0.9651204867196013,,,,,,,,,,,,,,,,,,,,,,413.3811852641518,413.59547711779396,413.5954912291504,414.5608670915467,414.56088088219076,538.3306938682307,538.3306938682307,539.8127410155558,539.8127410155558,539.8127410155558,539.8127410155558,416.8687217291799,j,1,2.2637333449096104,None,416.8693182547074,,416.869357060938,416.86936604089215,416.8698253014056,,,,,,by,001,2,24,f,2024-02-12_12h17.15.003,eye_track_exp,2023.1.3,120.14704069045904,
0,0,0,0,168,0,0,0,0,168,f,abs,resp,freq_bottom,,,,,0,31,31,935,,,,,,,,,,,1.0211987249419487,,,,,,,,,,,,,,,,,,,,,,416.8703156710462,417.0927379110574,417.0927513809886,418.11594980975315,418.1159636003972,541.8776407479533,541.8776407479533,543.368025141306,543.368025141306,543.368025141306,543.368025141306,419.6410641758839,f,1,1.4685211999066041,None,419.6415741089961,,419.6416113116634,419.6416202916175,419.64206512006194,,,,,,by,001,2,24,f,2024-02-12_12h17.15.003,eye_track_exp,2023.1.3,120.14704069045904,
0,-12,0,180,180,180,90,180,0,12,j,present,resp,freq_bottom,,,,,0,32,32,476,,,,,,,,,,,0.8132962310989356,,,,,,,,,,,,,,,,,,,,,,419.64254266119656,419.8816284890329,419.8816419589641,420.69739703199684,420.6974108226407,544.4670948821957,544.4670948821957,545.949149405912,545.949149405912,545.949149405912,545.949149405912,422.521296602755,j,1,1.775299846601797,None,422.5217953109245,,422.52183347572964,422.521842455684,422.522508896569,,,,,,by,001,2,24,f,2024-02-12_12h17.15.003,eye_track_exp,2023.1.3,120.14704069045904,
90,0,0,180,180,12,0,168,0,0,None,present,inhibit,freq_bottom,,,,,0,33,33,58,,,,,,,,,,,0.8604690214341628,,,,,,,,,,,,,,,,,,,,,,422.52298098558845,422.76216142365615,422.76217553501283,423.6281814694796,423.6281952601237,547.3895725413528,547.3895725413528,548.8882954635836,548.8882954635836,548.8882954635836,548.8882954635836,426.6592582044709,None,1,,,426.65966583024806,,426.6597039950534,426.65971265429494,426.6602646007641,,550.3620201176631,550.3620201176631,,,by,001,2,24,f,2024-02-12_12h17.15.003,eye_track_exp,2023.1.3,120.14704069045904,
180,0,180,0,180,90,180,12,180,168,None,present,inhibit,freq_bottom,,,,,0,34,34,124,,,,,,,,,,,1.0855183074287629,,,,,,,,,,,,,,,,,,,,,,426.6607780617153,427.4336144058991,427.4336288379682,428.52367693203723,428.5236910433937,552.2937099269544,552.2937099269544,553.7840888681923,553.7840888681923,553.7840888681923,553.7840888681923,431.38949364604105,f,0,2.811404393794078,None,431.3899968441874,555.1329360345036,431.8950333156299,431.8950458234233,431.8957456184237,,,,,,by,001,2,24,f,2024-02-12_12h17.15.003,eye_track_exp,2023.1.3,120.14704069045904,
12,180,0,0,-168,180,270,0,180,180,None,present,inhibit,freq_bottom,,,,,0,35,35,323,,,,,,,,,,,0.9117375596649105,,,,,,,,,,,,,,,,,,,,,,431.8962975648931,432.9953653815069,432.99537949286355,433.9109839592361,433.91099807059277,557.680744027689,557.680744027689,559.1711313074558,559.1711313074558,559.1711313074558,559.1711313074558,436.95035239905883,None,1,,,436.95073949922653,,436.9515268487801,436.9515374322975,436.9523751337372,,560.6448742421561,560.6448742421561,,,by,001,2,24,f,2024-02-12_12h17.15.003,eye_track_exp,2023.1.3,120.14704069045904,
0,180,180,12,180,180,-168,180,0,180,None,abs,inhibit,freq_bottom,,,,,0,36,36,396,,,,,,,,,,,1.0499023637230067,,,,,,,,,,,,,,,,,,,,,,436.9528934053783,437.18412049045946,437.1841346018159,438.2320644658082,438.23207857716466,561.993708900674,561.993708900674,563.4841298552689,563.4841298552689,563.4841298552689,563.4841298552689,441.2867607252724,None,1,,,441.2872690548213,,441.28732838666133,441.2873405737421,441.2882501148151,,564.9807165105439,564.9807165105439,,,by,001,2,24,f,2024-02-12_12h17.15.003,eye_track_exp,2023.1.3,120.14704069045904,
-168,180,180,0,-168,180,90,0,180,180,f,present,resp,freq_bottom,,,,,0,37,37,722,,,,,,,,,,,0.9196605463775901,,,,,,,,,,,,,,,,,,,,,,441.2889774911034,441.4970956262491,441.4971151897207,442.4202285013482,442.4202422919923,566.1901130063092,566.1901130063092,567.6804941925353,567.6804941925353,567.6804941925353,567.6804941925353,444.4782797358355,f,1,2.0030885713712223,None,444.47882687161496,,444.47886471570746,444.478873374949,444.47933359760054,,,,,,by,001,2,24,f,2024-02-12_12h17.15.003,eye_track_exp,2023.1.3,120.14704069045904,
0,-168,0,-168,0,0,270,180,180,0,f,present,resp,freq_bottom,,,,,0,38,38,701,,,,,,,,,,,0.9087424702862706,,,,,,,,,,,,,,,,,,,,,,444.4798364750345,444.67697821976253,444.67699136898113,445.59251020507645,445.5925239957203,569.354058105435,569.354058105435,570.8444572515697,570.8444572515697,570.8444572515697,570.8444572515697,447.916905918303,f,1,2.2784255120806165,None,447.9174283592083,,447.9174687690022,447.91747774895634,447.9179347644815,,,,,,by,001,2,24,f,2024-02-12_12h17.15.003,eye_track_exp,2023.1.3,120.14704069045904,
180,168,0,0,0,0,12,0,0,180,None,abs,inhibit,freq_bottom,,,,,0,39,39,361,,,,,,,,,,,0.7558927282437136,,,,,,,,,,,,,,,,,,,,,,447.9184366797774,448.14047759244863,448.14049106237985,448.8978777161153,448.8979004867135,572.659551656545,572.659551656545,574.1499421434381,574.1499421434381,574.1499421434381,574.1499421434381,451.928941301888,None,1,,,451.92933577844656,,451.9293739432519,451.92938292320605,451.9299364732385,,575.6403242918024,575.6403242918024,,,by,001,2,24,f,2024-02-12_12h17.15.003,eye_track_exp,2023.1.3,120.14704069045904,
180,0,180,0,-12,270,180,0,-12,180,j,present,resp,freq_bottom,,,,,0,40,40,737,,,,,,,,,,,0.966100319411682,,,,,,,,,,,,,,,,,,,,,,451.93044223708625,451.93120200535213,451.93121226815674,452.89444512863133,452.8944589192754,576.656131897567,576.656131897567,578.146523346598,578.146523346598,578.146523346598,578.146523346598,454.9184446975937,j,1,1.9844089838335321,None,454.9189578378323,,454.9189960026374,454.9190049825918,454.9195681540036,,,,,,by,001,2,24,f,2024-02-12_12h17.15.003,eye_track_exp,2023.1.3,120.14704069045904,
180,180,-168,0,0,0,90,0,-168,180,f,present,resp,freq_bottom,,,,,0,41,41,679,,,,,,,,,,,1.036082308842683,,,,,,,,,,,,,,,,,,,,,,454.92004761941416,454.99318261121675,454.9931951190101,456.03355937160836,456.0335731622524,579.7950982920128,579.7950982920128,581.2854858924919,581.2854858924919,581.2854858924919,581.2854858924919,458.19052512206326,f,1,2.109233554014395,None,458.1911277411309,,458.19116590593626,458.1911748858904,475.04307267092054,,,,,,by,001,2,24,f,2024-02-12_12h17.15.003,eye_track_exp,2023.1.3,120.14704069045904,
-168,180,180,180,180,180,12,180,180,180,None,abs,inhibit,freq_bottom,,,,,0,42,42,354,,,,,,,,,,,0.9757174995967961,,,,,,,,,,,,,,,,,,,,,,475.0436278245163,475.2007484791807,475.2007619491119,476.1829098002088,476.18292359085285,599.9444827161539,599.9444827161539,601.4348629402422,601.4348629402422,601.4348629402422,601.4348629402422,479.21429987145825,None,1,,,479.2147026865457,,479.214739889213,479.2147485484545,479.21535373322354,,602.9252505407215,602.9252505407215,,,by,001,2,24,f,2024-02-12_12h17.15.003,eye_track_exp,2023.1.3,120.14704069045904,
180,-168,0,180,180,-168,0,0,180,0,f,abs,resp,freq_bottom,,,,,0,43,43,808,,,,,,,,,,,1.082605805275845,,,,,,,,,,,,,,,,,,,,,,479.2158569313701,479.216761020328,479.21677096242024,480.29607261704086,480.2960860869721,604.0576153859969,604.0576153859969,,,,,481.6459467052548,f,1,1.3011813573892823,None,481.6464829368042,,481.64652302588524,481.6465320058396,481.64698870065195,,,,,,by,001,2,24,f,2024-02-12_12h17.15.003,eye_track_exp,2023.1.3,120.14704069045904,
12,0,0,0,0,168,180,270,180,180,None,present,inhibit,freq_bottom,,,,,0,44,44,264,,,,,,,,,,,0.7233535666810497,,,,,,,,,,,,,,,,,,,,,,481.6474947852123,481.8615412936779,481.8615544428965,482.585555871992,482.58556934192325,606.3473173669748,606.3473173669748,607.8377062503047,607.8377062503047,607.8377062503047,607.8377062503047,485.61683401452706,None,1,,,485.61720219264816,,485.6172387538902,485.61724741313174,485.6179969185928,,609.3280941714967,609.3280941714967,,,by,001,2,24,f,2024-02-12_12h17.15.003,eye_track_exp,2023.1.3,120.14704069045904,
168,0,168,0,0,0,0,0,0,0,f,abs,resp,freq_bottom,,,,,0,45,45,973,,,,,,,,,,,0.9422702560165892,,,,,,,,,,,,,,,,,,,,,,485.61851262453274,485.8418444056167,485.8418601205367,486.79029048868915,486.7903046000456,610.5520452487063,610.5520452487063,,,,,488.1906678391922,f,1,1.3663245106873774,None,488.19119733577577,,488.1912355005811,488.19124448053526,488.1918169526141,,,,,,by,001,2,24,f,2024-02-12_12h17.15.003,eye_track_exp,2023.1.3,120.14704069045904,
180,-168,180,180,0,90,180,180,180,-168,f,present,resp,freq_bottom,,,,,0,46,46,598,,,,,,,,,,,0.7600070022517712,,,,,,,,,,,,,,,,,,,,,,488.19231983004784,488.38977330747116,488.38978645668976,489.15482050354444,489.15483397347566,612.9166778916093,612.9166778916093,614.4070661335139,614.4070661335139,614.4070661335139,614.4070661335139,491.2792817062939,f,1,2.0899048440745673,None,491.27984295343003,,491.2798801560973,491.27988913605145,491.2803474344271,,,,,,by,001,2,24,f,2024-02-12_12h17.15.003,eye_track_exp,2023.1.3,120.14704069045904,
0,0,0,180,180,168,0,168,0,0,f,abs,resp,freq_bottom,,,,,0,47,47,802,,,,,,,,,,,1.0019048956963346,,,,,,,,,,,,,,,,,,,,,,491.28082593769955,491.49536602293233,491.4953801342888,492.50175814674276,492.501771616674,616.2638114902362,616.2638114902362,617.7541936386004,617.7541936386004,617.7541936386004,617.7541936386004,495.2256787562508,f,1,2.6785947200743294,None,495.22619317934004,,495.2262303820073,495.22623904124885,495.22681824829306,,,,,,by,001,2,24,f,2024-02-12_12h17.15.003,eye_track_exp,2023.1.3,120.14704069045904,
0,0,168,0,180,180,180,168,0,0,f,abs,resp,freq_bottom,,,,,0,48,48,876,,,,,,,,,,,0.9463957353198138,,,,,,,,,,,,,,,,,,,,,,495.2273057315199,495.4330172389464,495.433030388165,496.38228498782564,496.38229941989493,620.1521399872228,620.1521399872228,621.642531436254,621.642531436254,621.642531436254,621.642531436254,498.098936965853,f,1,1.6695041200335936,None,498.09946261388495,,498.09950142011553,498.0995107207825,498.0999831305146,,,,,,by,001,2,24,f,2024-02-12_12h17.15.003,eye_track_exp,2023.1.3,120.14704069045904,
0,0,180,180,180,90,0,168,0,12,None,present,inhibit,freq_bottom,,,,,0,49,49,21,,,,,,,,,,,0.9463185346150398,,,,,,,,,,,,,,,,,,,,,,498.10047734870705,498.3638796096029,498.3638943623848,499.313091875194,499.3131053451252,623.082974455879,623.082974455879,624.573340247898,624.573340247898,624.573340247898,624.573340247898,502.352297392991,None,1,,,502.35267423035384,,502.35271239515896,502.3527242615271,502.3532803772607,,626.047077089058,626.047077089058,,,by,001,2,24,f,2024-02-12_12h17.15.003,eye_track_exp,2023.1.3,120.14704069045904,
0,180,-168,0,0,0,12,180,90,180,None,present,inhibit,freq_bottom,,,,,0,50,50,284,,,,,,,,,,,0.9726127361564678,,,,,,,,,,,,,,,,,,,,,,502.35379800747637,502.6101012938832,502.6101147638144,503.5839301795734,503.58394429093005,627.3459639595955,627.3459639595955,628.8363547672012,628.8363547672012,628.8363547672012,628.8363547672012,506.6152333376949,None,1,,,506.61563422850645,,506.61567207259895,506.6156807318405,506.6162394132755,,630.3267375569907,630.3267375569907,,,by,001,2,24,f,2024-02-12_12h17.15.003,eye_track_exp,2023.1.3,120.14704069045904,
180,-168,180,180,180,180,180,180,-168,180,f,abs,resp,freq_bottom,,,,,0,51,51,772,,,,,,,,,,,0.7055759743616543,,,,,,,,,,,,,,,,,,,,,,506.6167564020659,506.6986372278111,506.69864941489186,507.4060263831054,507.40603985303665,631.1676897400174,631.1676897400174,,,,,508.6392380380596,f,1,1.1983130958827815,None,508.639731294114,,508.6397707417698,508.6397794010113,508.64034225171076,,,,,,by,001,2,24,f,2024-02-12_12h17.15.003,eye_track_exp,2023.1.3,120.14704069045904,
0,0,12,0,12,180,180,270,0,0,j,present,resp,freq_bottom,,,,,0,52,52,580,,,,,,,,,,,0.9854722853411966,,,,,,,,,,,,,,,,,,,,,,508.64081786856946,508.8386680675394,508.8386808960454,509.82939690627745,509.82941037620867,633.5906109447682,633.5906109447682,635.0809966209716,635.0809966209716,635.0809966209716,635.0809966209716,512.5356924314381,j,1,2.6622749362089735,None,512.536187932481,,512.5362254558609,512.5362341151024,512.5367010727196,,,,,,by,001,2,24,f,2024-02-12_12h17.15.003,eye_track_exp,2023.1.3,120.14704069045904,
0,0,-168,180,180,180,90,0,0,12,None,present,inhibit,freq_bottom,,,,,0,53,53,64,,,,,,,,,,,0.8232272900892087,,,,,,,,,,,,,,,,,,,,,,512.5371734824519,512.7848194516071,512.784832280113,513.60885275954,513.6088662294712,637.370693470547,637.370693470547,638.861083316015,638.861083316015,638.861083316015,638.861083316015,516.6402309644213,None,1,,,516.640607160359,,516.6406446837389,516.6406533429804,516.6411183763216,,640.3514677093677,640.3514677093677,,,by,001,2,24,f,2024-02-12_12h17.15.003,eye_track_exp,2023.1.3,120.14704069045904,
180,-168,0,180,180,180,-168,0,180,0,f,abs,resp,freq_bottom,,,,,0,54,54,809,,,,,,,,,,,0.7328091625660517,,,,,,,,,,,,,,,,,,,,,,516.6416023317092,516.8734365258354,516.8734493543413,517.6058268356951,517.6058403056263,641.3755936391136,641.3755936391136,642.8659802774549,642.8659802774549,642.8659802774549,642.8659802774549,519.3549625151056,f,1,1.6933458983727405,None,519.35545577116,,519.3554932945399,519.355502274494,519.3558906575122,,,,,,by,001,2,24,f,2024-02-12_12h17.15.003,eye_track_exp,2023.1.3,120.14704069045904,
180,0,180,0,180,180,-168,180,-168,0,f,abs,resp,freq_bottom,,,,,0,55,55,860,,,,,,,,,,,0.7098235171118293,,,,,,,,,,,,,,,,,,,,,,519.3563646708076,519.5622233853401,519.5622368552713,520.2782127710343,520.2782265616781,644.0399694553274,644.0399694553274,645.5303522451169,645.5303522451169,645.5303522451169,645.5303522451169,522.8021084290981,f,1,2.4863986851088384,None,522.8026199657736,,522.8026571684409,522.802666148395,522.8031106561268,,,,,,by,001,2,24,f,2024-02-12_12h17.15.003,eye_track_exp,2023.1.3,120.14704069045904,
180,180,180,0,180,-12,0,90,180,12,j,present,resp,freq_bottom,,,,,0,56,56,505,,,,,,,,,,,0.735973451176416,,,,,,,,,,,,,,,,,,,,,,522.8035936493764,523.0347116921569,523.0347251620881,523.7752083349369,523.7752218048681,647.5369701506323,647.5369701506323,649.0273619203759,649.0273619203759,649.0273619203759,649.0273619203759,526.1323215490677,j,1,2.3159790390217267,None,526.1328475178123,,526.1328856826176,526.1328946625717,526.1336467337342,,,,,,by,001,2,24,f,2024-02-12_12h17.15.003,eye_track_exp,2023.1.3,120.14704069045904,
-168,180,0,12,180,90,180,180,0,180,None,present,inhibit,freq_bottom,,,,,0,57,57,91,,,,,,,,,,,0.9518514854915758,,,,,,,,,,,,,,,,,,,,,,526.1341338962482,526.165576564372,526.1655884307402,527.1225414168316,527.1225552074754,650.8841098427996,650.8841098427996,652.374488142612,652.374488142612,652.374488142612,652.374488142612,530.1537057063761,None,1,,,530.1540780537616,,530.1541155771417,530.1541245570959,530.1545860625979,,653.8648702909762,653.8648702909762,,,by,001,2,24,f,2024-02-12_12h17.15.003,eye_track_exp,2023.1.3,120.14704069045904,
180,-168,180,180,180,180,0,180,0,-168,f,abs,resp,freq_bottom,,,,,0,58,58,773,,,,,,,,,,,0.8079654259031868,,,,,,,,,,,,,,,,,,,,,,530.1550767529511,530.1558095813546,530.1558195234466,530.9610343752645,530.9610478451959,654.7224812511384,654.7224812511384,656.2128553816866,656.2128553816866,656.2128553816866,656.2128553816866,532.5693781638304,f,1,1.5620345941496225,None,532.5698925869194,,532.5699304310122,532.5699390902537,532.5704057271582,,,,,,by,001,2,24,f,2024-02-12_12h17.15.003,eye_track_exp,2023.1.3,120.14704069045904,
180,12,0,168,0,0,90,180,180,180,None,present,inhibit,freq_bottom,,,,,0,59,59,197,,,,,,,,,,,1.0228289984209462,,,,,,,,,,,,,,,,,,,,,,532.570892248247,532.8098446596211,532.8098578088398,533.8337630882831,533.8337765582144,657.5950108016021,657.5950108016021,659.0937324409825,659.0937324409825,659.0937324409825,659.0937324409825,536.8647327052497,None,1,,,536.8651121083137,,536.8651502731188,536.865159253073,536.8658510302573,,660.5674558122113,660.5674558122113,,,by,001,2,24,f,2024-02-12_12h17.15.003,eye_track_exp,2023.1.3,120.14704069045904,
180,180,180,180,0,-168,180,180,-168,0,f,abs,resp,freq_bottom,,,,,0,60,60,938,,,,,,,,,,,1.0475279325443205,,,,,,,,,,,,,,,,,,,,,,536.8663596805188,537.2304743724935,537.2304881631376,538.2796489222771,538.2796623922084,662.0495164294676,662.0495164294676,663.5315741603102,663.5315741603102,663.5315741603102,663.5315741603102,539.7888815980214,f,1,1.4505619329787578,None,539.7893815890413,,539.7894236023983,539.7894322616398,539.7899659274881,,,,,,by,001,2,24,f,2024-02-12_12h17.15.003,eye_track_exp,2023.1.3,120.14704069045904,
180,12,0,0,0,270,0,168,180,180,None,present,inhibit,freq_bottom,,,,,0,61,61,254,,,,,,,,,,,0.9653803421975827,,,,,,,,,,,,,,,,,,,,,,539.7904537314275,539.9699771267738,539.9699902759924,540.9356993588312,540.9357144323258,664.7055716767114,664.7055716767114,666.1959714642713,666.1959714642713,666.1959714642713,666.1959714642713,543.974931495778,None,1,,,543.9753160302444,,543.9753532329119,543.9753615714405,543.9759176871744,,667.6696932319368,667.6696932319368,,,by,001,2,24,f,2024-02-12_12h17.15.003,eye_track_exp,2023.1.3,120.14704069045904,
12,0,0,180,180,12,180,180,90,0,j,present,resp,freq_bottom,,,,,0,62,62,470,,,,,,,,,,,0.8537263889643708,,,,,,,,,,,,,,,,,,,,,,543.9764125467921,544.2161741161801,544.2161875861113,545.0738206754465,545.0738338246651,668.8436843340852,668.8436843340852,670.3340773866795,670.3340773866795,670.3340773866795,670.3340773866795,547.7225200573691,j,1,2.5915812090917143,None,547.7230229348029,,547.7230607788956,547.7230694381371,547.7235434514325,,,,,,by,001,2,24,f,2024-02-12_12h17.15.003,eye_track_exp,2023.1.3,120.14704069045904,
180,180,180,168,180,180,180,180,180,168,f,abs,resp,freq_bottom,,,,,0,63,63,819,,,,,,,,,,,0.8922854727960022,,,,,,,,,,,,,,,,,,,,,,547.7240139368889,547.9214751114155,547.9214892227722,548.8201825111544,548.820195660373,672.5821495829454,672.5821495829454,674.0725378248497,674.0725378248497,674.0725378248497,674.0725378248497,550.6781016761727,f,1,1.812846638577298,None,550.6786244377906,,550.6786629233086,550.6786719032627,550.679130522351,,,,,,by,001,2,24,f,2024-02-12_12h17.15.003,eye_track_exp,2023.1.3,120.14704069045904,
180,180,180,12,180,168,0,0,90,0,None,present,inhibit,freq_bottom,,,,,0,64,64,87,,,,,,,,,,,0.846574001142843,,,,,,,,,,,,,,,,,,,,,,550.6796093463363,551.3354975022899,551.3355112929337,552.1840816842289,552.1840951541601,675.9459313751903,675.9459313751903,677.4363167306809,677.4363167306809,677.4363167306809,677.4363167306809,555.2158123523118,None,1,,,555.2162090738589,,555.2162456351009,555.2162539736298,555.2168110515013,,678.9266950304933,678.9266950304933,,,by,001,2,24,f,2024-02-12_12h17.15.003,eye_track_exp,2023.1.3,120.14704069045904,
180,180,0,168,0,168,0,180,0,0,f,abs,resp,freq_bottom,,,,,0,65,65,942,,,,,,,,,,,1.0593471678025779,,,,,,,,,,,,,,,,,,,,,,555.2173148910731,555.4322016666795,555.4322151366107,556.4973611763226,556.497374646254,680.2588920789107,680.2588920789107,,,,,557.8474985696216,f,1,1.3036784260758623,None,557.8480123512854,,557.8480501953782,557.8480591753323,557.8483340260727,,,,,,by,001,2,24,f,2024-02-12_12h17.15.003,eye_track_exp,2023.1.3,120.14704069045904,
180,180,180,180,12,0,-168,0,90,0,None,present,inhibit,freq_bottom,,,,,0,66,66,147,,,,,,,,,,,0.7961288808836864,,,,,,,,,,,,,,,,,,,,,,557.8488083600807,558.7872568677406,558.7872709790972,559.5861203262546,559.5861341168984,683.3479103646631,683.3479103646631,684.8382963615792,684.8382963615792,684.8382963615792,684.8382963615792,562.0105796688706,j,0,2.37502031345673,None,562.0110944126725,685.7541779236807,562.5162668662781,562.5162793740715,562.517268131169,,,,,,by,001,2,24,f,2024-02-12_12h17.15.003,eye_track_exp,2023.1.3,120.14704069045904,
-12,180,180,0,0,0,12,0,90,0,j,present,resp,freq_bottom,,,,,0,67,67,635,,,,,,,,,,,1.0601896669971427,,,,,,,,,,,,,,,,,,,,,,562.5178053248562,562.5188213425288,562.5188319260462,563.5830280148914,563.5830418055352,687.3444604586961,687.3444604586961,,,,,564.9167019450581,j,1,1.2904673099186539,None,564.9172154060093,,564.9179623457692,564.9179722878614,564.9184520739846,,,,,,by,001,2,24,f,2024-02-12_12h17.15.003,eye_track_exp,2023.1.3,120.14704069045904,
180,12,0,180,180,180,-168,180,270,0,None,present,inhibit,freq_bottom,,,,,0,68,68,47,,,,,,,,,,,1.0017152065999062,,,,,,,,,,,,,,,,,,,,,,564.9189405193492,565.1486923262444,565.1487057961756,566.155221394356,566.1552355057124,689.9172667200334,689.9172667200334,691.4076527169492,691.4076527169492,691.4076527169492,691.4076527169492,569.1865107618337,None,1,,,569.1868856749204,,569.186935385381,569.1869443653354,569.1873859866532,,692.8980387138653,692.8980387138653,,,by,001,2,24,f,2024-02-12_12h17.15.003,eye_track_exp,2023.1.3,120.14704069045904,
180,180,180,180,12,0,-168,0,90,0,None,present,inhibit,freq_bottom,,,,,0,69,69,151,,,,,,,,,,,0.8579124918108498,,,,,,,,,,,,,,,,,,,,,,569.187853264983,569.1887374697567,569.1887470911363,570.0436778556896,570.0437022298509,693.8139225209553,693.8139225209553,695.304315252837,695.304315252837,695.304315252837,695.304315252837,573.0838881662164,None,1,,,573.0842617964527,,573.0842993198326,573.0843076583615,573.0847556939323,,696.778048566158,696.778048566158,,,by,001,2,24,f,2024-02-12_12h17.15.003,eye_track_exp,2023.1.3,120.14704069045904,
0,0,-168,180,180,180,180,0,0,-168,f,abs,resp,freq_bottom,,,,,0,70,70,813,,,,,,,,,,,0.9156009603651226,,,,,,,,,,,,,,,,,,,,,,573.0852329143543,573.3576590670598,573.357672536991,574.2733482015717,574.2733619922155,698.035299558443,698.035299558443,699.5256855553588,699.5256855553588,699.5256855553588,699.5256855553588,576.04783397091,j,0,1.7343095629122445,None,576.0483756545746,699.7921294550193,576.5542190390422,576.5542309054103,576.5551651413573,,,,,,by,001,2,24,f,2024-02-12_12h17.15.003,eye_track_exp,2023.1.3,120.14704069045904,
90,0,0,180,180,12,0,168,0,0,None,present,inhibit,freq_bottom,,,,,0,71,71,55,,,,,,,,,,,1.0398355151875571,,,,,,,,,,,,,,,,,,,,,,576.5556946379411,577.4543949820015,577.4544090933582,578.4946315909656,578.4946453816096,702.25668140662,702.25668140662,703.7470680449613,703.7470680449613,703.7470680449613,703.7470680449613,581.5264478893259,None,1,,,581.5268535908272,,581.527605982702,581.5276162455068,581.5281592120218,,705.2374505140382,705.2374505140382,,,by,001,2,24,f,2024-02-12_12h17.15.003,eye_track_exp,2023.1.3,120.14704069045904,
180,180,-168,0,168,180,180,0,180,180,f,abs,resp,freq_bottom,,,,,0,72,72,937,,,,,,,,,,,0.9928181075080702,,,,,,,,,,,,,,,,,,,,,,581.5286665794329,581.5294821516995,581.5295081294241,582.5250851812796,582.5250992926362,706.2865496963492,706.2865496963492,,,,,583.9745046272421,f,1,1.4026917215393269,None,583.975019371044,,583.975068760792,583.975078702884,583.9756274422268,,,,,,by,001,2,24,f,2024-02-12_12h17.15.003,eye_track_exp,2023.1.3,120.14704069045904,
180,168,180,180,180,168,0,0,180,270,f,present,resp,freq_bottom,,,,,0,73,73,429,,,,,,,,,,,1.0302150278407791,,,,,,,,,,,,,,,,,,,,,,583.9761425067413,584.2237846273447,584.2237977765633,585.255515936853,585.2555294067843,709.0175372090815,709.0175372090815,710.5079318652391,710.5079318652391,710.5079318652391,710.5079318652391,588.2872077987054,None,0,,,588.2876009924132,712.0316174565179,588.7937227554605,588.7937343011158,588.7942105593997,,711.9983310113738,711.9983310113738,,,by,001,2,24,f,2024-02-12_12h17.15.003,eye_track_exp,2023.1.3,120.14704069045904,
168,0,0,0,0,0,12,0,270,180,None,present,inhibit,freq_bottom,,,,,0,74,74,258,,,,,,,,,,,0.9947108513409835,,,,,,,,,,,,,,,,,,,,,,588.7947522430643,588.7956143186652,588.7956338821368,589.7937743901969,589.7937885015535,713.5636406145367,713.5636406145367,715.0540311014298,715.0540311014298,715.0540311014298,715.0540311014298,592.4257543802933,j,0,2.573868890903782,None,592.4262912532681,716.1614089034964,592.9247781309894,592.9247887145068,592.9250690173621,716.6609817142477,,,,,by,001,2,24,f,2024-02-12_12h17.15.003,eye_track_exp,2023.1.3,120.14704069045904,
180,180,180,-12,0,0,0,270,180,12,j,present,resp,freq_bottom,,,,,0,75,75,704,,,,,,,,,,,0.8806383305396434,,,,,,,,,,,,,,,,,,,,,,592.9256046074861,594.0075300122896,594.0075441236463,594.8892659400601,594.8892794099913,718.6592530730687,718.6592530730687,720.1496502949273,720.1496502949273,720.1496502949273,720.1496502949273,597.1216992254149,f,0,2.182049436731063,None,597.1222053099752,720.8573790849169,597.619799323681,597.6198089450606,597.6201594839861,721.3569470849785,,,,,by,001,2,24,f,2024-02-12_12h17.15.003,eye_track_exp,2023.1.3,120.14704069045904,
168,180,0,180,180,180,0,180,168,180,f,abs,resp,freq_bottom,,,,,0,76,76,793,,,,,,,,,,,0.8772618895839878,,,,,,,,,,,,,,,,,,,,,,597.6206800006157,598.620253773505,598.6202678848615,599.5025865475154,599.5026000174466,723.263651775337,723.263651775337,,,,,600.7518643026297,f,1,1.2089796778813025,None,600.7524146455355,,600.7531609438702,600.753171206675,600.7537411130525,,,,,,by,001,2,24,f,2024-02-12_12h17.15.003,eye_track_exp,2023.1.3,120.14704069045904,
-168,180,0,0,0,0,168,0,0,0,f,abs,resp,freq_bottom,,,,,0,77,77,992,,,,,,,,,,,0.8307677770422659,,,,,,,,,,,,,,,,,,,,,,600.7542481597509,601.4172635129069,601.4172779449759,602.2497732561569,602.2497873675136,726.0112919716645,726.0112919716645,727.5016770064425,727.5016770064425,727.5016770064425,727.5016770064425,604.141260772738,f,1,1.8530944724842584,None,604.1417572359187,,604.1417947592988,604.141803739253,604.142274545422,,,,,,by,001,2,24,f,2024-02-12_12h17.15.003,eye_track_exp,2023.1.3,120.14704069045904,
-12,0,12,0,0,0,0,180,90,180,j,present,resp,freq_bottom,,,,,0,78,78,656,,,,,,,,,,,0.8673403864599638,,,,,,,,,,,,,,,,,,,,,,604.1432264205646,604.3567293210897,604.3567421495957,605.2304031742856,605.2304169649294,729.0003880623054,729.0003880623054,,,,,606.5886982145284,j,1,1.3116423625796187,None,606.5891933948587,,606.5892305975262,606.5892395774804,606.5897049315342,,,,,,by,001,2,24,f,2024-02-12_12h17.15.003,eye_track_exp,2023.1.3,120.14704069045904,
0,168,180,180,180,168,0,180,0,180,f,abs,resp,freq_bottom,,,,,0,79,79,761,,,,,,,,,,,0.868073112400112,,,,,,,,,,,,,,,,,,,,,,606.5901811898182,606.8132467794035,606.8132596079095,607.6866028063639,607.6866162762951,731.4482934238514,731.4482934238514,732.9386752515028,732.9386752515028,732.9386752515028,732.9386752515028,610.3108561873166,f,1,2.575603304910487,None,610.3113808732107,,610.3114196794413,610.3114289801081,610.3118936927367,,,,,,by,001,2,24,f,2024-02-12_12h17.15.003,eye_track_exp,2023.1.3,120.14704069045904,
180,180,180,270,0,0,12,0,0,-12,j,present,resp,freq_bottom,,,,,0,80,80,590,,,,,,,,,,,0.983025249394927,,,,,,,,,,,,,,,,,,,,,,610.3124004187225,610.5425204037388,610.54253387367,611.5254860720911,611.5254998627349,735.2866629079145,735.2866629079145,736.7770540362329,736.7770540362329,736.7770540362329,736.7770540362329,613.6162981036903,j,1,2.0499700257136055,None,613.6168215067337,,613.6168599922516,613.6168692929184,613.6172323396372,,,,,,by,001,2,24,f,2024-02-12_12h17.15.003,eye_track_exp,2023.1.3,120.14704069045904,
180,180,180,0,0,-168,180,180,168,180,f,abs,resp,freq_bottom,,,,,0,81,81,956,,,,,,,,,,,0.8010801592210197,,,,,,,,,,,,,,,,,,,,,,613.6177364999216,613.6188230743771,613.6188336578946,614.4306337025378,614.430647172469,738.1925145026261,738.1925145026261,739.6828918403006,739.6828918403006,739.6828918403006,739.6828918403006,617.0050008723383,f,1,2.535440780568365,None,617.0054989390826,,617.0055364624625,617.0055454424166,617.0059123376873,,,,,,by,001,2,24,f,2024-02-12_12h17.15.003,eye_track_exp,2023.1.3,120.14704069045904,
180,180,180,168,180,180,180,0,168,180,f,abs,resp,freq_bottom,,,,,0,82,82,823,,,,,,,,,,,0.9550178209123485,,,,,,,,,,,,,,,,,,,,,,617.0064347785928,617.2537157767531,617.2537292466845,618.2112059565318,618.2112200678885,741.9725890105886,741.9725890105886,743.4629778939185,743.4629778939185,743.4629778939185,743.4629778939185,619.9188657933021,f,1,1.6671173764988225,None,619.91937765069,,619.9194161362079,619.9194263990128,624.1229426283555,,,,,,by,001,2,24,f,2024-02-12_12h17.15.003,eye_track_exp,2023.1.3,120.14704069045904,
0,180,0,180,90,168,0,12,180,180,None,present,inhibit,freq_bottom,,,,,0,83,83,2,,,,,,,,,,,0.9855051823549068,,,,,,,,,,,,,,,,,,,,,,624.123499064802,624.3393861431609,624.3393996130922,625.3301685409115,625.3301823315553,749.0914864903003,749.0914864903003,750.5818644694001,750.5818644694001,750.5818644694001,750.5818644694001,628.0202283089207,j,0,2.6438823864920096,None,628.020724451389,751.7641876861736,628.5263035686337,628.5263154350018,628.5274754526538,,,,,,by,001,2,24,f,2024-02-12_12h17.15.003,eye_track_exp,2023.1.3,120.14704069045904,
0,0,0,180,-168,0,0,180,0,12,None,abs,inhibit,freq_bottom,,,,,0,84,84,380,,,,,,,,,,,0.7840653113674341,,,,,,,,,,,,,,,,,,,,,,628.5280197020195,628.5286822943526,628.5286928778701,629.3182816472827,629.3182964000646,753.0797269195936,753.0797269195936,754.5701113129463,754.5701113129463,754.5701113129463,754.5701113129463,632.3492352286169,None,1,,,632.3496136695428,,632.3503343108655,632.3503442529575,632.3510440479581,,756.0604950648739,756.0604950648739,,,by,001,2,24,f,2024-02-12_12h17.15.003,eye_track_exp,2023.1.3,120.14704069045904,
0,180,0,180,180,180,168,0,168,180,f,abs,resp,freq_bottom,,,,,0,85,85,799,,,,,,,,,,,1.031933427195931,,,,,,,,,,,,,,,,,,,,,,632.3515443596907,632.352246078967,632.3522557003466,633.3812263153709,633.3812413888654,757.1512532167479,757.1512532167479,,,,,634.6642731881659,f,1,1.240306568739129,None,634.6647799141517,,634.6648193618075,634.6648280210491,634.6652988272181,,,,,,by,001,2,24,f,2024-02-12_12h17.15.003,eye_track_exp,2023.1.3,120.14704069045904,
0,0,270,0,0,0,-168,0,0,-168,f,present,resp,freq_bottom,,,,,0,86,86,630,,,,,,,,,,,0.9239265884652077,,,,,,,,,,,,,,,,,,,,,,634.6657808583298,634.8635893646554,634.8636028345866,635.7874181862032,635.7874319768471,759.5491822468872,759.5491822468872,761.0395634331134,761.0395634331134,761.0395634331134,761.0395634331134,637.4623412793098,f,1,1.625466424751835,None,637.4629285041706,,637.4629663482631,637.4629756489301,637.4632838537857,,,,,,by,001,2,24,f,2024-02-12_12h17.15.003,eye_track_exp,2023.1.3,120.14704069045904,
180,0,180,-12,180,90,180,180,12,0,j,present,resp,freq_bottom,,,,,0,87,87,546,,,,,,,,,,,0.8999590423251196,,,,,,,,,,,,,,,,,,,,,,637.4637655641848,637.9945488471021,637.9945629584588,638.8932815831402,638.8932953737842,762.6631686538022,762.6631686538022,764.1535501607412,764.1535501607412,764.1535501607412,764.1535501607412,640.6930972375096,j,1,1.7437417219242661,None,640.6936405247372,,640.6936960080254,640.6937053086924,640.6942793843343,,,,,,by,001,2,24,f,2024-02-12_12h17.15.003,eye_track_exp,2023.1.3,120.14704069045904,
180,0,0,168,0,12,0,90,180,180,None,present,inhibit,freq_bottom,,,,,0,88,88,199,,,,,,,,,,,0.97717336679244,,,,,,,,,,,,,,,,,,,,,,640.6947899588718,641.0502078859392,641.0502216765831,642.032153046642,642.0321665165732,765.7938106307264,765.7938106307264,767.28420240047,767.28420240047,767.28420240047,767.28420240047,644.0569630564685,f,0,1.9883890278096032,None,644.0574928737649,767.8004474582882,644.5625633407483,644.5625755278288,644.563353256003,,,,,,by,001,2,24,f,2024-02-12_12h17.15.003,eye_track_exp,2023.1.3,120.14704069045904,
180,0,180,0,180,180,-168,180,-168,0,f,abs,resp,freq_bottom,,,,,0,89,89,866,,,,,,,,,,,1.0996295811648937,,,,,,,,,,,,,,,,,,,,,,644.5638914118283,644.5646858170603,644.5646960798651,645.6624755937673,645.662489705124,769.4240267012523,769.4240267012523,,,,,646.7794770202972,f,1,1.0783883735558675,None,646.7800074790189,,646.7807396659971,646.7807496080891,646.7813737149045,,,,,,by,001,2,24,f,2024-02-12_12h17.15.003,eye_track_exp,2023.1.3,120.14704069045904,
180,0,180,0,180,-168,180,90,180,-168,f,present,resp,freq_bottom,,,,,0,90,90,514,,,,,,,,,,,1.0906480289468918,,,,,,,,,,,,,,,,,,,,,,646.7818749887751,647.4948455063027,647.4948596176591,648.5850523531328,648.585065823064,772.3465213581795,772.3465213581795,773.836943595625,773.836943595625,773.836943595625,773.836943595625,650.2922821142404,f,1,1.6591922462251887,None,650.29279172664,,650.2928298914451,650.2928391921121,650.2934706753183,,,,,,by,001,2,24,f,2024-02-12_12h17.15.003,eye_track_exp,2023.1.3,120.14704069045904,
0,168,180,180,180,270,180,180,180,12,None,present,inhibit,freq_bottom,,,,,0,91,91,15,,,,,,,,,,,1.0830375700149162,,,,,,,,,,,,,,,,,,,,,,650.2939604035334,651.0001789576581,651.0001927483022,652.0820283535638,652.082041823495,775.8518442260178,775.8518442260178,777.3339058054122,777.3339058054122,777.3339058054122,777.3339058054122,655.1221209625485,None,1,,,655.1225103077045,,655.1225484725098,655.122557452464,655.1230016394829,,778.8242956508799,778.8242956508799,,,by,001,2,24,f,2024-02-12_12h17.15.003,eye_track_exp,2023.1.3,120.14704069045904,
0,168,180,0,180,168,0,0,180,180,f,abs,resp,freq_bottom,,,,,0,92,92,857,,,,,,,,,,,0.887036157741236,,,,,,,,,,,,,,,,,,,,,,655.1234855948705,655.1242193854118,655.1242290067914,656.0119006842724,656.0119154370543,779.7734752037808,779.7734752037808,781.2638705013636,781.2638705013636,781.2638705013636,781.2638705013636,658.1196030475398,f,1,2.0723990648326662,None,658.1201354305374,,658.1201739160554,658.1201828960095,658.1206421565232,,,,,,by,001,2,24,f,2024-02-12_12h17.15.003,eye_track_exp,2023.1.3,120.14704069045904,
12,180,180,168,180,270,180,0,0,0,None,present,inhibit,freq_bottom,,,,,0,93,93,70,,,,,,,,,,,0.7854319791158184,,,,,,,,,,,,,,,,,,,,,,658.1211273947613,658.3441743830131,658.3441875322317,659.1343285688263,659.1343420387575,782.8957966117349,782.8957966117349,784.3861842122143,784.3861842122143,784.3861842122143,784.3861842122143,662.1657555220304,None,1,,,662.1661410186346,,662.1661782213021,662.1661868805436,662.1665268359516,,785.8765718126937,785.8765718126937,,,by,001,2,24,f,2024-02-12_12h17.15.003,eye_track_exp,2023.1.3,120.14704069045904,
180,168,0,168,0,0,0,180,0,180,f,abs,resp,freq_bottom,,,,,0,94,94,946,,,,,,,,,,,1.099671306487814,,,,,,,,,,,,,,,,,,,,,,662.1670002078217,664.5717341189511,664.5717479095949,665.6700222831148,665.6700363944715,789.4318562591565,789.4318562591565,,,,,667.0871613595136,f,1,1.3732355475643772,None,667.0876857246951,,667.0877245309257,667.0877335108798,667.0881770564736,,,,,,by,001,2,24,f,2024-02-12_12h17.15.003,eye_track_exp,2023.1.3,120.14704069045904,
0,90,0,180,0,180,-12,180,180,-12,j,present,resp,freq_bottom,,,,,0,95,95,603,,,,,,,,,,,0.9559590681189895,,,,,,,,,,,,,,,,,,,,,,667.0886869895858,667.6684334726508,667.6684479047201,668.6260185833737,668.6260323740175,792.3876585282625,792.3876585282625,793.8780445251786,793.8780445251786,793.8780445251786,793.8780445251786,671.2166593544182,j,1,2.5458360396659145,None,671.2171894924272,,671.2172359957615,671.2172449757156,671.2178046192885,,,,,,by,001,2,24,f,2024-02-12_12h17.15.003,eye_track_exp,2023.1.3,120.14704069045904,
168,180,180,168,180,0,180,0,180,180,f,abs,resp,freq_bottom,,,,,0,96,96,828,,,,,,,,,,,0.7617190128065354,,,,,,,,,,,,,,,,,,,,,,671.2183023653199,671.4405709839721,671.4405841331907,672.2064542779219,672.2064680685658,795.9679139823019,795.9679139823019,,,,,673.3401446285764,f,1,1.093197280130994,None,673.3406645037805,,673.3407033100111,673.3407122899653,673.3411709090535,,,,,,by,001,2,24,f,2024-02-12_12h17.15.003,eye_track_exp,2023.1.3,120.14704069045904,
180,180,180,-12,180,180,12,0,270,180,j,present,resp,freq_bottom,,,,,0,97,97,541,,,,,,,,,,,0.7346292736584,,,,,,,,,,,,,,,,,,,,,,673.3416705793609,673.539058310691,673.5390714599096,674.2798718175684,674.2798856082122,798.041136207945,798.041136207945,799.5315234877115,799.5315234877115,799.5315234877115,799.5315234877115,677.3110130158022,None,0,,,677.311411661625,801.0552328117263,677.8173070015421,677.8173185471974,677.8181803020857,,801.0219056360758,801.0219056360758,,,by,001,2,24,f,2024-02-12_12h17.15.003,eye_track_exp,2023.1.3,120.14704069045904,
180,-168,0,180,0,180,0,-168,0,90,f,present,resp,freq_bottom,,,,,0,98,98,606,,,,,,,,,,,0.8408430904102971,,,,,,,,,,,,,,,,,,,,,,677.8187171750603,677.8195856649143,677.8195959277191,678.6589256254538,678.6589394160976,802.4207111738853,802.4207111738853,,,,,679.8926161043933,f,1,1.183945810625687,None,679.8931529773679,,679.8939008792659,679.8939111420705,679.8942879794333,,,,,,by,001,2,24,f,2024-02-12_12h17.15.003,eye_track_exp,2023.1.3,120.14704069045904,
0,0,0,180,-168,0,0,90,0,12,None,present,inhibit,freq_bottom,,,,,0,99,99,311,,,,,,,,,,,0.7845239779529264,,,,,,,,,,,,,,,,,,,,,,679.8947975918329,680.5580826643268,680.5580967756832,681.3485691084445,681.348583219801,805.110067619055,805.110067619055,806.6004507295571,806.6004507295571,806.6004507295571,806.6004507295571,683.5391821057735,f,0,2.1428827251644407,None,683.5397308451163,807.2831953627516,684.0452945681541,684.045306434522,684.0457993698637,,,,,,by,001,2,24,f,2024-02-12_12h17.15.003,eye_track_exp,2023.1.3,120.14704069045904,
0,0,0,-12,0,-12,0,180,90,0,j,present,resp,freq_bottom,,,,,0,100,100,713,,,,,,,,,,,0.7581218440180081,,,,,,,,,,,,,,,,,,,,,,684.0463227729072,684.4873305675073,684.487344678864,685.2451675018024,685.2451812924462,809.015043988947,809.015043988947,,,,,686.6033246356062,j,1,1.3091068083753044,None,686.603824947339,,686.6045638692826,686.6045738113748,686.60513858635,,,,,,by,001,2,24,f,2024-02-12_12h17.15.003,eye_track_exp,2023.1.3,120.14704069045904,
0,180,180,0,168,0,0,0,168,0,f,abs,resp,freq_bottom,,,,,0,101,101,906,,,,,,,,,,,1.0447537765455008,,,,,,,,,,,,,,,,,,,,,,686.605615806772,686.8357931993523,686.8358063485709,687.8845703861637,687.8845841768075,811.6461285493268,811.6461285493268,813.136506207714,813.136506207714,813.136506207714,813.136506207714,689.5424216242427,f,1,1.6218410889656525,None,689.542934123056,,689.5429735707121,689.5429825506662,689.5434421318923,,,,,,by,001,2,24,f,2024-02-12_12h17.15.003,eye_track_exp,2023.1.3,120.14704069045904,
180,-168,180,180,180,168,0,180,180,0,f,abs,resp,freq_bottom,,,,,0,102,102,771,,,,,,,,,,,0.9598236912540901,,,,,,,,,,,,,,,,,,,,,,689.5439376329355,689.6502837024095,689.6502968516281,690.6154565536988,690.6154706650555,814.3771163827718,814.3771163827718,815.86750141755,815.86750141755,815.86750141755,815.86750141755,692.506962992326,f,1,1.8510672478286097,None,692.5074633040588,,692.507529691577,692.5075386715312,692.5080838830347,,,,,,by,001,2,24,f,2024-02-12_12h17.15.003,eye_track_exp,2023.1.3,120.14704069045904,
0,0,0,-12,0,270,0,-12,0,0,j,present,resp,freq_bottom,,,,,0,103,103,714,,,,,,,,,,,1.0723917589080212,,,,,,,,,,,,,,,,,,,,,,692.5085893261698,693.1301689257666,693.1301827164104,694.2044132626227,694.2044270532665,817.9657039514365,817.9657039514365,819.456070384881,819.456070384881,819.456070384881,819.456070384881,695.8953620460954,j,1,1.654756148861793,None,695.8958562642877,,695.8958937876678,695.8959027676219,695.8963851194462,,,,,,by,001,2,24,f,2024-02-12_12h17.15.003,eye_track_exp,2023.1.3,120.14704069045904,
180,180,180,-12,0,0,270,180,180,-12,j,present,resp,freq_bottom,,,,,0,104,104,702,,,,,,,,,,,0.8538249301480335,,,,,,,,,,,,,,,,,,,,,,695.8968575291785,695.9696900889528,695.9697019553209,696.8264129957897,696.8264267864336,820.5884554350531,820.5884554350531,822.0788298863139,822.0788298863139,822.0788298863139,822.0788298863139,698.5683525247782,f,0,1.7037469302975978,None,698.5688765692469,822.311988623681,699.0740817355429,699.0740936019108,699.074769984888,,,,,,by,001,2,24,f,2024-02-12_12h17.15.003,eye_track_exp,2023.1.3,120.14704069045904,
180,180,-168,180,180,90,180,12,0,180,None,present,inhibit,freq_bottom,,,,,0,105,105,60,,,,,,,,,,,0.7397624141679321,,,,,,,,,,,,,,,,,,,,,,699.0752869736784,699.0760509112088,699.0760611740136,699.8155235185,699.8155373091438,823.5775579399473,823.5775579399473,825.0679333533459,825.0679333533459,825.0679333533459,825.0679333533459,702.8471566899375,None,1,,,702.8475235852081,,702.8482612243013,702.848273411382,702.8488766718751,,826.558317425986,826.558317425986,,,by,001,2,24,f,2024-02-12_12h17.15.003,eye_track_exp,2023.1.3,120.14704069045904,
180,12,180,0,180,270,180,180,180,168,None,present,inhibit,freq_bottom,,,,,0,106,106,117,,,,,,,,,,,0.724166828085232,,,,,,,,,,,,,,,,,,,,,,702.8493680036536,703.1047534104582,703.1047662389642,703.8291534853768,703.8291675967334,827.5907693768169,827.5907693768169,829.0811694850894,829.0811694850894,829.0811694850894,829.0811694850894,706.8604056501872,None,1,,,706.8607946746306,,706.8608331601486,706.8608421401027,706.8613950487097,,830.5715404085109,830.5715404085109,,,by,001,2,24,f,2024-02-12_12h17.15.003,eye_track_exp,2023.1.3,120.14704069045904,
180,0,-168,0,0,0,-168,180,270,0,f,present,resp,freq_bottom,,,,,0,107,107,681,,,,,,,,,,,0.8555561948972403,,,,,,,,,,,,,,,,,,,,,,706.8619248660063,707.0517720015291,707.0517851507477,707.9087290286,707.9087421778186,831.6706021315846,831.6706021315846,833.160991335627,833.160991335627,833.160991335627,833.160991335627,709.9670596038045,f,1,2.0125306724754637,None,709.9675980803424,,709.9676352830097,709.9676439422512,709.9681189176845,,,,,,by,001,2,24,f,2024-02-12_12h17.15.003,eye_track_exp,2023.1.3,120.14704069045904,
12,0,180,12,0,180,180,90,0,0,j,present,resp,freq_bottom,,,,,0,108,108,620,,,,,,,,,,,0.7046915215446592,,,,,,,,,,,,,,,,,,,,,,709.968624040107,710.1902281421501,710.1902419327939,710.8981471147406,710.8981609053847,834.6597001465015,834.6597001465015,836.1500941612338,836.1500941612338,836.1500941612338,836.1500941612338,712.6727768840585,j,1,1.7276749803392022,None,712.6732941935616,,712.6733329997921,712.6733423004589,712.6737977124208,,,,,,by,001,2,24,f,2024-02-12_12h17.15.003,eye_track_exp,2023.1.3,120.14704069045904,
-168,180,0,0,180,0,180,-168,180,90,f,present,resp,freq_bottom,,,,,0,109,109,528,,,,,,,,,,,0.8928252414254002,,,,,,,,,,,,,,,,,,,,,,712.6742874406361,712.8966830614972,712.8966962107158,713.7956393342517,713.7956531248958,837.565538271282,837.565538271282,,,,,715.2871410904743,f,1,1.4455046152141904,None,715.2876346672413,,715.2876715491959,715.2876802084375,715.288149731756,,,,,,by,001,2,24,f,2024-02-12_12h17.15.003,eye_track_exp,2023.1.3,120.14704069045904,
12,0,-168,0,0,0,0,180,180,180,None,abs,inhibit,freq_bottom,,,,,0,110,110,364,,,,,,,,,,,1.0544002897160507,,,,,,,,,,,,,,,,,,,,,,715.2886455535115,716.168822817807,716.1688369291635,717.2261126804649,717.226126471109,840.9876028525465,840.9876028525465,842.4779914151637,842.4779914151637,842.4779914151637,842.4779914151637,719.7004393121867,f,0,2.438865221951005,None,719.7009534145634,843.4438307073382,720.205925743476,720.2059382512693,720.206488914888,,,,,,by,001,2,24,f,2024-02-12_12h17.15.003,eye_track_exp,2023.1.3,120.14704069045904,
168,0,180,180,180,0,0,168,0,0,f,abs,resp,freq_bottom,,,,,0,111,111,764,,,,,,,,,,,1.012844866640255,,,,,,,,,,,,,,,,,,,,,,720.2070235428741,720.5900124949649,720.5900262856087,721.6053797622621,721.6053932321934,845.3671845534526,845.3671845534526,,,,,722.938598280467,f,1,1.291521171683712,None,722.9391066100159,,722.9398387969941,722.9398487390861,722.940412872636,,,,,,by,001,2,24,f,2024-02-12_12h17.15.003,eye_track_exp,2023.1.3,120.14704069045904,
180,180,180,0,-12,0,270,0,-168,0,None,present,inhibit,freq_bottom,,,,,0,112,112,332,,,,,,,,,,,1.004427376726299,,,,,,,,,,,,,,,,,,,,,,722.9409228057482,723.1547380803936,723.1547515503248,724.1612873534023,724.1613008233335,847.92331215347,847.92331215347,849.4137048853516,849.4137048853516,849.4137048853516,849.4137048853516,727.1930093622436,None,1,,,727.1934019145262,,727.1934590013777,727.1934683020445,727.194024738491,,850.9040889579918,850.9040889579918,,,by,001,2,24,f,2024-02-12_12h17.15.003,eye_track_exp,2023.1.3,120.14704069045904,
-168,0,12,0,0,0,270,180,180,180,None,present,inhibit,freq_bottom,,,,,0,113,113,235,,,,,,,,,,,1.0514251087233175,,,,,,,,,,,,,,,,,,,,,,727.1945503865229,727.1952655757304,727.1952755178227,728.2500753674726,728.2500891581165,852.0114763814378,852.0114763814378,853.5018594919399,853.5018594919399,853.5018594919399,853.5018594919399,730.2241431840864,j,0,1.9263292059205241,None,730.2246479857963,853.9681352740298,730.7302206887882,730.7302331965814,730.7307197176701,,,,,,by,001,2,24,f,2024-02-12_12h17.15.003,eye_track_exp,2023.1.3,120.14704069045904,
-168,180,0,12,180,90,180,180,0,180,None,present,inhibit,freq_bottom,,,,,0,114,114,93,,,,,,,,,,,0.7388565316104438,,,,,,,,,,,,,,,,,,,,,,730.7312418378631,730.9899347542187,730.9899482241499,731.730364368055,731.7303781586988,855.491825675998,855.491825675998,856.9822046172359,856.9822046172359,856.9822046172359,856.9822046172359,734.6534635683258,j,0,2.877832321964547,None,734.6539786328403,858.3893381004062,735.1519007355864,735.151910356966,735.1523555061231,858.8889093075942,,,,,by,001,2,24,f,2024-02-12_12h17.15.003,eye_track_exp,2023.1.3,120.14704069045904,
180,180,180,0,12,0,0,0,-168,180,None,abs,inhibit,freq_bottom,,,,,0,115,115,339,,,,,,,,,,,1.0736509227305064,,,,,,,,,,,,,,,,,,,,,,735.1528827577183,735.1536665794329,735.1536768422375,736.22605880074,736.2260722706712,859.9879604471504,859.9879604471504,861.4783557447332,861.4783557447332,861.4783557447332,861.4783557447332,739.2576259053717,None,1,,,739.2580409075399,,739.258771170242,739.258783998748,739.259442101104,,862.9687321202699,862.9687321202699,,,by,001,2,24,f,2024-02-12_12h17.15.003,eye_track_exp,2023.1.3,120.14704069045904,
12,180,0,0,0,0,12,0,90,0,j,present,resp,freq_bottom,,,,,0,116,116,658,,,,,,,,,,,0.7066920668629877,,,,,,,,,,,,,,,,,,,,,,739.2599728805383,739.260677165516,739.260687107608,739.9727092778321,739.972723068476,863.7347584520611,863.7347584520611,865.2251335447471,865.2251335447471,865.2251335447471,865.2251335447471,742.9295586737378,j,1,2.9071422509717877,None,742.9301468607364,,742.9301853462541,742.9301943262083,742.9306737916188,,,,,,by,001,2,24,f,2024-02-12_12h17.15.003,eye_track_exp,2023.1.3,120.14704069045904,
0,0,12,0,0,0,270,0,0,12,j,present,resp,freq_bottom,,,,,0,117,117,654,,,,,,,,,,,0.8514135835303064,,,,,,,,,,,,,,,,,,,,,,742.9311494084775,742.9321570876211,742.9321670297134,743.7867687430887,743.7867825337325,867.5481344786623,867.5481344786623,869.0468548351922,869.0468548351922,869.0468548351922,869.0468548351922,746.2352638951961,j,1,2.4049511421525267,None,746.2357728661705,,746.2358248216196,746.2358341222864,746.2363014006162,,,,,,by,001,2,24,f,2024-02-12_12h17.15.003,eye_track_exp,2023.1.3,120.14704069045904,
180,0,180,0,0,12,180,180,180,168,None,abs,inhibit,freq_bottom,,,,,0,118,118,414,,,,,,,,,,,1.041776897850417,,,,,,,,,,,,,,,,,,,,,,746.2368023537742,746.4677359867815,746.4677491360001,747.5166821891589,747.5166963005154,871.2782676128974,871.2782676128974,872.768652968388,872.768652968388,872.768652968388,872.768652968388,750.5476627103553,None,1,,,750.5480623183162,,750.5480998416963,750.5481088216504,750.5487441534083,,874.2590412102926,874.2590412102926,,,by,001,2,24,f,2024-02-12_12h17.15.003,eye_track_exp,2023.1.3,120.14704069045904,
180,180,0,-168,0,270,0,-168,0,0,f,present,resp,freq_bottom,,,,,0,119,119,700,,,,,,,,,,,0.922322741814873,,,,,,,,,,,,,,,,,,,,,,750.5492605007735,750.7890608763921,750.7890740256107,751.7130907847711,751.7131048961276,875.4746707563944,875.4746707563944,876.9733795672688,876.9733795672688,876.9733795672688,876.9733795672688,753.7286610631752,f,1,1.9661739040271868,None,753.7291552813676,,753.7291928047475,753.729201463989,753.7300176776812,,,,,,by,001,2,24,f,2024-02-12_12h17.15.003,eye_track_exp,2023.1.3,120.14704069045904,
168,180,0,180,180,180,-168,180,180,180,f,abs,resp,freq_bottom,,,,,0,120,120,789,,,,,,,,,,,0.7468438854360868,,,,,,,,,,,,,,,,,,,,,,753.7305224793911,754.344506320605,754.3445201112488,755.0934588730927,755.0934729844494,878.8634296497561,878.8634296497561,,,,,756.3515603953233,f,1,1.2010497369179802,None,756.3520706491481,,756.3521078518154,756.3521168317695,756.3525655087658,,,,,,by,001,2,24,f,2024-02-12_12h17.15.003,eye_track_exp,2023.1.3,120.14704069045904,
180,180,180,168,180,180,180,180,180,168,f,abs,resp,freq_bottom,,,,,0,121,121,822,,,,,,,,,,,0.908639548400157,,,,,,,,,,,,,,,,,,,,,,756.3530520298546,756.5425572856934,756.5425707556246,757.4581078723409,757.4581213422723,881.2197314608846,881.2197314608846,882.7101306070193,882.7101306070193,882.7101306070193,882.7101306070193,759.6828992166913,f,1,2.189041934620832,None,759.6834258268614,,759.6834659159424,759.6834748958966,759.683933514985,,,,,,by,001,2,24,f,2024-02-12_12h17.15.003,eye_track_exp,2023.1.3,120.14704069045904,
180,0,180,0,180,90,180,12,180,168,None,present,inhibit,freq_bottom,,,,,0,122,122,126,,,,,,,,,,,1.0739595346553839,,,,,,,,,,,,,,,,,,,,,,759.6844238846256,760.2558850771122,760.2558988677561,761.3295842024645,761.329597672396,885.091409198552,885.091409198552,886.5818016097209,886.5818016097209,886.5818016097209,886.5818016097209,763.9035325215455,j,0,2.525170599404305,None,763.9040341161287,887.6475714355355,764.4096683959492,764.40968058303,764.4102055896367,,,,,,by,001,2,24,f,2024-02-12_12h17.15.003,eye_track_exp,2023.1.3,120.14704069045904,
12,0,180,-12,0,90,0,180,0,180,j,present,resp,freq_bottom,,,,,0,123,123,709,,,,,,,,,,,0.7763507975129518,,,,,,,,,,,,,,,,,,,,,,764.410753687554,764.4115718255221,764.4115824090395,765.1926543333411,765.1926687654102,888.9547525766055,888.9547525766055,,,,,766.6096708975078,j,1,1.3815513058444822,None,766.610193659126,,766.6109659351853,766.6109758772773,766.6114454005958,,,,,,by,001,2,24,f,2024-02-12_12h17.15.003,eye_track_exp,2023.1.3,120.14704069045904,
180,180,0,180,-168,270,0,-168,0,180,f,present,resp,freq_bottom,,,,,0,124,124,719,,,,,,,,,,,0.819898412132035,,,,,,,,,,,,,,,,,,,,,,766.6119851599842,766.8585740602477,766.8585872094664,767.6825550920189,767.682569524088,891.4442902885645,891.4442902885645,892.9430064758297,892.9430064758297,892.9430064758297,892.9430064758297,770.065430191119,f,1,2.347303364178174,None,770.0659404449439,,770.0659786097492,770.065987910416,782.3869080606635,,,,,,by,001,2,24,f,2024-02-12_12h17.15.003,eye_track_exp,2023.1.3,120.14704069045904,
0,180,0,180,180,12,180,90,180,168,None,present,inhibit,freq_bottom,,,,,0,125,125,43,,,,,,,,,,,1.07541364475107,,,,,,,,,,,,,,,,,,,,,,782.3874648178223,783.3528631301042,783.3528775621733,784.4350675549124,784.4350810248436,908.1965830632934,908.1965830632934,909.6869687394966,909.6869687394966,909.6869687394966,909.6869687394966,787.4658777776922,None,1,,,787.4662549357677,,787.4662943834235,787.4663033633776,787.4667632653166,,911.1773694891946,911.1773694891946,,,by,001,2,24,f,2024-02-12_12h17.15.003,eye_track_exp,2023.1.3,120.14704069045904,
168,180,180,0,168,180,180,0,180,90,f,present,resp,freq_bottom,,,,,0,126,126,554,,,,,,,,,,,0.7579999397239188,,,,,,,,,,,,,,,,,,,,,,787.4672568420835,787.6743499796028,787.6743628081085,788.4316654351301,788.4316789050613,912.1931475893954,912.1931475893954,913.6835306998977,913.6835306998977,913.6835306998977,913.6835306998977,790.6555549355112,f,1,2.1896426294125604,None,790.6560812249684,,790.6561177862104,790.6561267661646,790.6565757638734,,,,,,by,001,2,24,f,2024-02-12_12h17.15.003,eye_track_exp,2023.1.3,120.14704069045904,
180,12,0,168,0,0,0,180,180,180,None,abs,inhibit,freq_bottom,,,,,0,127,127,370,,,,,,,,,,,1.0115287968622468,,,,,,,,,,,,,,,,,,,,,,790.6570648506633,790.8386587668726,790.8386722368039,791.8535199496096,791.8535334195408,915.6152073599704,915.6152073599704,917.1055949604498,917.1055949604498,917.1055949604498,917.1055949604498,794.8848971923533,None,1,,,794.8852695397388,,794.8853067424061,794.8853272680158,794.8861659315933,,918.5959681288597,918.5959681288597,,,by,001,2,24,f,2024-02-12_12h17.15.003,eye_track_exp,2023.1.3,120.14704069045904,
12,180,0,0,-168,180,270,0,180,180,None,present,inhibit,freq_bottom,,,,,0,128,128,325,,,,,,,,,,,1.0516654172861066,,,,,,,,,,,,,,,,,,,,,,794.8866963903149,795.1509135820525,795.1509273726963,796.2081928611931,796.2082069725495,919.9698039419433,919.9698039419433,921.4602069366298,921.4602069366298,921.4602069366298,921.4602069366298,799.23932475876,None,1,,,799.2396945404444,,799.2397352709509,799.239744250905,799.2403006873512,,922.9505759357754,922.9505759357754,,,by,001,2,24,f,2024-02-12_12h17.15.003,eye_track_exp,2023.1.3,120.14704069045904,
0,180,168,0,0,0,0,180,-168,180,f,abs,resp,freq_bottom,,,,,0,129,129,970,,,,,,,,,,,0.9874784044949256,,,,,,,,,,,,,,,,,,,,,,799.2407753420721,799.2415007940845,799.2415104154641,800.2294314149585,800.2294452056024,923.9913600012316,923.9913600012316,925.4817411874579,925.4817411874579,925.4817411874579,925.4817411874579,801.8706931498343,f,1,1.591440095526309,None,801.8711957065557,,801.8712335506482,801.871242851315,801.8716184058271,,,,,,by,001,2,24,f,2024-02-12_12h17.15.003,eye_track_exp,2023.1.3,120.14704069045904,
0,168,0,0,0,0,0,0,168,0,f,abs,resp,freq_bottom,,,,,0,130,130,993,,,,,,,,,,,0.7520540939220549,,,,,,,,,,,,,,,,,,,,,,801.8721052476287,802.71973210231,802.7197462136664,803.4765308897595,803.4765446804033,927.2385704426091,927.2385704426091,,,,,804.5779084788728,f,1,1.0633928122189218,None,804.5784466346979,,804.5784847995033,804.57849410017,804.5789633027757,,,,,,by,001,2,24,f,2024-02-12_12h17.15.003,eye_track_exp,2023.1.3,120.14704069045904,
-12,0,-12,0,0,270,0,180,0,180,j,present,resp,freq_bottom,,,,,0,131,131,695,,,,,,,,,,,1.0691333155616345,,,,,,,,,,,,,,,,,,,,,,804.5794761223019,805.6001072463098,805.6001216783791,806.6740302290914,806.6740446611607,930.4358199467873,930.4358199467873,,,,,808.0244367003029,j,1,1.3064163499615233,None,808.0249597826337,,808.0249985888643,808.0250075688184,808.0254709985966,,,,,,by,001,2,24,f,2024-02-12_12h17.15.003,eye_track_exp,2023.1.3,120.14704069045904,
168,180,0,0,168,0,180,0,0,180,f,abs,resp,freq_bottom,,,,,0,132,132,916,,,,,,,,,,,0.8367253739734655,,,,,,,,,,,,,,,,,,,,,,808.0259722724672,808.2395133377977,808.2395268077289,809.0801136990483,809.0801268482669,932.8420852608164,932.8420852608164,934.3324860105143,934.3324860105143,934.3324860105143,934.3324860105143,810.7547189659197,f,1,1.6358620045617727,None,810.7552090148477,,810.7552462175149,810.7552548767565,810.7558122753408,,,,,,by,001,2,24,f,2024-02-12_12h17.15.003,eye_track_exp,2023.1.3,120.14704069045904,
0,180,180,0,180,168,0,168,180,0,f,abs,resp,freq_bottom,,,,,0,133,133,848,,,,,,,,,,,0.9735593927137303,,,,,,,,,,,,,,,,,,,,,,810.7562850057857,810.7572044889507,810.7572141103303,811.7367196099108,811.7367334005546,935.4981440358994,935.4981440358994,936.9885255428381,936.9885255428381,936.9885255428381,936.9885255428381,814.3600775611471,f,1,2.5791163912693946,None,814.36057306219,,814.3606105855699,814.3606195655241,814.3611022380612,,,,,,by,001,2,24,f,2024-02-12_12h17.15.003,eye_track_exp,2023.1.3,120.14704069045904,
180,180,0,12,0,180,0,168,180,180,None,abs,inhibit,freq_bottom,,,,,0,134,134,388,,,,,,,,,,,0.9785697431948894,,,,,,,,,,,,,,,,,,,,,,814.3615733649428,814.4265314670422,814.426543654123,815.4082566188677,815.4082704095115,939.1699953432523,939.1699953432523,940.660378133042,940.660378133042,940.660378133042,940.660378133042,818.4394433582977,None,1,,,818.4398266099133,,818.4398814517763,818.4398904317304,818.4404305118317,,942.1507666956592,942.1507666956592,,,by,001,2,24,f,2024-02-12_12h17.15.003,eye_track_exp,2023.1.3,120.14704069045904,
0,0,12,180,0,-12,0,0,0,90,j,present,resp,freq_bottom,,,,,0,135,135,602,,,,,,,,,,,0.8086141128385793,,,,,,,,,,,,,,,,,,,,,,818.4409333892656,818.4416700662207,818.4416800083129,819.2471251318129,819.2471389224568,943.0083436602807,943.0083436602807,944.4987630113122,944.4987630113122,944.4987630113122,944.4987630113122,820.9545133249692,j,1,1.6609529586690996,None,820.9550822692088,,820.9551201133013,820.9551290932554,820.9556082379534,,,,,,by,001,2,24,f,2024-02-12_12h17.15.003,eye_track_exp,2023.1.3,120.14704069045904,
0,180,0,-168,180,0,180,0,-168,180,f,abs,resp,freq_bottom,,,,,0,136,136,889,,,,,,,,,,,0.792040043737282,,,,,,,,,,,,,,,,,,,,,,820.9560784026971,821.6204304861747,821.6204445975313,822.4187907465421,822.4188042164733,946.180633381825,946.180633381825,947.6710222651549,947.6710222651549,947.6710222651549,947.6710222651549,824.3096852654346,f,1,1.8489505443443477,None,824.3101788422016,,824.3102163655817,824.3102250248232,824.3108382274083,,,,,,by,001,2,24,f,2024-02-12_12h17.15.003,eye_track_exp,2023.1.3,120.14704069045904,
180,180,180,180,12,270,0,0,0,168,None,present,inhibit,freq_bottom,,,,,0,137,137,150,,,,,,,,,,,0.9126707118239887,,,,,,,,,,,,,,,,,,,,,,824.3113141649796,825.0753729246685,825.0753953745539,825.9909017028558,825.9909154934999,949.7525746811474,949.7525746811474,951.2512822091713,951.2512822091713,951.2512822091713,951.2512822091713,829.0219447630191,None,1,,,829.0223122997149,,829.0223495023822,829.0223581616237,829.022921974461,,952.7250196917568,952.7250196917568,,,by,001,2,24,f,2024-02-12_12h17.15.003,eye_track_exp,2023.1.3,120.14704069045904,
12,0,180,0,0,0,-168,0,0,0,None,abs,inhibit,freq_bottom,,,,,0,138,138,393,,,,,,,,,,,0.9671917696366625,,,,,,,,,,,,,,,,,,,,,,829.0233879699401,829.024190713701,829.0242006557933,829.9954474839451,829.9954612745889,953.7574636247713,953.7574636247713,955.2478707887223,955.2478707887223,955.2478707887223,955.2478707887223,833.0269838001627,None,1,,,833.0274218936413,,833.0274590963088,833.0274677555503,833.027923167512,,956.7382388257298,956.7382388257298,,,by,001,2,24,f,2024-02-12_12h17.15.003,eye_track_exp,2023.1.3,120.14704069045904,
180,0,-168,180,180,180,180,12,180,180,None,abs,inhibit,freq_bottom,,,,,0,139,139,367,,,,,,,,,,,1.0848225170273325,,,,,,,,,,,,,,,,,,,,,,833.0283926908305,833.0291139735784,833.0291239156704,834.1174087315942,834.1174222015256,957.8789354649178,957.8789354649178,959.3693166511442,959.3693166511442,959.3693166511442,959.3693166511442,837.1482054844428,None,1,,,837.148577511116,,837.1486166380591,837.1486256180133,837.1490701257451,,960.8596994409337,960.8596994409337,,,by,001,2,24,f,2024-02-12_12h17.15.003,eye_track_exp,2023.1.3,120.14704069045904,
180,180,-12,0,12,180,180,0,270,180,j,present,resp,freq_bottom,,,,,0,140,140,587,,,,,,,,,,,1.067200650091456,,,,,,,,,,,,,,,,,,,,,,837.1495694753398,837.3652269234419,837.3652400726608,838.4386550466058,838.4386685165373,962.2085434001186,962.2085434001186,963.6989284348966,963.6989284348966,963.6989284348966,963.6989284348966,841.1042139717824,j,1,2.6198703097367115,None,841.1047200563428,,841.1047582211481,841.1047668803897,841.1053191475714,,,,,,by,001,2,24,f,2024-02-12_12h17.15.003,eye_track_exp,2023.1.3,120.14704069045904,
0,0,-12,180,180,180,90,0,0,-12,j,present,resp,freq_bottom,,,,,0,141,141,481,,,,,,,,,,,0.7098793324916791,,,,,,,,,,,,,,,,,,,,,,841.1058146486143,841.3198707784593,841.3198839276779,842.035694355714,842.0357078256452,965.7971351380476,965.7971351380476,967.2875192106877,967.2875192106877,967.2875192106877,967.2875192106877,843.594054757195,j,1,1.5115678931025514,None,843.5945563517782,,843.5945945165834,843.5946147214802,843.5950919419022,,,,,,by,001,2,24,f,2024-02-12_12h17.15.003,eye_track_exp,2023.1.3,120.14704069045904,
0,0,0,168,0,0,0,180,0,168,f,abs,resp,freq_bottom,,,,,0,142,142,949,,,,,,,,,,,0.9857543037981703,,,,,,,,,,,,,,,,,,,,,,843.5955675587609,844.3503189166584,844.3503333487274,845.3415285036574,845.3415438978645,969.1109473338516,969.1109473338516,,,,,846.6492458762768,f,1,1.2535035735392057,None,846.6497670343317,,846.6498048784242,846.6498135376658,846.6501730565456,,,,,,by,001,2,24,f,2024-02-12_12h17.15.003,eye_track_exp,2023.1.3,120.14704069045904,
