ori10,ori11,ori12,ori13,ori14,ori16,ori17,ori18,ori19,ori20,corrAns,distractor,responses,dist_freq,practice_trials.thisRepN,practice_trials.thisTrialN,practice_trials.thisN,practice_trials.thisIndex,trials.thisRepN,trials.thisTrialN,trials.thisN,trials.thisIndex,intro_2.started,intro_2.stopped,key_resp.keys,key_resp.rt,key_resp.duration,start_et_record_2.started,start_et_record_2.stopped,fix_check_3.started,fix_check_3.stopped,fix_practice_2.started,fixdur,fix_practice_2.stopped,practice_search_2.started,int14_2.started,per15_2.started,practice_search_2.stopped,response_2.keys,response_2.corr,feedback_4.started,feedback_4.stopped,pause_pract_2.started,pause_pract_2.stopped,text_feedback.started,response_2.rt,response_2.duration,stop_et_record_2.started,stop_et_record_2.stopped,break_3.started,break_3.stopped,key_resp_2.keys,key_resp_2.rt,key_resp_2.duration,fix_check_2.started,fix_check_2.stopped,fixation_2.started,fixation_2.stopped,search_displays_2.started,int14.started,per15.started,search_displays_2.stopped,response.keys,response.corr,response.rt,response.duration,feedback_6.started,text_feedback_2.started,feedback_6.stopped,pause_4.started,pause_4.stopped,int14.stopped,int14_3.started,per15.stopped,per15_3.started,int14_3.stopped,per15_3.stopped,text_feedback_2.stopped,end_2.started,end_2.stopped,participant,session,group,age,gender,date,expName,psychopyVersion,frameRate,
,,,,,,,,,,,,,,,,,,,,,,9.62146896199556e-06,35.71725196734951,space,35.70177147855338,None,,,,,,,,,,,,,,,,,,,,,,,,,,,,,,,,,,,,,,,,,,,,,,,,,,,,,,CAN,001,1,21,M,2024-02-09_11h54.07.842,eye_track_exp,2023.1.3,120.10380916094952,
0,0,0,0,168,0,0,12,0,0,None,abs,inhibit,freq_top,0,0,0,29,,,,,,,,,,899.2020566210622,899.7030288705,899.7246358033462,899.8773849617082,899.8773987524801,0.9079281250145154,900.7833492141026,900.7833620427273,1081.526355288136,1081.526355288136,903.7968221570882,None,1,903.7973378678244,903.7973837301597,903.7973930309136,903.7985710194298,,,,,,,,,,,,,,,,,,,,,,,,,,,,,,,,,,,,,CAN,001,1,21,M,2024-02-09_11h54.07.842,eye_track_exp,2023.1.3,120.10380916094952,
180,0,180,0,12,180,180,180,12,180,j,abs,resp,freq_top,0,1,1,9,,,,,,,,,,,,903.7990424714089,904.0481525657087,904.048173412225,0.8938540225743297,904.9462836595067,904.946305147454,1085.6894770314693,1085.6894770314693,907.959947107578,None,0,907.9603608307434,908.4509386865475,908.4509479873004,908.4515178989786,1088.6869382465256,,,,,,,,,,,,,,,,,,,,,,,,,,,,,,,,,,,,CAN,001,1,21,M,2024-02-09_11h54.07.842,eye_track_exp,2023.1.3,120.10380916094952,
180,0,180,12,0,180,180,0,12,180,j,abs,resp,freq_top,0,2,2,3,,,,,,,,,,,,908.4520393825969,908.4530175652744,908.4530278281745,0.834720955474168,909.2929480726116,909.2929605805211,1090.0357886573784,1090.0357886573784,912.2979621408022,None,0,912.2985131302585,912.7972580096321,912.797267631101,912.7984058508791,1093.0165633588167,,,,,,,,,,,,,,,,,,,,,,,,,,,,,,,,,,,,CAN,001,1,21,M,2024-02-09_11h54.07.842,eye_track_exp,2023.1.3,120.10380916094952,
180,180,90,180,12,180,12,0,0,180,j,present,resp,freq_top,0,3,3,39,,,,,,,,,,,,912.7989953262113,915.4634081103213,915.463420938946,0.7010954462289897,916.1698147578581,916.1698269450517,1096.91328426598,1096.91328426598,917.7027254735121,j,1,917.7033720362269,917.7041266801089,917.7041363015778,917.7047139104307,,1.4919926665024832,None,,,,,,,,,,,,,,,,,,,,,,,,,,,,,,,,,,CAN,001,1,21,M,2024-02-09_11h54.07.842,eye_track_exp,2023.1.3,120.10380916094952,
180,12,180,12,0,180,0,180,180,180,j,abs,resp,freq_top,0,4,4,5,,,,,,,,,,,,917.705215830395,917.9358119734052,917.9358248020299,1.067383255708821,919.0093780457964,919.009390553706,1099.7525403083428,1099.7525403083428,919.8428653760857,j,1,919.8433544674244,919.843391349722,919.8433996883286,919.8438656881417,,0.7968957350140045,None,,,,,,,,,,,,,,,,,,,,,,,,,,,,,,,,,,CAN,001,1,21,M,2024-02-09_11h54.07.842,eye_track_exp,2023.1.3,120.10380916094952,
0,270,0,0,12,0,0,12,0,0,j,present,resp,freq_top,0,5,5,40,,,,,,,,,,,,919.8443345743954,920.1091029679983,920.109116117339,1.038962208323362,921.1491260338671,921.1491388624918,1101.8923899632682,1101.8923899632682,922.050051843682,j,1,922.0505659508399,922.0506028331374,922.0506214346442,922.0508966086563,,0.8642639778163357,None,,,,,,,,,,,,,,,,,,,,,,,,,,,,,,,,,,CAN,001,1,21,M,2024-02-09_11h54.07.842,eye_track_exp,2023.1.3,120.10380916094952,
90,0,180,168,180,180,0,168,0,0,f,present,resp,freq_top,0,6,6,46,,,,,,,,,,,,922.0513831342705,922.0907577131302,922.0907689381775,0.841847069830682,922.9315009138791,922.9315127803575,1103.6742122502465,1103.6742122502465,923.6985901661528,f,1,923.6991674542905,923.699208826607,923.6992171652137,923.6997126708648,,0.7300300536071518,None,,,,,,,,,,,,,,,,,,,,,,,,,,,,,,,,,,CAN,001,1,21,M,2024-02-09_11h54.07.842,eye_track_exp,2023.1.3,120.10380916094952,
0,180,0,180,168,180,12,180,0,180,None,abs,inhibit,freq_top,0,7,7,28,,,,,,,,,,,,923.7002008000572,924.1554094945295,924.1554226438702,0.7406237014862386,924.8959329088557,924.8959454167652,1105.6392151190485,1105.6392151190485,927.9097349060803,None,1,927.9101374041984,927.9101768522205,927.9101861529743,927.9112528531659,,,,,,,,,,,,,,,,,,,,,,,,,,,,,,,,,,,,,CAN,001,1,21,M,2024-02-09_11h54.07.842,eye_track_exp,2023.1.3,120.10380916094952,
12,0,0,-168,0,0,180,180,180,180,None,abs,inhibit,freq_top,0,8,8,27,,,,,,,,,,,,927.9117371337707,928.2026178734177,928.2026303813273,0.8513139957498596,929.0590126384404,929.059025467066,1109.8023464838507,1109.8023464838507,932.0728528008258,None,1,932.0733162349134,932.0733566450835,932.0733659458365,932.0744201381194,,,,,,,,,,,,,,,,,,,,,,,,,,,,,,,,,,,,,CAN,001,1,21,M,2024-02-09_11h54.07.842,eye_track_exp,2023.1.3,120.10380916094952,
0,0,0,-168,0,0,0,12,0,0,None,abs,inhibit,freq_top,0,9,9,23,,,,,,,,,,,,932.0749172473488,932.3232906578423,932.3233025243208,0.8830626261705239,933.205276926723,933.2052897553485,1113.948835273075,1113.948835273075,936.2193236299745,None,1,936.2196972636857,936.2197354288464,936.2197447295994,936.2212177764977,,,,,,,,,,,,,,,,,,,,,,,,,,,,,,,,,,,,,CAN,001,1,21,M,2024-02-09_11h54.07.842,eye_track_exp,2023.1.3,120.10380916094952,
180,180,168,0,270,0,0,168,0,180,f,present,resp,freq_top,0,10,10,47,,,,,,,,,,,,936.2217103957082,936.8360501689049,936.8360629975305,0.7064655144195617,937.5438689273697,937.5438920188953,1118.3700910864463,1118.3700910864463,938.86047073999,f,1,938.8611099262453,938.8611535435712,938.861162202893,938.8616612364167,,1.1856223239756218,None,,,,,,,,,,,,,,,,,,,,,,,,,,,,,,,,,,CAN,001,1,21,M,2024-02-09_11h54.07.842,eye_track_exp,2023.1.3,120.10380916094952,
12,0,0,12,0,0,180,0,180,180,j,abs,resp,freq_top,0,11,11,6,,,,,,,,,,,,938.8621400648553,939.0673692049486,939.0673817128591,0.9765942346095919,940.0498369642082,940.0498494721178,1120.7930277704463,1120.7930277704463,940.9164234305863,j,1,940.9169343305875,940.9169715336011,940.9169798722078,940.9174336848264,,0.826359559413504,None,,,,,,,,,,,,,,,,,,,,,,,,,,,,,,,,,,CAN,001,1,21,M,2024-02-09_11h54.07.842,eye_track_exp,2023.1.3,120.10380916094952,
180,12,180,12,180,90,180,180,0,180,j,present,resp,freq_top,0,12,12,37,,,,,,,,,,,,940.9179205311566,941.2156184022779,941.2156315516186,0.858894033208944,942.0815846046235,942.0815974332481,1122.824645200314,1122.824645200314,942.8820193025913,j,1,942.8825407862087,942.8825795927996,942.8825882521223,942.8830516862108,,0.7629489475102673,None,,,,,,,,,,,,,,,,,,,,,,,,,,,,,,,,,,CAN,001,1,21,M,2024-02-09_11h54.07.842,eye_track_exp,2023.1.3,120.10380916094952,
0,180,0,12,0,180,180,180,0,12,j,abs,resp,freq_top,0,13,13,4,,,,,,,,,,,,942.8835507197336,943.1722993418589,943.1723118497694,0.7469259390401355,943.9217925309822,943.9218047181757,1124.6647488940926,1124.6647488940926,945.1713272527786,j,1,945.1718362284864,945.1718740729311,945.1718827322529,945.1722647045708,,1.2110396792459142,None,,,,,,,,,,,,,,,,,,,,,,,,,,,,,,,,,,CAN,001,1,21,M,2024-02-09_11h54.07.842,eye_track_exp,2023.1.3,120.10380916094952,
180,270,0,0,168,0,0,168,180,0,f,present,resp,freq_top,0,14,14,45,,,,,,,,,,,,945.1727377601283,947.6191200396916,947.6191335097483,0.7164416652991352,948.3346491226666,948.3346619512913,1129.0776657803153,1129.0776657803153,949.201639049309,f,1,949.2021592500641,949.2021970945088,949.2022057538306,949.2026640564691,,0.8299945503868003,None,,,,,,,,,,,,,,,,,,,,,,,,,,,,,,,,,,CAN,001,1,21,M,2024-02-09_11h54.07.842,eye_track_exp,2023.1.3,120.10380916094952,
180,168,180,0,180,0,180,0,0,168,f,abs,resp,freq_top,0,15,15,20,,,,,,,,,,,,949.2031435263389,949.4423140017707,949.4423265096802,0.7204990045777547,950.1665469862828,950.1665761714057,1130.909453638471,1130.909453638471,951.6990022857399,f,1,951.6995009985476,951.6995568030679,951.6995654623897,951.7000170299998,,1.4934397354354587,None,,,,,,,,,,,,,,,,,,,,,,,,,,,,,,,,,,CAN,001,1,21,M,2024-02-09_11h54.07.842,eye_track_exp,2023.1.3,120.10380916094952,
0,180,0,12,0,180,180,12,0,0,j,abs,resp,freq_top,0,16,16,2,,,,,,,,,,,,951.700488802695,951.9566161550238,951.9566286629333,0.8932984682596454,952.8557555787684,952.855768407393,1133.5988440767187,1133.5988440767187,953.6891053220515,j,1,953.6896306542567,953.6896681779854,953.689676516592,953.6901431578362,,0.788728390729375,None,,,,,,,,,,,,,,,,,,,,,,,,,,,,,,,,,,CAN,001,1,21,M,2024-02-09_11h54.07.842,eye_track_exp,2023.1.3,120.10380916094952,
12,0,0,12,0,0,90,180,180,0,j,present,resp,freq_top,0,17,17,38,,,,,,,,,,,,953.6906437949383,953.9139266593902,953.9139401294469,0.7646075426259604,954.6788167645755,954.6788299139162,1135.4222898005692,1135.4222898005692,955.5457220222916,j,1,955.5462874439509,955.5463256091107,955.5463342684334,955.5468644113726,,0.8210007219176987,None,,,,,,,,,,,,,,,,,,,,,,,,,,,,,,,,,,CAN,001,1,21,M,2024-02-09_11h54.07.842,eye_track_exp,2023.1.3,120.10380916094952,
180,180,180,-168,180,180,12,180,0,180,None,abs,inhibit,freq_top,0,18,18,22,,,,,,,,,,,,955.5473701799247,956.0617191576594,956.0617316655689,0.9032234965592958,956.9691564569521,956.9691789070457,1137.7120117946379,1137.7120117946379,959.9825466553048,None,1,959.9829305519161,959.9829703206542,959.9829879600147,959.9845479208489,,,,,,,,,,,,,,,,,,,,,,,,,,,,,,,,,,,,,CAN,001,1,21,M,2024-02-09_11h54.07.842,eye_track_exp,2023.1.3,120.10380916094952,
0,0,180,0,0,0,168,0,180,168,f,abs,resp,freq_top,0,19,19,15,,,,,,,,,,,,959.9850325221687,960.5911728795163,960.5911857081419,1.0051797027542189,961.5985057217267,961.5985179089212,1142.341417505365,1142.341417505365,963.6396894574673,f,1,963.6401997160383,963.640237560483,963.6402458990897,963.640830563686,,1.9971438406264497,None,,,,,,,,,,,,,,,,,,,,,,,,,,,,,,,,,,CAN,001,1,21,M,2024-02-09_11h54.07.842,eye_track_exp,2023.1.3,120.10380916094952,
168,0,270,180,180,180,180,168,180,180,f,present,resp,freq_top,0,20,20,49,,,,,,,,,,,,963.6413193343096,963.8969415595184,963.8969543881431,0.7699933459646209,964.6708418496692,964.6708543575796,1145.4138431129686,1145.4138431129686,966.4529794001137,f,1,966.4534938279876,966.4535310310011,966.4535422560484,966.4541452014364,,1.740919311460857,None,,,,,,,,,,,,,,,,,,,,,,,,,,,,,,,,,,CAN,001,1,21,M,2024-02-09_11h54.07.842,eye_track_exp,2023.1.3,120.10380916094952,
180,0,180,0,12,0,12,180,180,180,j,abs,resp,freq_top,0,21,21,7,,,,,,,,,,,,966.4546323684817,967.3523763585108,967.3523888664213,0.7049337638865254,968.0594404730937,968.0594529810032,1148.80260786709,1148.80260786709,969.0265773837109,j,1,969.0270934151631,969.0271315803229,969.0271402396447,969.0276309345618,,0.9290122946204065,None,,,,,,,,,,,,,,,,,,,,,,,,,,,,,,,,,,CAN,001,1,21,M,2024-02-09_11h54.07.842,eye_track_exp,2023.1.3,120.10380916094952,
0,180,180,180,12,0,180,12,0,0,j,abs,resp,freq_top,0,22,22,8,,,,,,,,,,,,969.0281164980288,969.2670477195998,969.2670605482244,0.7043109195300994,969.9747741119627,969.9747862991562,1150.7176458061458,1150.7176458061458,970.907860002495,j,1,970.9083731475066,970.9084103505193,970.908428952026,970.9089004040052,,0.8850360878714127,None,,,,,,,,,,,,,,,,,,,,,,,,,,,,,,,,,,CAN,001,1,21,M,2024-02-09_11h54.07.842,eye_track_exp,2023.1.3,120.10380916094952,
180,0,180,0,168,180,0,180,12,180,None,abs,inhibit,freq_top,0,23,23,30,,,,,,,,,,,,970.9093939853628,971.1408076325188,971.1408198197132,1.027086176634308,972.1726011352694,972.1726136431789,1152.9158050908472,1152.9158050908472,975.1862770912503,None,1,975.1866738164872,975.186712302363,975.186721603116,975.1875759895602,,,,,,,,,,,,,,,,,,,,,,,,,,,,,,,,,,,,,CAN,001,1,21,M,2024-02-09_11h54.07.842,eye_track_exp,2023.1.3,120.10380916094952,
0,180,0,0,180,168,180,0,0,168,f,abs,resp,freq_top,0,24,24,16,,,,,,,,,,,,975.188069891633,975.4202404276803,975.4202529355898,0.7915970608419742,976.2108076677978,976.2108208171385,1156.9540350356174,1156.9540350356174,977.5106860845017,f,1,977.511202115953,977.5112409225449,977.5112492611515,977.5117033944862,,1.2562365296889766,None,,,,,,,,,,,,,,,,,,,,,,,,,,,,,,,,,,CAN,001,1,21,M,2024-02-09_11h54.07.842,eye_track_exp,2023.1.3,120.10380916094952,
0,0,168,0,0,0,0,0,180,168,f,abs,resp,freq_top,0,25,25,19,,,,,,,,,,,,977.5121786950531,977.760127157334,977.7601403066747,0.8741154634634133,978.6336991308926,978.6337122802333,1159.3769688331759,1159.3769688331759,979.5349373177332,f,1,979.5354767614263,979.5355152473021,979.5355239066239,979.5360094700909,,0.8654445320580635,None,,,,,,,,,,,,,,,,,,,,,,,,,,,,,,,,,,CAN,001,1,21,M,2024-02-09_11h54.07.842,eye_track_exp,2023.1.3,120.10380916094952,
0,0,168,0,0,0,0,0,168,0,f,abs,resp,freq_top,0,26,26,11,,,,,,,,,,,,979.536529670846,979.9995888425592,979.9996016711848,0.9094421881929481,980.915353202522,980.9153705211656,1161.6583672944462,1161.6583672944462,981.7489697812107,f,1,981.7494838883686,981.7495217328133,981.7495300714199,981.7498825378998,,0.7912857771789277,None,,,,,,,,,,,,,,,,,,,,,,,,,,,,,,,,,,CAN,001,1,21,M,2024-02-09_11h54.07.842,eye_track_exp,2023.1.3,120.10380916094952,
0,0,180,0,168,0,0,0,180,168,f,abs,resp,freq_top,0,27,27,17,,,,,,,,,,,,981.7503751571103,981.9739899622418,981.9740024701514,0.9819651842026609,982.9553284817612,982.9553406689547,1163.6983088985435,1163.6983088985435,983.7217471176482,f,1,983.7222573762192,983.7222948999479,983.7223032385546,983.7227698797988,,0.7200314230622098,None,,,,,,,,,,,,,,,,,,,,,,,,,,,,,,,,,,CAN,001,1,21,M,2024-02-09_11h54.07.842,eye_track_exp,2023.1.3,120.10380916094952,
0,0,0,-168,180,180,180,180,0,12,None,abs,inhibit,freq_top,0,28,28,25,,,,,,,,,,,,983.723251915394,985.0452083962064,985.0452218662631,0.766612023124606,985.8107431398121,985.8107556477216,1166.5542142515123,1166.5542142515123,988.8247016462656,None,1,988.8250829771514,988.8251240287527,988.8251336502217,988.8261573745194,,,,,,,,,,,,,,,,,,,,,,,,,,,,,,,,,,,,,CAN,001,1,21,M,2024-02-09_11h54.07.842,eye_track_exp,2023.1.3,120.10380916094952,
0,0,0,-168,0,12,0,0,0,0,None,abs,inhibit,freq_top,0,29,29,21,,,,,,,,,,,,988.8266519180233,989.8500170139641,989.8500301633048,0.8275507493550546,990.6823911402944,990.68240396892,1171.4250835544399,1171.4250835544399,993.6955667798902,None,1,993.6959516386487,993.6959898038085,993.6959991045615,993.6967938378984,,,,,,,,,,,,,,,,,,,,,,,,,,,,,,,,,,,,,CAN,001,1,21,M,2024-02-09_11h54.07.842,eye_track_exp,2023.1.3,120.10380916094952,
0,168,180,90,0,180,0,168,0,0,f,present,resp,freq_top,0,30,30,48,,,,,,,,,,,,993.69728196709,994.6707623121929,994.6707757822496,0.7786032476304585,995.4527786321287,995.4527914607534,1176.1960428822458,1176.1960428822458,997.2026037619298,f,1,997.2031278112727,997.2031659764334,997.2031746357552,1017.9670580145712,,1.7090385740593774,None,,,,,,,,,,,,,,,,,,,,,,,,,,,,,,,,,,CAN,001,1,21,M,2024-02-09_11h54.07.842,eye_track_exp,2023.1.3,120.10380916094952,
180,270,180,12,180,0,12,180,0,180,j,present,resp,freq_top,0,31,31,33,,,,,,,,,,,,1017.9676224740833,1017.9684505618452,1017.9684611454613,0.8993850382170651,1018.866619820803,1018.8666323287125,1199.6095226244033,1199.6095226244033,1019.9333546502321,j,1,1019.933869078106,1019.933908205413,1019.9339165440197,1019.9343030063565,,1.0306496441371564,None,,,,,,,,,,,,,,,,,,,,,,,,,,,,,,,,,,CAN,001,1,21,M,2024-02-09_11h54.07.842,eye_track_exp,2023.1.3,120.10380916094952,
180,0,180,12,180,180,12,180,180,180,j,abs,resp,freq_top,0,32,32,1,,,,,,,,,,,,1019.9347869662452,1020.5483461175927,1020.5483595876494,0.8953305117047037,1021.4478335177982,1021.4478463464238,1202.1906606325092,1202.1906606325092,1022.3811137620041,j,1,1022.3817144623827,1022.3817532689745,1022.3817616075803,1022.3822725075825,,0.8972906321714618,None,,,,,,,,,,,,,,,,,,,,,,,,,,,,,,,,,,CAN,001,1,21,M,2024-02-09_11h54.07.842,eye_track_exp,2023.1.3,120.10380916094952,
180,180,0,168,180,180,180,0,0,168,f,abs,resp,freq_top,0,33,33,18,,,,,,,,,,,,1022.3827471667182,1022.7719025524793,1022.7719150603889,0.9893988902167838,1023.7621797373786,1023.7621928867193,1204.5053804858007,1204.5053804858007,1024.9959846402871,f,1,1024.9965394783303,1024.9965779642062,1024.996586944244,1024.9971154836057,,1.1912771819997943,None,,,,,,,,,,,,,,,,,,,,,,,,,,,,,,,,,,CAN,001,1,21,M,2024-02-09_11h54.07.842,eye_track_exp,2023.1.3,120.10380916094952,
180,168,0,180,0,180,180,180,168,180,f,abs,resp,freq_top,0,34,34,12,,,,,,,,,,,,1024.997606819954,1025.4195980342693,1025.4196111836109,0.8553676970573305,1026.2768199249076,1026.2768324328172,1207.0198955942333,1207.0198955942333,1027.3854796639025,f,1,1027.3859783767102,1027.386016221155,1027.3860245597616,1027.3864956910247,,1.059958562886095,None,,,,,,,,,,,,,,,,,,,,,,,,,,,,,,,,,,CAN,001,1,21,M,2024-02-09_11h54.07.842,eye_track_exp,2023.1.3,120.10380916094952,
0,270,0,0,12,0,180,180,180,12,j,present,resp,freq_top,0,35,35,42,,,,,,,,,,,,1027.3869684258661,1027.826062121976,1027.8260749506017,0.7564298016965767,1028.5830369653631,1028.5830491525567,1209.3262761996612,1209.3262761996612,1029.48312923525,j,1,1029.483658416043,1029.4836959397717,1029.4837042783784,1029.4842100469305,,0.8507996941525562,None,,,,,,,,,,,,,,,,,,,,,,,,,,,,,,,,,,CAN,001,1,21,M,2024-02-09_11h54.07.842,eye_track_exp,2023.1.3,120.10380916094952,
90,0,0,12,0,12,180,180,180,0,j,present,resp,freq_top,0,36,36,32,,,,,,,,,,,,1029.4847247955195,1029.8819622152087,1029.8819750438333,0.943551717336783,1030.8314039615434,1030.8314161487378,1211.5743654561038,1211.5743654561038,1031.7148799545348,j,1,1031.715454356232,1031.7154922006766,1031.7155005392833,1031.7160159293035,,0.8419177954383485,None,,,,,,,,,,,,,,,,,,,,,,,,,,,,,,,,,,CAN,001,1,21,M,2024-02-09_11h54.07.842,eye_track_exp,2023.1.3,120.10380916094952,
168,0,180,0,0,180,180,0,168,0,f,abs,resp,freq_top,0,37,37,13,,,,,,,,,,,,1031.7165011720554,1032.1393041176361,1032.1393163048297,0.8522196623152026,1032.9960221640158,1032.9960349926414,1213.7391950101783,1213.7391950101783,1033.8291499720817,f,1,1033.82965670278,1033.8296935850776,1033.8297019236843,1033.8302622138935,,0.7887595001457157,None,,,,,,,,,,,,,,,,,,,,,,,,,,,,,,,,,,CAN,001,1,21,M,2024-02-09_11h54.07.842,eye_track_exp,2023.1.3,120.10380916094952,
180,270,180,12,180,180,180,180,12,180,j,present,resp,freq_top,0,38,38,35,,,,,,,,,,,,1033.8307291758538,1034.1875525773185,1034.1875660473752,0.7478752644185654,1034.9361827206758,1034.9361955493005,1215.679226639154,1215.679226639154,1036.4195252318214,j,1,1036.4200425461358,1036.4200800698645,1036.4200884084712,1036.4203799389807,,1.442003362369178,None,,,,,,,,,,,,,,,,,,,,,,,,,,,,,,,,,,CAN,001,1,21,M,2024-02-09_11h54.07.842,eye_track_exp,2023.1.3,120.10380916094952,
180,180,0,168,180,180,180,180,168,180,f,abs,resp,freq_top,0,39,39,10,,,,,,,,,,,,1036.4208828210913,1036.9601113139815,1036.9601244633222,0.7303161797963248,1037.6920424358095,1037.692054623003,1218.435209829806,1218.435209829806,1038.4593985234897,f,1,1038.4599235349788,1038.4599620208546,1038.4599706801764,1038.4604562436434,,0.7326727504159862,None,,,,,,,,,,,,,,,,,,,,,,,,,,,,,,,,,,CAN,001,1,21,M,2024-02-09_11h54.07.842,eye_track_exp,2023.1.3,120.10380916094952,
180,0,90,180,12,0,180,180,12,180,j,present,resp,freq_top,0,40,40,41,,,,,,,,,,,,1038.4609488628548,1038.8582080912065,1038.8582308620162,0.9508035153755293,1039.8155615714677,1039.8155737586621,1220.5584124191355,1220.5584124191355,1041.2980901063393,j,1,1041.2986032513509,1041.2986410957956,1041.2986497551174,1041.2991131892059,,1.441200611142449,None,,,,,,,,,,,,,,,,,,,,,,,,,,,,,,,,,,CAN,001,1,21,M,2024-02-09_11h54.07.842,eye_track_exp,2023.1.3,120.10380916094952,
0,180,0,0,180,0,180,168,0,168,f,abs,resp,freq_top,0,41,41,14,,,,,,,,,,,,1041.2995936212228,1041.9557954437214,1041.955807951631,0.9658664696834564,1042.920648859038,1042.9206613669476,1223.6641260643346,1223.6641260643346,1044.0707267769012,f,1,1044.071240563343,1044.071279369935,1044.0712880292567,1044.0719785300125,,1.10330841200539,None,,,,,,,,,,,,,,,,,,,,,,,,,,,,,,,,,,CAN,001,1,21,M,2024-02-09_11h54.07.842,eye_track_exp,2023.1.3,120.10380916094952,
180,270,0,0,0,0,0,168,0,168,f,present,resp,freq_top,0,42,42,43,,,,,,,,,,,,1044.0724634520484,1045.0199356836874,1045.0199488330281,0.992145749156409,1046.0184908597648,1046.0185033676744,1226.7614994995229,1226.7614994995229,1047.2348626230623,f,1,1047.2353536386954,1047.2354030289025,1047.2354113675092,1047.2360460637447,,1.1736852881513187,None,,,,,,,,,,,,,,,,,,,,,,,,,,,,,,,,,,CAN,001,1,21,M,2024-02-09_11h54.07.842,eye_track_exp,2023.1.3,120.10380916094952,
0,180,0,-168,180,0,180,0,12,180,None,abs,inhibit,freq_top,0,43,43,24,,,,,,,,,,,,1047.2365457386995,1048.358810555521,1048.3588230634305,0.826459375877648,1049.1906279195146,1049.1906420310024,1229.933805897127,1229.933805897127,1052.204267313913,None,1,1052.2046589077,1052.2046973935758,1052.2047063736136,1052.205242610151,,,,,,,,,,,,,,,,,,,,,,,,,,,,,,,,,,,,,CAN,001,1,21,M,2024-02-09_11h54.07.842,eye_track_exp,2023.1.3,120.10380916094952,
180,12,180,-168,180,180,0,180,180,180,None,abs,inhibit,freq_top,0,44,44,26,,,,,,,,,,,,1052.2057345879302,1052.206454273808,1052.206464215993,1.0762466940767321,1053.287315664681,1053.2873281725906,1234.0303265494495,1234.0303265494495,1056.3007979084205,None,1,1056.301232478102,1056.301271284694,1056.3012805854469,1056.3024329167129,,,,,,,,,,,,,,,,,,,,,,,,,,,,,,,,,,,,,CAN,001,1,21,M,2024-02-09_11h54.07.842,eye_track_exp,2023.1.3,120.10380916094952,
0,180,180,180,168,0,0,0,0,12,None,abs,inhibit,freq_top,0,45,45,31,,,,,,,,,,,,1056.3029319502366,1059.7325722323767,1059.7325853817174,1.086233508209477,1060.8229486146201,1060.8229617639618,1241.5655919592746,1241.5655919592746,1063.8361136705998,None,1,1063.8365527303004,1063.8365928197545,1063.8366024412235,1063.8376768385906,,,,,,,,,,,,,,,,,,,,,,,,,,,,,,,,,,,,,CAN,001,1,21,M,2024-02-09_11h54.07.842,eye_track_exp,2023.1.3,120.10380916094952,
90,0,0,12,0,180,180,180,0,12,j,present,resp,freq_top,0,46,46,36,,,,,,,,,,,,1063.8381652884982,1063.8391062681621,1063.8391165310622,0.9227571080337839,1064.7609841095027,1064.7609972588434,1245.5039382276036,1245.5039382276036,1065.6615410963404,j,1,1065.6620965758157,1065.6621347409755,1065.6621434002973,1065.662666487493,,0.8629647587904401,None,,,,,,,,,,,,,,,,,,,,,,,,,,,,,,,,,,CAN,001,1,21,M,2024-02-09_11h54.07.842,eye_track_exp,2023.1.3,120.10380916094952,
0,180,0,12,0,12,0,180,180,180,j,abs,resp,freq_top,0,47,47,0,,,,,,,,,,,,1065.6631655210167,1065.910169796477,1065.910183907965,1.0345368670607953,1066.9504834307081,1066.9504962593328,1247.693726834309,1247.693726834309,1067.8347525534573,j,1,1067.8352733956435,1067.8353122022354,1067.8353208615572,1067.8359125818988,,0.8488410837871925,None,,,,,,,,,,,,,,,,,,,,,,,,,,,,,,,,,,CAN,001,1,21,M,2024-02-09_11h54.07.842,eye_track_exp,2023.1.3,120.10380916094952,
90,0,180,180,180,168,0,168,0,0,f,present,resp,freq_top,0,48,48,44,,,,,,,,,,,,1067.8364145018631,1068.075138541135,1068.0751513697605,0.8895193664265472,1068.9656718816095,1068.965684389519,1249.7086911049837,1249.7086911049837,1069.7328172591187,f,1,1069.7333474020588,1069.7333858879347,1069.7333945472565,1069.734113270988,,0.7215528980214003,None,,,,,,,,,,,,,,,,,,,,,,,,,,,,,,,,,,CAN,001,1,21,M,2024-02-09_11h54.07.842,eye_track_exp,2023.1.3,120.10380916094952,
90,0,0,12,0,0,0,12,0,0,j,present,resp,freq_top,0,49,49,34,,,,,,,,,,,,1069.7346097387863,1070.5898563418468,1070.5898691704724,0.7915047503797954,1071.3801208264067,1071.3801339757483,1252.1233010490287,1252.1233010490287,1072.130982188416,j,1,1072.1314927677022,1072.6366760133888,1072.6366965391899,1072.6373607412634,1252.8560259420465,0.7072034392131172,None,,,,,,,,,,,,,,,,,,,,,,,,,,,,,,,,,,CAN,001,1,21,M,2024-02-09_11h54.07.842,eye_track_exp,2023.1.3,120.10380916094952,
,,,,,,,,,,,,,,,,,,,,,,,,,,,,,,,,,,,,,,,,,,,,,,,1072.637422318665,1073.1399615846813,1073.1399789033258,1080.0311369978517,space,6.869956359569187,None,,,,,,,,,,,,,,,,,,,,,,,,,,,CAN,001,1,21,M,2024-02-09_11h54.07.842,eye_track_exp,2023.1.3,120.10380916094952,
90,180,180,180,-12,0,0,180,-12,180,j,present,resp,freq_top,,,,,0,0,0,547,,,,,,1080.031162334386,1080.5328943591567,,,,0.7187402832129137,,,,,,,,,,,,,,,,,,,,,,1080.7108273918093,1080.712272536447,1080.7122853650717,1081.4383890838662,1081.4384035160692,1262.181441020235,1262.181441020235,1082.1885423057593,f,0,0.7124490640899239,None,1082.1899120822236,1262.9141668753991,1082.6948464525804,1082.6948583190588,1082.696075114167,,,,,,,,,,CAN,001,1,21,M,2024-02-09_11h54.07.842,eye_track_exp,2023.1.3,120.10380916094952,
180,0,168,180,0,180,168,180,180,180,f,abs,resp,freq_top,,,,,0,1,1,753,,,,,,,,,,,0.7981606369210714,,,,,,,,,,,,,,,,,,,,,,1082.6966209721722,1082.697321094397,1082.6973319987283,1083.4950980219219,1083.4951121334097,1264.2380248791942,1264.2380248791942,1084.3787831215059,f,1,0.847563994140728,None,1084.3792962665175,,1084.3800473825277,1084.3800576454278,1084.3806288399683,,,,,,,,,,CAN,001,1,21,M,2024-02-09_11h54.07.842,eye_track_exp,2023.1.3,120.10380916094952,
0,180,0,180,168,180,12,180,0,180,None,abs,inhibit,freq_top,,,,,0,2,2,342,,,,,,,,,,,0.8228565903581034,,,,,,,,,,,,,,,,,,,,,,1084.381118252023,1084.635769671013,1084.6357834617847,1085.459777609366,1085.459791720854,1266.2030296722896,1266.2030296722896,1088.4910255748264,None,1,,,1088.4914296765228,,1088.4914675209675,1088.4914761802893,1088.4920602034554,1267.7017623644697,1267.7017623644697,1267.7017623644697,1267.7017623644697,1269.1755029703081,1269.1755029703081,,,,CAN,001,1,21,M,2024-02-09_11h54.07.842,eye_track_exp,2023.1.3,120.10380916094952,
180,0,168,0,0,0,168,0,0,0,f,abs,resp,freq_top,,,,,0,3,3,999,,,,,,,,,,,0.7940644166053845,,,,,,,,,,,,,,,,,,,,,,1088.4925659720075,1088.4933071458327,1088.4933174087328,1089.2902412326766,1089.2902550234494,1270.033119341173,1270.033119341173,1090.1403791564344,f,1,0.812848771982317,None,1090.1409740839317,,1090.1410125698076,1090.1410215498454,1090.1414946054028,,,,,,,,,,CAN,001,1,21,M,2024-02-09_11h54.07.842,eye_track_exp,2023.1.3,120.10380916094952,
90,0,0,168,0,0,168,180,180,180,f,present,resp,freq_top,,,,,0,4,4,430,,,,,,,,,,,1.096123221315032,,,,,,,,,,,,,,,,,,,,,,1090.1419881867605,1090.3561229585248,1090.3561364285815,1091.4548478893867,1091.4548620008745,1272.1979428016502,1272.1979428016502,1092.122420684619,f,1,0.6318487357411868,None,1092.1229264531703,,1092.1229655804773,1092.122974560515,1092.1232356230394,,,,,,,,,,CAN,001,1,21,M,2024-02-09_11h54.07.842,eye_track_exp,2023.1.3,120.10380916094952,
168,0,180,0,180,0,168,180,180,180,f,abs,resp,freq_top,,,,,0,5,5,761,,,,,,,,,,,0.908262129818231,,,,,,,,,,,,,,,,,,,,,,1092.1237166964875,1092.1378734052014,1092.1378849509638,1093.045305252328,1093.0453190430999,1273.788259370429,1273.788259370429,1094.3459902688464,f,1,1.2652348481778972,None,1094.3465431825962,,1094.3465823099032,1094.346591289941,1094.3470694769476,,,,,,,,,,CAN,001,1,21,M,2024-02-09_11h54.07.842,eye_track_exp,2023.1.3,120.10380916094952,
0,180,168,180,0,12,180,180,180,180,None,abs,inhibit,freq_top,,,,,0,6,6,385,,,,,,,,,,,0.9187169547133205,,,,,,,,,,,,,,,,,,,,,,1094.347586470547,1094.9773523449285,1094.9773670978475,1095.9006868766692,1095.900700346726,1276.644169854847,1276.644169854847,1098.9325967991936,None,1,,,1098.9330089187806,,1098.9330464425102,1098.933055422547,1098.9335150080478,1278.1345841456796,1278.1345841456796,1278.1345841456796,1278.1345841456796,1279.6249830421611,1279.6249830421611,,,,CAN,001,1,21,M,2024-02-09_11h54.07.842,eye_track_exp,2023.1.3,120.10380916094952,
0,0,270,0,-168,180,180,0,180,-168,f,present,resp,freq_top,,,,,0,7,7,718,,,,,,,,,,,0.8840356476331162,,,,,,,,,,,,,,,,,,,,,,1098.9340156451499,1098.9348139063577,1098.9348241692578,1099.8228414955993,1099.822855286372,1280.5658453246233,1280.5658453246233,1101.9807791914563,f,1,2.1188602337178963,None,1101.981277583549,,1101.9813160694248,1101.9813250494626,1101.9817913699908,1282.056244541821,1282.056244541821,1282.056244541821,1282.056244541821,,,,,,CAN,001,1,21,M,2024-02-09_11h54.07.842,eye_track_exp,2023.1.3,120.10380916094952,
90,0,12,180,180,-168,0,0,0,0,None,present,inhibit,freq_top,,,,,0,8,8,275,,,,,,,,,,,1.0405888882996717,,,,,,,,,,,,,,,,,,,,,,1101.9822525590698,1102.2456646462651,1102.2456781163219,1103.2868047646798,1103.2868188761677,1284.0379031355405,1284.0379031355405,1106.3260635651968,None,1,,,1106.326436878192,,1106.3264740812056,1106.3264830612434,1106.3271296239573,1285.5199807442332,1285.5199807442332,1285.5199807442332,1285.5199807442332,1287.0103950350658,1287.0103950350658,,,,CAN,001,1,21,M,2024-02-09_11h54.07.842,eye_track_exp,2023.1.3,120.10380916094952,
0,12,0,270,168,0,0,0,0,0,None,present,inhibit,freq_top,,,,,0,9,9,267,,,,,,,,,,,1.038809867187552,,,,,,,,,,,,,,,,,,,,,,1106.3276052452402,1106.9590279365766,1106.9590420480645,1107.9987700555512,1107.998784167039,1288.742248222995,1288.742248222995,1111.0303464338185,None,1,,,1111.0308137164939,,1111.0308522023697,1111.0308611824075,1111.0314808050089,1290.2326628345427,1290.2326628345427,1290.2326628345427,1290.2326628345427,1291.7230575617214,1291.7230575617214,,,,CAN,001,1,21,M,2024-02-09_11h54.07.842,eye_track_exp,2023.1.3,120.10380916094952,
270,0,0,0,168,180,180,180,180,12,None,present,inhibit,freq_top,,,,,0,10,10,148,,,,,,,,,,,0.7394435688684001,,,,,,,,,,,,,,,,,,,,,,1111.0319500119786,1111.5212001050659,1111.5212142165537,1112.261880349336,1112.261894460824,1293.0053017501132,1293.0053017501132,1115.2931369741182,None,1,,,1115.2935032313699,,1115.293543320824,1115.293552942293,1115.293999699169,1294.4956833279512,1294.4956833279512,1294.4956833279512,1294.4956833279512,1295.9860944116263,1295.9860944116263,,,,CAN,001,1,21,M,2024-02-09_11h54.07.842,eye_track_exp,2023.1.3,120.10380916094952,
180,-12,180,-168,0,180,0,90,180,180,None,present,inhibit,freq_top,,,,,0,11,11,7,,,,,,,,,,,0.865745552012508,,,,,,,,,,,,,,,,,,,,,,1115.2945064298674,1115.8842694434652,1115.884283554953,1116.7503600834762,1116.7503757985414,1297.501492770909,1297.501492770909,1119.789838574201,None,1,,,1119.7902234329595,,1119.79026961601,1119.7902785960478,1119.7906201581964,1298.9835527402429,1298.9835527402429,1298.9835527402429,1298.9835527402429,1300.4739522781556,1300.4739522781556,,,,CAN,001,1,21,M,2024-02-09_11h54.07.842,eye_track_exp,2023.1.3,120.10380916094952,
0,180,0,180,180,180,168,180,168,180,f,abs,resp,freq_top,,,,,0,12,12,834,,,,,,,,,,,0.79762913215103,,,,,,,,,,,,,,,,,,,,,,1119.7910957794784,1119.9141970226683,1119.914209851294,1120.713512743796,1120.713527496715,1301.4564216409926,1301.4564216409926,1121.6967072446778,j,0,0.9396122669750184,None,1121.6972123717978,1302.4222965355975,1122.2029716227598,1122.202982847807,1122.204129726907,,,,,,,,,,CAN,001,1,21,M,2024-02-09_11h54.07.842,eye_track_exp,2023.1.3,120.10380916094952,
0,168,0,168,180,0,180,0,0,0,f,abs,resp,freq_top,,,,,0,13,13,989,,,,,,,,,,,0.8813687968814475,,,,,,,,,,,,,,,,,,,,,,1122.2046601905631,1122.2054966169308,1122.205507521263,1123.0866891146225,1123.0867032261103,1303.8294421440223,1303.8294421440223,1124.2029257604245,f,1,1.078824980655554,None,1124.2034738634402,,1124.204227545175,1124.20423748736,1124.2048577513924,,,,,,,,,,CAN,001,1,21,M,2024-02-09_11h54.07.842,eye_track_exp,2023.1.3,120.10380916094952,
12,0,90,0,0,-168,0,0,0,0,None,present,inhibit,freq_top,,,,,0,14,14,272,,,,,,,,,,,1.0594072617538801,,,,,,,,,,,,,,,,,,,,,,1124.2053696135408,1124.7934264199766,1124.7934405314645,1125.8591772938462,1125.859201026803,1306.602096453944,1306.602096453944,1128.8902090969705,None,1,,,1128.8906452702304,,1128.8906840768213,1128.8906930568592,1128.8912863807782,1308.100818883223,1308.100818883223,1308.100818883223,1308.100818883223,1309.5745642997963,1309.5745642997963,,,,CAN,001,1,21,M,2024-02-09_11h54.07.842,eye_track_exp,2023.1.3,120.10380916094952,
168,0,180,0,180,0,168,180,180,180,f,abs,resp,freq_top,,,,,0,15,15,763,,,,,,,,,,,0.9554055028690295,,,,,,,,,,,,,,,,,,,,,,1128.8918210137372,1128.8925759783351,1128.8925865619503,1129.847300231845,1129.847314343333,1310.590372373299,1310.590372373299,1131.3142227440621,f,1,1.4210561415793563,None,1131.3147650741957,,1131.3148035600716,1131.3148125401094,1131.3152929721264,,,,,,,,,,CAN,001,1,21,M,2024-02-09_11h54.07.842,eye_track_exp,2023.1.3,120.10380916094952,
180,270,180,0,0,180,168,0,12,180,None,present,inhibit,freq_top,,,,,0,16,16,96,,,,,,,,,,,1.0120545510932204,,,,,,,,,,,,,,,,,,,,,,1131.3157740455745,1131.579255728061,1131.579269839549,1132.5949627761402,1132.594976246197,1313.3463699961549,1313.3463699961549,1135.6348591593332,None,1,,,1135.635250111689,,1135.6352885975648,1135.6352978983186,1135.6358524156458,1314.8367737033705,1314.8367737033705,1314.8367737033705,1314.8367737033705,1316.310524572109,1316.310524572109,,,,CAN,001,1,21,M,2024-02-09_11h54.07.842,eye_track_exp,2023.1.3,120.10380916094952,
180,180,12,180,180,180,0,-168,180,180,None,abs,inhibit,freq_top,,,,,0,17,17,367,,,,,,,,,,,0.9864138545250678,,,,,,,,,,,,,,,,,,,,,,1135.6363578634819,1135.637099678739,1135.6371105830704,1136.6249750242696,1136.6249888150423,1317.3679547996217,1317.3679547996217,1139.6563285051734,None,1,,,1139.6567120810687,,1139.6567499255134,1139.6567592262672,1139.6572948213725,1318.8583636382882,1318.8583636382882,1318.8583636382882,1318.8583636382882,1320.3487574033197,1320.3487574033197,,,,CAN,001,1,21,M,2024-02-09_11h54.07.842,eye_track_exp,2023.1.3,120.10380916094952,
180,180,0,168,180,180,180,180,168,180,f,abs,resp,freq_top,,,,,0,18,18,817,,,,,,,,,,,0.8353824167130068,,,,,,,,,,,,,,,,,,,,,,1139.657792572033,1139.6585225208119,1139.658532783712,1140.4964969835091,1140.4965191128877,1321.2396794511405,1321.2396794511405,1141.3473295773256,j,0,0.8041718105578184,None,1141.347841439474,1322.0723053392421,1141.8529595798882,1141.8529708049355,1141.853679586482,,,,,,,,,,CAN,001,1,21,M,2024-02-09_11h54.07.842,eye_track_exp,2023.1.3,120.10380916094952,
180,12,0,270,180,0,180,0,168,180,None,present,inhibit,freq_top,,,,,0,19,19,76,,,,,,,,,,,0.8684890743785528,,,,,,,,,,,,,,,,,,,,,,1141.854199145806,1142.0460579719156,1142.0460711212572,1142.9197389887895,1142.9197627217463,1323.6709515344155,1323.6709515344155,1145.958828772169,None,1,,,1145.9592020851642,,1145.9599541633215,1145.9599644262216,1145.9605067563562,1325.1613411301441,1325.1613411301441,1325.1613411301441,1325.1613411301441,1326.6351016203516,1326.6351016203516,,,,CAN,001,1,21,M,2024-02-09_11h54.07.842,eye_track_exp,2023.1.3,120.10380916094952,
0,0,0,168,0,0,168,0,0,0,f,abs,resp,freq_top,,,,,0,20,20,997,,,,,,,,,,,1.0412051396298463,,,,,,,,,,,,,,,,,,,,,,1145.9610125249073,1145.9617723002393,1145.9617828838554,1146.9993213657226,1146.9993351564945,1327.7424858732784,1327.7424858732784,1147.7671479432347,f,1,0.7337458649199107,None,1147.7677528129161,,1147.7677922609391,1147.767801561693,1147.7682656372117,,,,,,,,,,CAN,001,1,21,M,2024-02-09_11h54.07.842,eye_track_exp,2023.1.3,120.10380916094952,
-12,180,180,-12,0,270,0,180,180,180,j,present,resp,freq_top,,,,,0,21,21,434,,,,,,,,,,,1.057590524578295,,,,,,,,,,,,,,,,,,,,,,1147.7687595392854,1148.0073055813818,1148.0073193721537,1149.0644385055039,1149.0644522962757,1329.8157325129005,1329.8157325129005,1150.388884701768,j,1,1.2674493896165586,None,1150.3894158068542,,1150.3894674420717,1150.3894847607153,1150.3900530688152,,,,,,,,,,CAN,001,1,21,M,2024-02-09_11h54.07.842,eye_track_exp,2023.1.3,120.10380916094952,
90,180,0,-168,180,0,180,0,0,-168,f,present,resp,freq_top,,,,,0,22,22,724,,,,,,,,,,,1.0724855530623438,,,,,,,,,,,,,,,,,,,,,,1150.3905726281391,1151.021232336987,1151.0212464484748,1152.095092184897,1152.0951059756699,1332.838164647067,1332.838164647067,1153.2616285875647,f,1,1.124408614152344,None,1153.2621683519737,,1153.2622106864374,1153.2622199871903,1153.2627953510346,,,,,,,,,,CAN,001,1,21,M,2024-02-09_11h54.07.842,eye_track_exp,2023.1.3,120.10380916094952,
180,168,180,0,90,180,0,180,0,168,f,present,resp,freq_top,,,,,0,23,23,555,,,,,,,,,,,0.842378792412139,,,,,,,,,,,,,,,,,,,,,,1153.26329278098,1153.8939358126145,1153.8939499241023,1154.742797288157,1154.7428110789288,1335.4942429940475,1335.4942429940475,1155.8266762924113,f,1,1.028931249780726,None,1155.8271868716974,,1155.8272263197205,1155.8272356204743,1155.8278190022083,,,,,,,,,,CAN,001,1,21,M,2024-02-09_11h54.07.842,eye_track_exp,2023.1.3,120.10380916094952,
270,180,180,-168,180,180,12,180,180,180,None,present,inhibit,freq_top,,,,,0,24,24,18,,,,,,,,,,,1.0950042738896713,,,,,,,,,,,,,,,,,,,,,,1155.8282952649224,1156.483055470655,1156.4830692614269,1157.5822140090513,1157.5822277998232,1338.3251732586023,1338.3251732586023,1158.3827295273577,f,0,0.757774842219078,None,1158.3832340130475,1339.1078451212898,1158.8885064176802,1158.8885179634426,1158.8895910779474,,,,,,,,,,CAN,001,1,21,M,2024-02-09_11h54.07.842,eye_track_exp,2023.1.3,120.10380916094952,
-12,0,0,-168,0,0,270,0,0,0,None,present,inhibit,freq_top,,,,,0,25,25,239,,,,,,,,,,,0.940713274085274,,,,,,,,,,,,,,,,,,,,,,1158.8901164101526,1159.0733665872676,1159.0733803780404,1160.0135380482589,1160.0135521597467,1340.7564488697499,1340.7564488697499,1163.044676970405,None,1,,,1163.0450631120257,,1163.0457943436668,1163.0458042858509,1163.0463725939508,1342.2468525769664,1342.2468525769664,1342.2468525769664,1342.2468525769664,1343.7372453798507,1343.7372453798507,,,,CAN,001,1,21,M,2024-02-09_11h54.07.842,eye_track_exp,2023.1.3,120.10380916094952,
270,0,180,-168,180,180,180,-168,0,0,f,present,resp,freq_top,,,,,0,26,26,680,,,,,,,,,,,0.7701345793961488,,,,,,,,,,,,,,,,,,,,,,1163.0468876632558,1163.2777663567376,1163.2777804682255,1164.0519318787165,1164.0519456694892,1344.7946512329754,1344.7946512329754,1165.0515143069642,f,1,0.95934878625485,None,1165.0520386770222,,1165.052076842182,1165.0520858222199,1165.052553104896,,,,,,,,,,CAN,001,1,21,M,2024-02-09_11h54.07.842,eye_track_exp,2023.1.3,120.10380916094952,
180,0,168,0,270,180,180,180,168,0,f,present,resp,freq_top,,,,,0,27,27,614,,,,,,,,,,,1.0727834714916207,,,,,,,,,,,,,,,,,,,,,,1165.0530303297564,1165.2924224196904,1165.2924371726094,1166.3659294804056,1166.3659429504614,1347.109395781371,1347.109395781371,1167.4502257356971,f,1,1.044858950213893,None,1167.4507667829685,,1167.4508059102754,1167.4508148903133,1167.4515518948356,,,,,,,,,,CAN,001,1,21,M,2024-02-09_11h54.07.842,eye_track_exp,2023.1.3,120.10380916094952,
0,270,0,0,-168,0,0,-168,0,0,f,present,resp,freq_top,,,,,0,28,28,682,,,,,,,,,,,0.8955401384383623,,,,,,,,,,,,,,,,,,,,,,1167.4520323268525,1167.4529816451231,1167.4529919080242,1168.3565289845146,1168.3565427752865,1349.099367965704,1349.099367965704,1169.2066730018696,f,1,0.8145585070169545,None,1169.2072275191967,,1169.2072666465046,1169.2072756265416,1169.2077772257908,,,,,,,,,,CAN,001,1,21,M,2024-02-09_11h54.07.842,eye_track_exp,2023.1.3,120.10380916094952,
168,0,12,180,180,0,180,0,180,180,None,abs,inhibit,freq_top,,,,,0,29,29,398,,,,,,,,,,,1.0572050895964311,,,,,,,,,,,,,,,,,,,,,,1169.2082595821012,1169.547058123615,1169.547072235102,1170.6046002808826,1170.6046137509393,1351.3474585050099,1351.3474585050099,1173.6359117480379,None,1,,,1173.636284740318,,1173.6363219433315,1173.6363309233693,1173.636789867439,1352.8378686265387,1352.8378686265387,1352.8378686265387,1352.8378686265387,1354.3282582222673,1354.3282582222673,,,,CAN,001,1,21,M,2024-02-09_11h54.07.842,eye_track_exp,2023.1.3,120.10380916094952,
12,0,270,180,180,0,0,-168,180,0,None,present,inhibit,freq_top,,,,,0,30,30,189,,,,,,,,,,,0.7367053937489478,,,,,,,,,,,,,,,,,,,,,,1173.6372638851426,1173.7521083043857,1173.7521217744425,1174.4929094584495,1174.4929235699365,1355.235827014968,1355.235827014968,1177.5242748058308,None,1,,,1177.5246670410488,,1177.5247042440615,1177.5247129033842,1177.5252533092244,1356.7345587450009,1356.7345587450009,1356.7345587450009,1356.7345587450009,1358.2083006337025,1358.2083006337025,,,,CAN,001,1,21,M,2024-02-09_11h54.07.842,eye_track_exp,2023.1.3,120.10380916094952,
180,90,0,0,12,0,0,-168,180,180,None,present,inhibit,freq_top,,,,,0,31,31,64,,,,,,,,,,,0.8840522768958946,,,,,,,,,,,,,,,,,,,,,,1177.5257343826715,1177.5264707457627,1177.5264810086637,1178.4146429777547,1178.4146567685266,1359.1658282625522,1359.1658282625522,1181.4539607899478,None,1,,,1181.4543520630195,,1181.4543902281794,1181.4543988875012,1181.4549729684832,1360.6562268383177,1360.6562268383177,1360.6562268383177,1360.6562268383177,1362.1299757827628,1362.1299757827628,,,,CAN,001,1,21,M,2024-02-09_11h54.07.842,eye_track_exp,2023.1.3,120.10380916094952,
90,0,12,0,0,180,180,0,168,0,None,present,inhibit,freq_top,,,,,0,32,32,192,,,,,,,,,,,1.0688817489516151,,,,,,,,,,,,,,,,,,,,,,1181.4554659084097,1181.520563805252,1181.5205766338777,1182.593941938283,1182.5939557290558,1363.337269048665,1363.337269048665,1185.6254689263433,None,1,,,1185.6258432014856,,1185.6258813666464,1185.6258900259681,1185.6264374875518,1364.8277022617185,1364.8277022617185,1364.8277022617185,1364.8277022617185,1366.3181043653567,1366.3181043653567,,,,CAN,001,1,21,M,2024-02-09_11h54.07.842,eye_track_exp,2023.1.3,120.10380916094952,
0,90,0,-168,0,0,180,180,180,-168,f,present,resp,freq_top,,,,,0,33,33,717,,,,,,,,,,,1.093052368990713,,,,,,,,,,,,,,,,,,,,,,1185.6269249753132,1185.6276632626978,1185.6276754498913,1186.7241714071106,1186.7241848771673,1367.4754420022664,1367.4754420022664,1188.265872296808,f,1,1.4937363973949687,None,1188.2665124452096,,1188.2665518932326,1188.2665611939856,1188.2670916576408,1368.9575138380778,1368.9575138380778,1368.9575138380778,1368.9575138380778,,,,,,CAN,001,1,21,M,2024-02-09_11h54.07.842,eye_track_exp,2023.1.3,120.10380916094952,
270,180,12,180,180,12,180,0,0,180,j,present,resp,freq_top,,,,,0,34,34,527,,,,,,,,,,,0.7185673254616665,,,,,,,,,,,,,,,,,,,,,,1188.2675794661172,1188.5648988927933,1188.5649130042812,1189.288796408755,1189.288810840958,1370.0316071669686,1370.0316071669686,1190.330477895156,j,1,1.0021652852774423,None,1190.3310080380961,,1190.331046844687,1190.331055824725,1190.331669033013,,,,,,,,,,CAN,001,1,21,M,2024-02-09_11h54.07.842,eye_track_exp,2023.1.3,120.10380916094952,
0,0,0,168,0,0,180,180,0,168,f,abs,resp,freq_top,,,,,0,35,35,906,,,,,,,,,,,0.9244520162322145,,,,,,,,,,,,,,,,,,,,,,1190.3321683872528,1190.5709267430975,1190.5709414960165,1191.494819320038,1191.494833752241,1372.2463961986214,1372.2463961986214,1192.1872745168657,f,1,0.6430962329577596,None,1192.1877883033085,,1192.1878264684683,1192.1878354485061,1192.1883867586776,,,,,,,,,,CAN,001,1,21,M,2024-02-09_11h54.07.842,eye_track_exp,2023.1.3,120.10380916094952,
180,180,180,90,168,0,0,0,0,12,None,present,inhibit,freq_top,,,,,0,36,36,168,,,,,,,,,,,0.9055015252532539,,,,,,,,,,,,,,,,,,,,,,1192.1888726428606,1192.4357778171898,1192.4357925701088,1193.343555395768,1193.343569827971,1374.0865040617027,1374.0865040617027,1196.3745997068017,None,1,,,1196.374993545598,,1196.3750313900427,1196.3750403700797,1196.375507652756,1375.5769035996163,1375.5769035996163,1375.5769035996163,1375.5769035996163,1377.0672970439318,1377.0672970439318,,,,CAN,001,1,21,M,2024-02-09_11h54.07.842,eye_track_exp,2023.1.3,120.10380916094952,
168,0,0,180,168,180,0,180,0,180,f,abs,resp,freq_top,,,,,0,37,37,859,,,,,,,,,,,1.0606771174424077,,,,,,,,,,,,,,,,,,,,,,1196.3760095727202,1196.3768880128364,1196.3768982757365,1197.439848660707,1197.4398624514797,1378.1830205447231,1378.1830205447231,1198.3568753573973,f,1,0.8820406038694273,None,1198.3574359683225,,1198.3574741334824,1198.3574831135202,1198.3579587348022,,,,,,,,,,CAN,001,1,21,M,2024-02-09_11h54.07.842,eye_track_exp,2023.1.3,120.10380916094952,
-168,0,0,180,180,168,0,0,0,0,f,abs,resp,freq_top,,,,,0,38,38,1006,,,,,,,,,,,0.7947408675365197,,,,,,,,,,,,,,,,,,,,,,1198.3584391668192,1198.6644522321321,1198.66446634362,1199.4632169638044,1199.463230433861,1380.2146427853259,1380.2146427853259,1200.5723834334976,f,1,1.0584245800173449,None,1200.5729129350066,,1200.5729520623136,1200.5729613630665,1200.5736027943312,,,,,,,,,,CAN,001,1,21,M,2024-02-09_11h54.07.842,eye_track_exp,2023.1.3,120.10380916094952,
0,168,0,270,180,180,168,0,0,0,f,present,resp,freq_top,,,,,0,39,39,659,,,,,,,,,,,0.795565848619158,,,,,,,,,,,,,,,,,,,,,,1200.5740880370822,1201.0456031971498,1201.0456169879217,1201.8447871041526,1201.8448018570716,1382.5876180674513,1382.5876180674513,1202.6948637712248,f,1,0.8139096992936175,None,1202.6953685776289,,1202.6954067427896,1202.6954157228274,1202.6959067384596,,,,,,,,,,CAN,001,1,21,M,2024-02-09_11h54.07.842,eye_track_exp,2023.1.3,120.10380916094952,
180,0,-168,0,90,180,-168,0,180,0,f,present,resp,freq_top,,,,,0,40,40,606,,,,,,,,,,,0.7001856055971863,,,,,,,,,,,,,,,,,,,,,,1202.6963724175575,1203.5519528855903,1203.5519669970781,1204.250655943646,1204.250670055134,1384.9939124965886,1384.9939124965886,1204.959853458613,f,1,0.6622798384869384,None,1204.9603787908181,,1204.9604182388412,1204.960426898163,1204.9608858422325,,,,,,,,,,CAN,001,1,21,M,2024-02-09_11h54.07.842,eye_track_exp,2023.1.3,120.10380916094952,
180,168,180,180,0,180,0,180,168,180,f,abs,resp,freq_top,,,,,0,41,41,838,,,,,,,,,,,0.8551055088984053,,,,,,,,,,,,,,,,,,,,,,1204.9613765371496,1204.9623213654022,1204.9623313075863,1205.824184011235,1205.824198122723,1386.5675730197336,1386.5675730197336,1206.6085065972811,f,1,0.7372766233129369,None,1206.6090091586766,,1206.6090479652676,1206.6090569453054,1222.0029749582027,,,,,,,,,,CAN,001,1,21,M,2024-02-09_11h54.07.842,eye_track_exp,2023.1.3,120.10380916094952,
180,90,180,0,12,0,-12,0,180,180,j,present,resp,freq_top,,,,,0,42,42,476,,,,,,,,,,,0.8636718818352922,,,,,,,,,,,,,,,,,,,,,,1222.003530437677,1222.577303852725,1222.577318284928,1223.4431228465946,1223.4431366373674,1404.1859599034906,1404.1859599034906,1226.4740924308862,None,0,,,1226.4744859489665,1407.200064976987,1226.9807246697992,1226.9807358948465,1226.981228514057,1405.6763552721004,1405.6763552721004,1405.6763552721004,1405.6763552721004,1407.1667535271508,1407.1667535271508,,,,CAN,001,1,21,M,2024-02-09_11h54.07.842,eye_track_exp,2023.1.3,120.10380916094952,
168,0,270,180,180,180,180,168,180,180,f,present,resp,freq_top,,,,,0,43,43,448,,,,,,,,,,,1.0832168100510087,,,,,,,,,,,,,,,,,,,,,,1226.9817573741338,1227.2148990371152,1227.214912507172,1228.2969785059586,1228.2969922967313,1409.0401680293344,1409.0401680293344,1229.2476835511688,f,1,0.9032267578049868,None,1229.248267574335,,1229.249002654563,1229.249012596748,1229.249566472644,,,,,,,,,,CAN,001,1,21,M,2024-02-09_11h54.07.842,eye_track_exp,2023.1.3,120.10380916094952,
0,0,0,0,-168,0,0,0,0,168,f,abs,resp,freq_top,,,,,0,44,44,932,,,,,,,,,,,0.7170052998098122,,,,,,,,,,,,,,,,,,,,,,1229.2500741654894,1229.8298093634212,1229.8298241163402,1230.5449090081647,1230.5449231196517,1411.2882611343648,1411.2882611343648,1231.5617619731966,f,1,0.9749195301892541,None,1231.5622908332734,,1231.5623302812965,1231.5623395820494,1231.5629957662331,,,,,,,,,,CAN,001,1,21,M,2024-02-09_11h54.07.842,eye_track_exp,2023.1.3,120.10380916094952,
0,270,0,-168,0,-12,0,0,0,0,None,present,inhibit,freq_top,,,,,0,45,45,280,,,,,,,,,,,1.0056763164531968,,,,,,,,,,,,,,,,,,,,,,1231.5635204570071,1232.2192630147201,1232.219277126208,1233.2264531384753,1233.2264666085312,1413.9693216255027,1413.9693216255027,1236.257785772862,None,1,,,1236.2581844223923,,1236.2582235496993,1236.2582325297371,1236.2588701124141,1415.4597195598371,1415.4597195598371,1415.4597195598371,1415.4597195598371,1416.9501207013282,1416.9501207013282,,,,CAN,001,1,21,M,2024-02-09_11h54.07.842,eye_track_exp,2023.1.3,120.10380916094952,
180,0,168,0,0,0,168,0,0,0,f,abs,resp,freq_top,,,,,0,46,46,995,,,,,,,,,,,0.7863791013677159,,,,,,,,,,,,,,,,,,,,,,1236.2593617694774,1236.9985798711814,1236.9985946241004,1237.788940570431,1237.7889543612037,1418.5404520230259,1418.5404520230259,1238.5480703021494,f,1,0.7148104932894057,None,1238.548582805729,,1238.5486212916048,1238.5486305923587,1238.549117117972,,,,,,,,,,CAN,001,1,21,M,2024-02-09_11h54.07.842,eye_track_exp,2023.1.3,120.10380916094952,
180,270,0,0,0,0,0,168,0,168,f,present,resp,freq_top,,,,,0,47,47,557,,,,,,,,,,,0.7907084318782595,,,,,,,,,,,,,,,,,,,,,,1238.5495853627954,1239.2718186853417,1239.2718327968296,1240.062482781579,1240.0624965723518,1420.8051832136152,1420.8051832136152,1240.9622876902604,f,1,0.8657950742435787,None,1240.9628313032563,,1240.9628704305642,1240.962879410601,1240.9633489382868,,,,,,,,,,CAN,001,1,21,M,2024-02-09_11h54.07.842,eye_track_exp,2023.1.3,120.10380916094952,
180,180,0,90,0,12,180,180,-12,180,j,present,resp,freq_top,,,,,0,48,48,542,,,,,,,,,,,1.0010040414589114,,,,,,,,,,,,,,,,,,,,,,1240.9638409160661,1241.2285294514768,1241.2285592780308,1242.2351487014066,1242.2351631336096,1422.9783462426722,1422.9783462426722,1243.2853762972545,j,1,1.0123685323951577,None,1243.2859016294597,,1243.2859407567666,1243.2859497368045,1243.2864798797445,,,,,,,,,,CAN,001,1,21,M,2024-02-09_11h54.07.842,eye_track_exp,2023.1.3,120.10380916094952,
0,0,180,0,180,168,0,168,0,0,f,abs,resp,freq_top,,,,,0,49,49,974,,,,,,,,,,,1.0753270748346409,,,,,,,,,,,,,,,,,,,,,,1243.2871912270166,1244.159178223922,1244.159192335409,1245.2409389014265,1245.2409526921992,1425.9841178411862,1425.9841178411862,1245.8417223455726,f,1,0.5666594349431762,None,1245.8422595442562,,1245.8422993129952,1245.8423086137482,1245.8427752549933,,,,,,,,,,CAN,001,1,21,M,2024-02-09_11h54.07.842,eye_track_exp,2023.1.3,120.10380916094952,
12,0,270,180,180,0,0,-168,180,0,None,present,inhibit,freq_top,,,,,0,50,50,187,,,,,,,,,,,1.0314133845163247,,,,,,,,,,,,,,,,,,,,,,1245.8432714020755,1248.438985935657,1248.439000688576,1249.4709083660919,1249.4709224775797,1430.2222164849763,1430.2222164849763,1252.5100828183977,None,1,,,1252.5104846750846,,1252.5105234816756,1252.5105327824294,1252.5109923679302,1431.7125938935105,1431.7125938935105,1431.7125938935105,1431.7125938935105,1433.1863425172396,1433.1863425172396,,,,CAN,001,1,21,M,2024-02-09_11h54.07.842,eye_track_exp,2023.1.3,120.10380916094952,
90,180,180,0,168,0,-12,180,180,180,None,present,inhibit,freq_top,,,,,0,51,51,28,,,,,,,,,,,1.0098709125036172,,,,,,,,,,,,,,,,,,,,,,1252.5114827421312,1252.5123566922284,1252.5123672758446,1253.525609624291,1253.525623415063,1434.2687596996439,1434.2687596996439,1256.556958935891,None,1,,,1256.5573563025591,,1256.5573935055727,1256.5574021648945,1256.557978811601,1435.7591637275755,1435.7591637275755,1435.7591637275755,1435.7591637275755,1437.2495610204787,1437.2495610204787,,,,CAN,001,1,21,M,2024-02-09_11h54.07.842,eye_track_exp,2023.1.3,120.10380916094952,
0,12,0,90,0,0,180,180,180,-12,j,present,resp,freq_top,,,,,0,52,52,731,,,,,,,,,,,1.0361645152669214,,,,,,,,,,,,,,,,,,,,,,1256.5584675822238,1257.305690104672,1257.30570421616,1258.3465845549126,1258.3465983456845,1439.0896714492856,1439.0896714492856,1259.5475616471567,f,0,1.1570465611612235,None,1259.5480741507372,1440.2720021346831,1260.0526531681735,1260.0526647139359,1260.05364610377,,,,,,,,,,CAN,001,1,21,M,2024-02-09_11h54.07.842,eye_track_exp,2023.1.3,120.10380916094952,
180,12,0,270,180,180,0,180,12,180,j,present,resp,freq_top,,,,,0,53,53,497,,,,,,,,,,,1.0586603867797173,,,,,,,,,,,,,,,,,,,,,,1260.0541598902128,1260.6033100418954,1260.6033247948144,1261.669212934975,1261.6692273671779,1442.4118476203057,1442.4118476203057,1262.6683976758377,j,1,0.9540762212636764,None,1262.6689076136927,,1262.669654881115,1262.6696651440152,1262.6706266494803,,,,,,,,,,CAN,001,1,21,M,2024-02-09_11h54.07.842,eye_track_exp,2023.1.3,120.10380916094952,
270,180,180,-168,180,180,180,180,12,180,None,present,inhibit,freq_top,,,,,0,54,54,88,,,,,,,,,,,0.9287255916472139,,,,,,,,,,,,,,,,,,,,,,1262.671105477919,1263.3507631588818,1263.3507772703697,1264.2837935656107,1264.2838076770986,1445.0346231767717,1445.0346231767717,1267.3229266456,None,1,,,1267.3233070143397,,1267.3233451794995,1267.3233541595373,1267.3238063685785,1446.525030091144,1446.525030091144,1446.525030091144,1446.525030091144,1447.9987655655323,1447.9987655655323,,,,CAN,001,1,21,M,2024-02-09_11h54.07.842,eye_track_exp,2023.1.3,120.10380916094952,
90,180,180,-168,0,180,-12,180,0,180,None,present,inhibit,freq_top,,,,,0,55,55,133,,,,,,,,,,,0.756756757967487,,,,,,,,,,,,,,,,,,,,,,1267.3242877627417,1267.7137738063202,1267.713788238524,1268.471704061575,1268.471718173062,1449.222734761437,1449.222734761437,1271.5114997400597,None,1,,,1271.511889088837,,1271.5119272539978,1271.5119362340347,1271.512315319912,1450.7131516179943,1450.7131516179943,1450.7131516179943,1450.7131516179943,1452.1868819609326,1452.1868819609326,,,,CAN,001,1,21,M,2024-02-09_11h54.07.842,eye_track_exp,2023.1.3,120.10380916094952,
0,180,-168,0,180,168,0,180,0,180,f,abs,resp,freq_top,,,,,0,56,56,868,,,,,,,,,,,0.7688911719182756,,,,,,,,,,,,,,,,,,,,,,1271.5127970347912,1271.5139403860194,1271.5139509696355,1272.284280091224,1272.2842938819967,1453.0278406825855,1453.0278406825855,1274.442634396687,f,1,2.1137470643961933,None,1274.4431805754084,,1274.4432187405691,1274.443227399891,1274.4435044981974,1454.5182431069388,1454.5182431069388,1454.5182431069388,1454.5182431069388,,,,,,CAN,001,1,21,M,2024-02-09_11h54.07.842,eye_track_exp,2023.1.3,120.10380916094952,
0,-168,0,90,0,0,0,12,0,0,None,present,inhibit,freq_top,,,,,0,57,57,232,,,,,,,,,,,0.7470420295269564,,,,,,,,,,,,,,,,,,,,,,1274.4440016074268,1275.024772716849,1275.0247865076217,1275.7730991425024,1275.7731129332742,1456.5165458798147,1456.5165458798147,1278.8046068876247,None,1,,,1278.804990784236,,1278.805030232259,1278.8050392122968,1278.8055151542949,1458.006953435618,1458.006953435618,1458.006953435618,1458.006953435618,1459.4973600292751,1459.4973600292751,,,,CAN,001,1,21,M,2024-02-09_11h54.07.842,eye_track_exp,2023.1.3,120.10380916094952,
90,180,168,180,168,0,0,180,180,180,f,present,resp,freq_top,,,,,0,58,58,441,,,,,,,,,,,0.748661289384245,,,,,,,,,,,,,,,,,,,,,,1278.805991417008,1279.7866984474476,1279.7867128796506,1280.5361650171726,1280.5361784872293,1461.2791717326372,1461.2791717326372,1281.8692788741082,f,1,1.2865836049395512,None,1281.8697900948255,,1281.8698289014173,1281.8698382021703,1281.8702031765597,,,,,,,,,,CAN,001,1,21,M,2024-02-09_11h54.07.842,eye_track_exp,2023.1.3,120.10380916094952,
0,90,0,-168,180,180,180,12,0,0,None,present,inhibit,freq_top,,,,,0,59,59,220,,,,,,,,,,,0.8970038607377393,,,,,,,,,,,,,,,,,,,,,,1281.8706836085767,1284.674621804109,1284.674636236312,1285.573101836514,1285.573115627286,1466.3165604403039,1466.3165604403039,1288.6049476159124,None,1,,,1288.6053350403954,,1288.605372564125,1288.6053812234468,1288.6059488901155,1467.8069795418705,1467.8069795418705,1467.8069795418705,1467.8069795418705,1469.2973672133048,1469.2973672133048,,,,CAN,001,1,21,M,2024-02-09_11h54.07.842,eye_track_exp,2023.1.3,120.10380916094952,
-168,0,0,0,0,0,0,-168,180,180,f,abs,resp,freq_top,,,,,0,60,60,815,,,,,,,,,,,0.8429984581143195,,,,,,,,,,,,,,,,,,,,,,1288.6064543379516,1288.896243040872,1288.8962571523598,1289.7451962410842,1289.745210673288,1470.4880265629517,1470.4880265629517,1291.536554045234,f,1,1.7577071712203178,None,1291.5370665488144,,1291.5371056761214,1291.5371149768744,1291.5376935478753,1471.9784302701673,1471.9784302701673,1471.9784302701673,1471.9784302701673,,,,,,CAN,001,1,21,M,2024-02-09_11h54.07.842,eye_track_exp,2023.1.3,120.10380916094952,
12,0,168,0,0,90,0,0,180,180,None,present,inhibit,freq_top,,,,,0,61,61,58,,,,,,,,,,,0.9847676545947655,,,,,,,,,,,,,,,,,,,,,,1291.538192260683,1292.159776358575,1292.159790470063,1293.1502315406506,1293.1502453314224,1473.8934643606362,1473.8934643606362,1295.3247425375084,j,0,2.1275439301707593,None,1295.3252672282824,1476.0499700611954,1295.8306243018424,1295.8306355268887,1295.8313106332944,1475.3838651814112,1475.3838651814112,1475.3838651814112,1475.3838651814112,,,,,,CAN,001,1,21,M,2024-02-09_11h54.07.842,eye_track_exp,2023.1.3,120.10380916094952,
180,168,180,180,168,0,0,0,180,180,f,abs,resp,freq_top,,,,,0,62,62,803,,,,,,,,,,,0.736131473737408,,,,,,,,,,,,,,,,,,,,,,1295.831842700528,1295.8326044001542,1295.8326146630543,1296.5726656632542,1296.572679454026,1477.3155617318262,1477.3155617318262,1297.3066634766146,f,1,0.6890842888651605,None,1297.3071894502518,,1297.307940566262,1297.307950829162,1297.3084559562822,,,,,,,,,,CAN,001,1,21,M,2024-02-09_11h54.07.842,eye_track_exp,2023.1.3,120.10380916094952,
0,12,0,0,-12,180,180,180,270,0,j,present,resp,freq_top,,,,,0,63,63,590,,,,,,,,,,,0.9070825176852296,,,,,,,,,,,,,,,,,,,,,,1297.3089530655125,1297.946834969678,1297.946849081166,1298.8536414213213,1298.8536555328092,1479.5969444780303,1479.5969444780303,1300.4960983339788,j,1,1.608079858820929,None,1300.49660923398,,1300.496647719856,1300.4966566998937,1300.497123661854,1481.087363258881,1481.087363258881,1481.087363258881,1481.087363258881,,,,,,CAN,001,1,21,M,2024-02-09_11h54.07.842,eye_track_exp,2023.1.3,120.10380916094952,
-12,0,0,12,0,270,0,0,0,0,j,present,resp,freq_top,,,,,0,64,64,664,,,,,,,,,,,0.7853271171067258,,,,,,,,,,,,,,,,,,,,,,1300.4976226953777,1300.5452120844366,1300.5452245923461,1301.3353056275646,1301.335327756944,1482.0781846982081,1482.0781846982081,1302.2857451202317,j,1,0.9019785325654084,None,1302.2862852053559,,1302.2863256155251,1302.286334916279,1302.2867685238134,,,,,,,,,,CAN,001,1,21,M,2024-02-09_11h54.07.842,eye_track_exp,2023.1.3,120.10380916094952,
180,0,180,168,180,168,180,0,180,180,f,abs,resp,freq_top,,,,,0,65,65,790,,,,,,,,,,,0.8417727988053022,,,,,,,,,,,,,,,,,,,,,,1302.2872730095023,1304.9908605666342,1304.990874357406,1305.8308795914854,1305.8308933822573,1486.574371870417,1486.574371870417,1306.965174130949,f,1,1.0936138198794652,None,1306.9657068396136,,1306.9657453254895,1306.9657543055273,1306.966218701762,,,,,,,,,,CAN,001,1,21,M,2024-02-09_11h54.07.842,eye_track_exp,2023.1.3,120.10380916094952,
180,180,0,0,-168,0,0,-168,180,180,f,abs,resp,freq_top,,,,,0,66,66,813,,,,,,,,,,,0.9628420635496676,,,,,,,,,,,,,,,,,,,,,,1306.9666927194667,1309.5453105441356,1309.5453249763386,1310.5104554899617,1310.5104692807345,1491.2537316065573,1491.2537316065573,1312.1852742134688,f,1,1.630779149109003,None,1312.185809808574,,1312.1858665752416,1312.1858758759945,1312.1864602198757,1492.7441529531334,1492.7441529531334,1492.7441529531334,1492.7441529531334,,,,,,CAN,001,1,21,M,2024-02-09_11h54.07.842,eye_track_exp,2023.1.3,120.10380916094952,
180,180,90,180,12,180,12,0,0,180,j,present,resp,freq_top,,,,,0,67,67,529,,,,,,,,,,,0.7169220775903882,,,,,,,,,,,,,,,,,,,,,,1312.1869653469967,1313.6998576343312,1313.6998720665342,1314.4157116022407,1314.4157257137285,1495.167078412086,1495.167078412086,1315.5243383075258,j,1,1.0612529711770549,None,1315.5248604325743,,1315.5248998805973,1315.5249091813512,1315.525373898302,,,,,,,,,,CAN,001,1,21,M,2024-02-09_11h54.07.842,eye_track_exp,2023.1.3,120.10380916094952,
180,0,180,0,-168,180,-168,180,180,180,f,abs,resp,freq_top,,,,,0,68,68,769,,,,,,,,,,,1.0460919170927,,,,,,,,,,,,,,,,,,,,,,1315.5258665175124,1316.5806813090458,1316.5806960619648,1317.62969916553,1317.6297132770178,1498.3810169058834,1498.3810169058834,1318.4215207244833,f,1,0.7430745205092535,None,1318.4220313037695,,1318.4220707517925,1318.4220800525463,1318.4225450902122,,,,,,,,,,CAN,001,1,21,M,2024-02-09_11h54.07.842,eye_track_exp,2023.1.3,120.10380916094952,
0,168,0,168,0,180,0,180,90,0,f,present,resp,freq_top,,,,,0,69,69,589,,,,,,,,,,,1.0854115578315149,,,,,,,,,,,,,,,,,,,,,,1318.423029691532,1318.6540921550713,1318.6541059458432,1319.7444438422117,1319.7444585951307,1500.4875644117255,1500.4875644117255,1320.7783717074935,f,1,0.9882542447385276,None,1320.778873948173,,1320.778912754764,1320.7789214140867,1320.7791920980799,,,,,,,,,,CAN,001,1,21,M,2024-02-09_11h54.07.842,eye_track_exp,2023.1.3,120.10380916094952,
-12,0,12,180,90,180,180,0,180,180,j,present,resp,freq_top,,,,,0,70,70,458,,,,,,,,,,,0.8498262528249678,,,,,,,,,,,,,,,,,,,,,,1320.77965392859,1321.3849004514714,1321.3849161665376,1322.2344844993322,1322.234498290104,1502.9854443210406,1502.9854443210406,1323.9665695646636,j,1,1.6746431053870765,None,1323.9670904068498,,1323.9671288927257,1323.9671381934795,1323.9674935464,1504.4758499525506,1504.4758499525506,1504.4758499525506,1504.4758499525506,,,,,,CAN,001,1,21,M,2024-02-09_11h54.07.842,eye_track_exp,2023.1.3,120.10380916094952,
0,90,0,0,168,0,0,12,0,0,None,present,inhibit,freq_top,,,,,0,71,71,229,,,,,,,,,,,1.0570733417566605,,,,,,,,,,,,,,,,,,,,,,1323.967978789151,1324.6986613650233,1324.6986754765112,1325.7559334797288,1325.7559475912167,1506.4991281345547,1506.4991281345547,1328.7873161457546,None,1,,,1328.7876817615752,,1328.7877192853039,1328.7877279446266,1328.7883899016906,1507.9895510847082,1507.9895510847082,1507.9895510847082,1507.9895510847082,1509.4799288139584,1509.4799288139584,,,,CAN,001,1,21,M,2024-02-09_11h54.07.842,eye_track_exp,2023.1.3,120.10380916094952,
168,180,270,180,180,0,180,12,0,0,None,present,inhibit,freq_top,,,,,0,72,72,223,,,,,,,,,,,1.078048812542038,,,,,,,,,,,,,,,,,,,,,,1328.788882520902,1329.1031998760755,1329.1032139875633,1330.1858944775013,1330.1859089097043,1510.928710687881,1510.928710687881,1331.8014564979712,f,0,1.5711818460704308,None,1331.8019763780103,1512.519024049503,1332.3010403694389,1332.3010499909078,1332.3013097705698,1512.4274353621695,1512.4274353621695,1512.4274353621695,1512.4274353621695,,,1513.0186018273735,,,CAN,001,1,21,M,2024-02-09_11h54.07.842,eye_track_exp,2023.1.3,120.10380916094952,
-12,0,0,180,90,180,12,0,180,0,j,present,resp,freq_top,,,,,0,73,73,605,,,,,,,,,,,0.9834193335990303,,,,,,,,,,,,,,,,,,,,,,1332.3018514592723,1332.4919052978048,1332.4919194092927,1333.4747056391752,1333.474719750663,1514.2259008661567,1514.2259008661567,1334.915946526441,j,1,1.3932289290496556,None,1334.9164773108123,,1334.9171937895344,1334.9172040524345,1334.917823995751,,,,,,,,,,CAN,001,1,21,M,2024-02-09_11h54.07.842,eye_track_exp,2023.1.3,120.10380916094952,
-12,0,0,-168,0,0,270,0,0,0,None,present,inhibit,freq_top,,,,,0,74,74,242,,,,,,,,,,,0.764474315305959,,,,,,,,,,,,,,,,,,,,,,1334.9182992963179,1335.8064971855601,1335.806511297048,1336.5714835054341,1336.5714972962069,1517.3149558999967,1517.3149558999967,1339.6028068390679,None,1,,,1339.603254237375,,1339.6032911196726,1339.6033000997104,1339.6038581449102,1518.8053512686065,1518.8053512686065,1518.8053512686065,1518.8053512686065,1520.295754975823,1520.295754975823,,,,CAN,001,1,21,M,2024-02-09_11h54.07.842,eye_track_exp,2023.1.3,120.10380916094952,
168,180,180,12,180,180,180,0,270,0,None,present,inhibit,freq_top,,,,,0,75,75,182,,,,,,,,,,,1.0301449200615547,,,,,,,,,,,,,,,,,,,,,,1339.604332162614,1339.8443352158274,1339.8443506101776,1340.8766700865644,1340.8766841980523,1521.6196302982626,1521.6196302982626,1343.9076108064492,None,1,,,1343.9080065695389,,1343.9080444139836,1343.9080530733054,1343.9085440889385,1523.1100266290186,1523.1100266290186,1523.1100266290186,1523.1100266290186,1524.6004335433918,1524.6004335433918,,,,CAN,001,1,21,M,2024-02-09_11h54.07.842,eye_track_exp,2023.1.3,120.10380916094952,
270,180,180,180,12,0,168,180,180,180,None,present,inhibit,freq_top,,,,,0,76,76,15,,,,,,,,,,,0.9230792736403888,,,,,,,,,,,,,,,,,,,,,,1343.909036387433,1344.340545158845,1344.340559591049,1345.2644014949192,1345.264415606407,1526.0158959495857,1526.0158959495857,1348.3040198176604,None,1,,,1348.3044040349878,,1348.3044428415787,1348.3044518216166,1348.3049040306578,1527.5062999775182,1527.5062999775182,1527.5062999775182,1527.5062999775182,1528.980046997669,1528.980046997669,,,,CAN,001,1,21,M,2024-02-09_11h54.07.842,eye_track_exp,2023.1.3,120.10380916094952,
12,0,270,180,0,180,168,180,0,0,None,present,inhibit,freq_top,,,,,0,77,77,217,,,,,,,,,,,0.8754604311503138,,,,,,,,,,,,,,,,,,,,,,1348.3054027434655,1348.306312292998,1348.306322555898,1349.1858970432259,1349.1859105132826,1529.9292475658485,1529.9292475658485,1352.217389714714,None,1,,,1352.217791571401,,1352.2178287744136,1352.2178374337363,1352.2183877817606,1531.4196422930272,1531.4196422930272,1531.4196422930272,1531.4196422930272,1532.910047283106,1532.910047283106,,,,CAN,001,1,21,M,2024-02-09_11h54.07.842,eye_track_exp,2023.1.3,120.10380916094952,
180,180,90,180,-168,0,-168,180,0,180,f,present,resp,freq_top,,,,,0,78,78,518,,,,,,,,,,,0.8114317651961561,,,,,,,,,,,,,,,,,,,,,,1352.218875269521,1352.219743767453,1352.2197537096372,1353.0329859234698,1353.0329997142426,1533.7759878282004,1533.7759878282004,1353.9338847931722,f,1,0.8663784559785199,None,1353.9344072389367,,1353.934457270575,1353.9344662506128,1353.9349418718948,,,,,,,,,,CAN,001,1,21,M,2024-02-09_11h54.07.842,eye_track_exp,2023.1.3,120.10380916094952,
0,0,0,0,168,0,0,0,0,168,f,abs,resp,freq_top,,,,,0,79,79,935,,,,,,,,,,,0.9459175729422064,,,,,,,,,,,,,,,,,,,,,,1353.9354049852682,1354.4404708490338,1354.4404849605216,1355.3896326106214,1355.3896460806782,1536.1323118754262,1536.1323118754262,1356.1893537163087,f,1,0.7508255759039457,None,1356.1899002157452,,1356.189938701621,1356.1899476816589,1356.1904374144287,,,,,,,,,,CAN,001,1,21,M,2024-02-09_11h54.07.842,eye_track_exp,2023.1.3,120.10380916094952,
0,270,180,180,180,12,0,0,0,12,j,present,resp,freq_top,,,,,0,80,80,585,,,,,,,,,,,1.0683048111117301,,,,,,,,,,,,,,,,,,,,,,1356.1909005278012,1357.0468911911285,1357.0469056233314,1358.120076253348,1358.1200900441208,1538.863334409869,1538.863334409869,1359.1372258803403,j,1,0.9796674044064275,None,1359.1377258760103,,1359.137764041171,1359.137773021209,1359.1382476803437,,,,,,,,,,CAN,001,1,21,M,2024-02-09_11h54.07.842,eye_track_exp,2023.1.3,120.10380916094952,
90,0,180,0,180,180,12,0,180,-168,None,present,inhibit,freq_top,,,,,0,81,81,303,,,,,,,,,,,1.0123736106426633,,,,,,,,,,,,,,,,,,,,,,1359.1387191323229,1360.2188079192383,1360.2188223514422,1361.234356533795,1361.2343700038518,1541.977359400672,1541.977359400672,1362.3093562050617,f,0,1.0328000424497077,None,1362.3099597918808,1543.0347880246063,1362.8154445102618,1362.8154576596035,1362.8167190341837,,,,,,,,,,CAN,001,1,21,M,2024-02-09_11h54.07.842,eye_track_exp,2023.1.3,120.10380916094952,
12,0,168,0,0,90,0,0,180,180,None,present,inhibit,freq_top,,,,,0,82,82,55,,,,,,,,,,,0.729161154021706,,,,,,,,,,,,,,,,,,,,,,1362.8172491771238,1362.8578835269864,1362.8578957141808,1363.5902084876107,1363.5902222783825,1544.333684730761,1544.333684730761,1366.6218448397012,None,1,,,1366.6222287363125,,1366.6229840216265,1366.6229936430955,1383.6818776745677,1545.824090362271,1545.824090362271,1545.824090362271,1545.824090362271,1547.314496314496,1547.314496314496,,,,CAN,001,1,21,M,2024-02-09_11h54.07.842,eye_track_exp,2023.1.3,120.10380916094952,
12,180,90,180,168,0,180,0,180,180,None,present,inhibit,freq_top,,,,,0,83,83,45,,,,,,,,,,,0.8306424464679734,,,,,,,,,,,,,,,,,,,,,,1383.6824370026297,1384.3487715148067,1384.3487859470106,1385.180537885015,1385.1805596936783,1565.9320195110558,1565.9320195110558,1388.2200369015409,None,1,,,1388.2205413872298,,1388.2205785902433,1388.2205872495651,1388.221042665763,1567.4224222561252,1567.4224222561252,1567.4224222561252,1567.4224222561252,1568.8961676726985,1568.8961676726985,,,,CAN,001,1,21,M,2024-02-09_11h54.07.842,eye_track_exp,2023.1.3,120.10380916094952,
168,0,180,0,180,180,12,180,180,180,None,abs,inhibit,freq_top,,,,,0,84,84,402,,,,,,,,,,,1.0881428206918076,,,,,,,,,,,,,,,,,,,,,,1388.221513797026,1389.1108486231833,1389.1108630553872,1390.2015187809466,1390.2015325717193,1570.9527666052927,1570.9527666052927,1393.2410572454955,None,1,,,1393.2414488392815,,1393.241485400864,1393.2414937394706,1393.2420562746893,1572.4348493454354,1572.4348493454354,1572.4348493454354,1572.4348493454354,1573.9252376583008,1573.9252376583008,,,,CAN,001,1,21,M,2024-02-09_11h54.07.842,eye_track_exp,2023.1.3,120.10380916094952,
0,180,0,180,180,168,180,180,168,180,f,abs,resp,freq_top,,,,,0,85,85,826,,,,,,,,,,,0.7497579095898346,,,,,,,,,,,,,,,,,,,,,,1393.2425293302458,1394.048188165144,1394.0482022766319,1394.7971079147164,1394.7971220262043,1575.5405424648343,1575.5405424648343,1395.6817003188235,f,1,0.8441025103247739,None,1395.6822314239098,,1395.6822705512168,1395.6822798519706,1395.6827548318215,,,,,,,,,,CAN,001,1,21,M,2024-02-09_11h54.07.842,eye_track_exp,2023.1.3,120.10380916094952,
180,180,0,180,-168,180,0,180,-168,180,f,abs,resp,freq_top,,,,,0,86,86,882,,,,,,,,,,,1.0940130354040973,,,,,,,,,,,,,,,,,,,,,,1395.6832657318237,1396.1386110511548,1396.1386251626427,1397.2371916599823,1397.2372054507541,1577.980135194468,1577.980135194468,1397.9292915038895,f,1,0.6448912783498599,None,1397.9298033660389,,1397.9298418519147,1397.9298508319525,1397.9303229253628,,,,,,,,,,CAN,001,1,21,M,2024-02-09_11h54.07.842,eye_track_exp,2023.1.3,120.10380916094952,
0,270,180,180,-12,180,180,180,-12,0,j,present,resp,freq_top,,,,,0,87,87,702,,,,,,,,,,,1.0496024576376584,,,,,,,,,,,,,,,,,,,,,,1397.930828373199,1399.1358195422936,1399.1358333330663,1400.1849310477428,1400.1849451592307,1580.9276398183856,1580.9276398183856,1401.134404865641,j,1,0.9130608612294964,None,1401.1349135206328,,1401.1349523272247,1401.1349616279776,1401.1355411611248,,,,,,,,,,CAN,001,1,21,M,2024-02-09_11h54.07.842,eye_track_exp,2023.1.3,120.10380916094952,
12,0,168,0,0,0,0,0,180,180,None,abs,inhibit,freq_top,,,,,0,88,88,390,,,,,,,,,,,0.9854868312188421,,,,,,,,,,,,,,,,,,,,,,1401.1360219138578,1401.9839562005072,1401.9839706327111,1402.9741070234477,1402.9741208142195,1583.716921630249,1583.716921630249,1406.0049643572684,None,1,,,1406.0053318973823,,1406.0053684589648,1406.0053771182866,1406.0058229130154,1585.20731250884,1585.20731250884,1585.20731250884,1585.20731250884,1586.6977251960934,1586.6977251960934,,,,CAN,001,1,21,M,2024-02-09_11h54.07.842,eye_track_exp,2023.1.3,120.10380916094952,
180,-168,180,270,0,180,180,180,12,0,None,present,inhibit,freq_top,,,,,0,89,89,214,,,,,,,,,,,0.7837620697285252,,,,,,,,,,,,,,,,,,,,,,1406.006311042207,1406.6629519244061,1406.662966035894,1407.4535021665943,1407.453515957366,1588.2047811003558,1588.2047811003558,1410.492921004212,None,1,,,1410.493313560145,,1410.4933639124993,1410.4933812311438,1410.4939418420681,1589.6951909011696,1589.6951909011696,1589.6951909011696,1589.6951909011696,1591.1689379213203,1591.1689379213203,,,,CAN,001,1,21,M,2024-02-09_11h54.07.842,eye_track_exp,2023.1.3,120.10380916094952,
0,270,180,180,180,-168,0,-168,0,0,f,present,resp,freq_top,,,,,0,90,90,683,,,,,,,,,,,0.7728205895925019,,,,,,,,,,,,,,,,,,,,,,1410.4944488934825,1411.7421776655556,1411.7422017192284,1412.515812403164,1412.515826193936,1593.2588322679694,1593.2588322679694,1413.5160481291532,f,1,0.9655090921141891,None,1413.5165603120176,,1413.5165991186095,1413.5166080986464,1413.5170907756728,,,,,,,,,,CAN,001,1,21,M,2024-02-09_11h54.07.842,eye_track_exp,2023.1.3,120.10380916094952,
0,270,0,0,0,12,0,-12,0,0,j,present,resp,freq_top,,,,,0,91,91,689,,,,,,,,,,,0.9220980618316905,,,,,,,,,,,,,,,,,,,,,,1413.5175750562776,1413.7489011480657,1413.7489149388375,1414.672268072085,1414.672282504289,1595.4236611806118,1595.4236611806118,1415.7311055997907,j,1,1.0083919792741654,None,1415.7316306112807,,1415.7316703800188,1415.7316796807727,1415.7320789717342,,,,,,,,,,CAN,001,1,21,M,2024-02-09_11h54.07.842,eye_track_exp,2023.1.3,120.10380916094952,
12,180,180,90,0,180,0,12,0,0,j,present,resp,freq_top,,,,,0,92,92,649,,,,,,,,,,,0.7551246765530164,,,,,,,,,,,,,,,,,,,,,,1415.73256389377,1415.9636972354629,1415.9637110262356,1416.7204013948567,1416.7204164684908,1597.4635883525061,1597.4635883525061,1417.7289766894255,j,1,0.9676594904267404,None,1417.7295757862266,,1417.729626780012,1417.729635760049,1417.7301193992225,,,,,,,,,,CAN,001,1,21,M,2024-02-09_11h54.07.842,eye_track_exp,2023.1.3,120.10380916094952,
270,0,-12,0,180,180,180,180,-12,0,j,present,resp,freq_top,,,,,0,93,93,703,,,,,,,,,,,0.809493801576135,,,,,,,,,,,,,,,,,,,,,,1417.7305930962111,1418.4692351926396,1418.4692496248426,1419.2850568644853,1419.2850712966883,1600.036409562842,1600.036409562842,1420.4266371009617,j,1,1.0837120454561955,None,1420.4271810346736,,1420.4272188791183,1420.4272278591552,1420.4277403627357,,,,,,,,,,CAN,001,1,21,M,2024-02-09_11h54.07.842,eye_track_exp,2023.1.3,120.10380916094952,
180,12,180,270,180,180,0,0,0,12,j,present,resp,freq_top,,,,,0,94,94,583,,,,,,,,,,,0.7023719219370372,,,,,,,,,,,,,,,,,,,,,,1420.4282262469178,1420.7592673187246,1420.7592830337899,1421.466578705059,1421.4665921751157,1602.21788489965,1602.21788489965,1422.7255485600344,j,1,1.206541642506636,None,1422.726036689227,,1422.7260745336716,1422.7260831929934,1422.7266717061784,,,,,,,,,,CAN,001,1,21,M,2024-02-09_11h54.07.842,eye_track_exp,2023.1.3,120.10380916094952,
90,180,168,180,180,12,0,180,0,180,None,present,inhibit,freq_top,,,,,0,95,95,130,,,,,,,,,,,0.9431136886466415,,,,,,,,,,,,,,,,,,,,,,1422.727139630285,1423.1323032161044,1423.1323173275923,1424.0806782622467,1424.0806920530194,1604.8240089005003,1604.8240089005003,1427.1124573327943,None,1,,,1427.1128466815717,,1427.1128954303476,1427.1129127489912,1427.1135423137775,1606.3144414721237,1606.3144414721237,1606.3144414721237,1606.3144414721237,1607.796492782134,1607.796492782134,,,,CAN,001,1,21,M,2024-02-09_11h54.07.842,eye_track_exp,2023.1.3,120.10380916094952,
270,180,12,180,0,180,168,180,0,180,None,present,inhibit,freq_top,,,,,0,96,96,111,,,,,,,,,,,1.0049865109434613,,,,,,,,,,,,,,,,,,,,,,1427.1140230665096,1427.114760391748,1427.114770333932,1428.1193719618204,1428.1193857525932,1608.8622475045922,1608.8622475045922,1431.150185036884,None,1,,,1431.1505894592956,,1431.1506273037403,1431.150635642347,1431.1513065794488,1610.3526502496616,1610.3526502496616,1610.3526502496616,1610.3526502496616,1611.8430497875743,1611.8430497875743,,,,CAN,001,1,21,M,2024-02-09_11h54.07.842,eye_track_exp,2023.1.3,120.10380916094952,
168,180,0,180,-168,0,180,0,180,180,f,abs,resp,freq_top,,,,,0,97,97,797,,,,,,,,,,,0.9099335720082572,,,,,,,,,,,,,,,,,,,,,,1431.1517956707876,1431.3672671853064,1431.3672809760783,1432.282524493855,1432.2825389260588,1613.025391056588,1613.025391056588,1433.5653818905348,f,1,1.2452937123243828,None,1433.5658950355455,,1433.565947312195,1433.5659578958102,1433.5666657152096,,,,,,,,,,CAN,001,1,21,M,2024-02-09_11h54.07.842,eye_track_exp,2023.1.3,120.10380916094952,
12,180,90,0,168,180,0,180,0,180,None,present,inhibit,freq_top,,,,,0,98,98,123,,,,,,,,,,,0.7361920205483348,,,,,,,,,,,,,,,,,,,,,,1433.5671554479804,1436.0382604127544,1436.0382745242414,1436.7786023020317,1436.7786160928054,1617.5215660416034,1617.5215660416034,1439.8097983115595,None,1,,,1439.810183170318,,1439.8102200526164,1439.810228711939,1439.8107649484746,1619.011970069534,1619.011970069534,1619.011970069534,1619.011970069534,1620.5023644759967,1620.5023644759967,,,,CAN,001,1,21,M,2024-02-09_11h54.07.842,eye_track_exp,2023.1.3,120.10380916094952,
180,-168,180,-168,0,180,0,180,0,180,f,abs,resp,freq_top,,,,,0,99,99,860,,,,,,,,,,,0.9352131135864965,,,,,,,,,,,,,,,,,,,,,,1439.811253398383,1439.893232803949,1439.8932449911435,1440.8333968884808,1440.8334106792527,1621.5847880727142,1621.5847880727142,1441.9255949355147,f,1,1.0381672185512798,None,1441.9261225127293,,1441.926160357175,1441.9261693372127,1441.926797939851,,,,,,,,,,CAN,001,1,21,M,2024-02-09_11h54.07.842,eye_track_exp,2023.1.3,120.10380916094952,
-168,0,0,180,-168,180,180,0,180,0,f,abs,resp,freq_top,,,,,0,100,100,939,,,,,,,,,,,1.0204231729380846,,,,,,,,,,,,,,,,,,,,,,1441.927273561133,1442.5575144153654,1442.5575285268542,1443.5812932344716,1443.5813067045283,1624.3241293292194,1624.3241293292194,1444.4814082751682,f,1,0.8580664689425248,None,1444.4820269356233,,1444.4820660629293,1444.4820750429672,1444.4825474570944,,,,,,,,,,CAN,001,1,21,M,2024-02-09_11h54.07.842,eye_track_exp,2023.1.3,120.10380916094952,
270,180,0,0,0,12,180,180,168,180,None,present,inhibit,freq_top,,,,,0,101,101,67,,,,,,,,,,,1.0460937079418495,,,,,,,,,,,,,,,,,,,,,,1444.483074713592,1445.6964856301756,1445.6964994209475,1446.7450499947563,1446.7450637855281,1627.4881134768875,1627.4881134768875,1449.7766898747186,None,1,,,1449.7770978250019,,1449.7771369523098,1449.7771452909155,1449.7775898027821,1628.9868317368637,1628.9868317368637,1628.9868317368637,1628.9868317368637,1630.4605890199164,1630.4605890199164,,,,CAN,001,1,21,M,2024-02-09_11h54.07.842,eye_track_exp,2023.1.3,120.10380916094952,
180,0,168,180,0,180,168,180,180,180,f,abs,resp,freq_top,,,,,0,102,102,760,,,,,,,,,,,0.8610411543343415,,,,,,,,,,,,,,,,,,,,,,1449.7780910813153,1449.9588643716042,1449.958877841661,1450.8249011313883,1450.8249149221601,1631.5679800078706,1631.5679800078706,1451.6754720212493,f,1,0.8138968706689411,None,1451.6759983156016,,1451.6760374429077,1451.6760467436625,1451.6766804777499,,,,,,,,,,CAN,001,1,21,M,2024-02-09_11h54.07.842,eye_track_exp,2023.1.3,120.10380916094952,
180,168,180,0,180,0,180,0,0,168,f,abs,resp,freq_top,,,,,0,103,103,921,,,,,,,,,,,0.9682841580182553,,,,,,,,,,,,,,,,,,,,,,1451.677181756283,1451.7158093884364,1451.7158212549157,1452.689574208306,1452.6895886405082,1633.4330636007962,1633.4330636007962,1453.4909611109842,f,1,0.7569752981480633,None,1453.4914809910233,,1453.491519797616,1453.491528777654,1453.4919973431925,,,,,,,,,,CAN,001,1,21,M,2024-02-09_11h54.07.842,eye_track_exp,2023.1.3,120.10380916094952,
180,180,168,0,0,0,0,168,0,180,f,abs,resp,freq_top,,,,,0,104,104,873,,,,,,,,,,,0.8725031006269944,,,,,,,,,,,,,,,,,,,,,,1453.4924768130613,1454.3554943558856,1454.3555094295198,1455.2292911511022,1455.229305262591,1635.972574002726,1635.972574002726,1455.8964386774069,f,1,0.6174152494377267,None,1455.8969527845647,1636.622015460418,1456.4026825296887,1456.402694075453,1456.4040410811058,,,,,,,,,,CAN,001,1,21,M,2024-02-09_11h54.07.842,eye_track_exp,2023.1.3,120.10380916094952,
12,0,0,0,0,-168,0,0,0,0,None,abs,inhibit,freq_top,,,,,0,105,105,355,,,,,,,,,,,0.977982769178724,,,,,,,,,,,,,,,,,,,,,,1456.4046026541791,1456.5205070385846,1456.5205201879262,1457.5025290031163,1457.5025431146032,1638.2456470069046,1638.2456470069046,1460.5341162857158,None,1,,,1460.5344976166025,,1460.5352532226307,1460.5352634855308,1460.5357172981503,1639.7360468655334,1639.7360468655334,1639.7360468655334,1639.7360468655334,1641.226441271996,1641.226441271996,,,,CAN,001,1,21,M,2024-02-09_11h54.07.842,eye_track_exp,2023.1.3,120.10380916094952,
12,0,180,0,90,0,0,0,-12,0,j,present,resp,freq_top,,,,,0,106,106,715,,,,,,,,,,,0.8830785419047513,,,,,,,,,,,,,,,,,,,,,,1460.5362137659495,1460.7419095472878,1460.7419230173446,1461.6239897858477,1461.6240035766214,1642.3754707704593,1642.3754707704593,1462.8991872103734,j,1,1.2219327856864766,None,1462.8996910546311,,1462.8997423691335,1462.8997513491695,1462.900205161789,,,,,,,,,,CAN,001,1,21,M,2024-02-09_11h54.07.842,eye_track_exp,2023.1.3,120.10380916094952,
270,0,180,0,180,12,0,-168,0,0,None,present,inhibit,freq_top,,,,,0,107,107,293,,,,,,,,,,,1.091272059584504,,,,,,,,,,,,,,,,,,,,,,1462.9006708408879,1463.3975879618747,1463.3976023940786,1464.4884797341392,1464.488493845628,1645.2313802927292,1645.2313802927292,1467.5192257796361,None,1,,,1467.5196189770004,,1467.519666122199,1467.5196747815198,1467.5202504660801,1646.7217785477806,1646.7217785477806,1646.7217785477806,1646.7217785477806,1648.2121793685565,1648.2121793685565,,,,CAN,001,1,21,M,2024-02-09_11h54.07.842,eye_track_exp,2023.1.3,120.10380916094952,
180,-168,180,180,0,180,0,180,0,168,f,abs,resp,freq_top,,,,,0,108,108,908,,,,,,,,,,,1.0836601788594171,,,,,,,,,,,,,,,,,,,,,,1467.520739557419,1468.4934630136295,1468.4934764836862,1469.5836091220508,1469.5836232335378,1650.3270526522065,1650.3270526522065,1471.1917815336428,j,0,1.558397158830303,None,1471.192292754361,1651.9173916710788,1471.6980359695417,1471.6980558539099,1471.6986408392231,1651.817456359422,1651.817456359422,1651.817456359422,1651.817456359422,,,,,,CAN,001,1,21,M,2024-02-09_11h54.07.842,eye_track_exp,2023.1.3,120.10380916094952,
90,180,12,0,180,180,180,-168,180,180,None,present,inhibit,freq_top,,,,,0,109,109,61,,,,,,,,,,,0.8317806644483452,,,,,,,,,,,,,,,,,,,,,,1471.6991706614472,1471.6999663569304,1471.6999855998683,1472.5318427325992,1472.531856844088,1653.2745155830908,1653.2745155830908,1475.5625233521068,None,1,,,1475.5628985893954,,1475.5636352732026,1475.5636452153876,1475.5643911999477,1654.7649799055616,1654.7649799055616,1654.7649799055616,1654.7649799055616,1656.2553499376372,1656.2553499376372,,,,CAN,001,1,21,M,2024-02-09_11h54.07.842,eye_track_exp,2023.1.3,120.10380916094952,
0,0,0,0,0,168,0,0,0,168,f,abs,resp,freq_top,,,,,0,110,110,928,,,,,,,,,,,0.7995795564933091,,,,,,,,,,,,,,,,,,,,,,1475.564878687709,1475.5656227479749,1475.5656326901599,1476.361684167584,1476.3616976376406,1657.1129566870331,1657.1129566870331,1477.504082228922,f,1,1.0922575134727595,None,1477.5045963360799,,1477.5046351426727,1477.5046444434256,1477.5052412952164,,,,,,,,,,CAN,001,1,21,M,2024-02-09_11h54.07.842,eye_track_exp,2023.1.3,120.10380916094952,
270,180,12,180,180,180,0,12,180,180,j,present,resp,freq_top,,,,,0,111,111,453,,,,,,,,,,,0.9280601154294963,,,,,,,,,,,,,,,,,,,,,,1477.5057281415457,1477.7855271939598,1477.7855490026222,1478.717818351156,1478.717832462643,1659.460973557958,1659.460973557958,1480.0517641444412,j,1,1.2879832079570406,None,1480.0522817794708,,1480.0523209067787,1480.0523302075317,1480.0529026849354,,,,,,,,,,CAN,001,1,21,M,2024-02-09_11h54.07.842,eye_track_exp,2023.1.3,120.10380916094952,
0,0,0,0,168,0,0,0,0,168,f,abs,resp,freq_top,,,,,0,112,112,933,,,,,,,,,,,0.9854705763311045,,,,,,,,,,,,,,,,,,,,,,1480.0533876069703,1480.8334302429075,1480.8334449958265,1481.8237218600088,1481.8237439893883,1662.5666637909162,1662.5666637909162,1482.7659096601792,f,1,0.9020542214557281,None,1482.7664247294842,,1482.7664638567921,1482.7664741196922,1482.7667489729874,,,,,,,,,,CAN,001,1,21,M,2024-02-09_11h54.07.842,eye_track_exp,2023.1.3,120.10380916094952,
168,0,168,180,0,0,180,180,0,180,f,abs,resp,freq_top,,,,,0,113,113,845,,,,,,,,,,,1.0428013867783656,,,,,,,,,,,,,,,,,,,,,,1482.7672268392807,1482.8149374588475,1482.8149490046117,1483.863245892354,1483.8632596831258,1664.6149289278128,1664.6149289278128,1485.1387483174449,f,1,1.2219635743867912,None,1485.1393313784638,,1485.1393692229094,1485.1393782029472,1485.1396549805368,,,,,,,,,,CAN,001,1,21,M,2024-02-09_11h54.07.842,eye_track_exp,2023.1.3,120.10380916094952,
0,12,0,12,180,90,180,180,0,0,j,present,resp,freq_top,,,,,0,114,114,631,,,,,,,,,,,0.7383478603455332,,,,,,,,,,,,,,,,,,,,,,1485.1401190560564,1485.7872462297464,1485.7872616240975,1486.5279553384235,1486.5279691291953,1667.2710095198017,1667.2710095198017,1487.7617291319157,j,1,1.1901796931060744,None,1487.7622823663814,,1487.7623214936875,1487.7623307944405,1487.7630312373813,,,,,,,,,,CAN,001,1,21,M,2024-02-09_11h54.07.842,eye_track_exp,2023.1.3,120.10380916094952,
180,180,0,180,180,180,180,-168,0,168,f,abs,resp,freq_top,,,,,0,115,115,937,,,,,,,,,,,1.0703471462064682,,,,,,,,,,,,,,,,,,,,,,1487.7635216115823,1488.3187900553776,1488.3188041668664,1489.3921932042276,1489.3922073157164,1670.1352419334398,1670.1352419334398,1491.5669925244392,f,1,2.133540029627511,None,1491.5675152909198,,1491.5675537767956,1491.5675627568335,1491.5678536459118,1671.6256488478139,1671.6256488478139,1671.6256488478139,1671.6256488478139,,,,,,CAN,001,1,21,M,2024-02-09_11h54.07.842,eye_track_exp,2023.1.3,120.10380916094952,
0,-168,0,90,0,180,180,180,180,12,None,present,inhibit,freq_top,,,,,0,116,116,149,,,,,,,,,,,1.0809662219235456,,,,,,,,,,,,,,,,,,,,,,1491.5683360022222,1491.9818327423081,1491.9818551924027,1493.0639846928834,1493.0639988043722,1673.8154473967024,1673.8154473967024,1496.1036475950978,None,1,,,1496.1040372645903,,1496.1040751090359,1496.1040837683568,1496.104722633897,1675.3058498210576,1675.3058498210576,1675.3058498210576,1675.3058498210576,1676.7796055005292,1676.7796055005292,,,,CAN,001,1,21,M,2024-02-09_11h54.07.842,eye_track_exp,2023.1.3,120.10380916094952,
0,180,180,180,180,180,168,0,0,12,None,abs,inhibit,freq_top,,,,,0,117,117,357,,,,,,,,,,,1.0596373796491918,,,,,,,,,,,,,,,,,,,,,,1496.1052043487753,1496.1059660484016,1496.1059759905866,1497.1690700561603,1497.1690838469322,1677.911979274073,1677.911979274073,1498.4693968333186,f,0,1.2526948669647027,None,1498.4699125440538,1679.1942164067204,1498.9748767409646,1498.974887966012,1498.9758324735476,,,,,,,,,,CAN,001,1,21,M,2024-02-09_11h54.07.842,eye_track_exp,2023.1.3,120.10380916094952,
168,0,-168,0,0,0,180,180,180,180,f,abs,resp,freq_top,,,,,0,118,118,750,,,,,,,,,,,1.082842161809228,,,,,,,,,,,,,,,,,,,,,,1498.9763622957717,1499.7249359931784,1499.7249507460974,1500.8074695953555,1500.8074840275594,1681.5505555275813,1681.5505555275813,1502.6152262312035,f,1,1.7734562330469998,None,1502.6157512426935,,1502.6165010758405,1502.6165113387406,1502.6170786846933,1683.040979760599,1683.040979760599,1683.040979760599,1683.040979760599,,,,,,CAN,001,1,21,M,2024-02-09_11h54.07.842,eye_track_exp,2023.1.3,120.10380916094952,
270,180,180,-168,180,180,12,180,180,180,None,present,inhibit,freq_top,,,,,0,119,119,16,,,,,,,,,,,0.7493516984698959,,,,,,,,,,,,,,,,,,,,,,1502.6175847739605,1503.247164953992,1503.247179065479,1503.9966398623228,1503.9966542945267,1684.7394753156404,1684.7394753156404,1505.0639513384585,f,0,1.032766367309705,None,1505.0644911028676,1685.7886429463251,1505.5692789061804,1505.5692904519428,1505.5699867255798,,,,,,,,,,CAN,001,1,21,M,2024-02-09_11h54.07.842,eye_track_exp,2023.1.3,120.10380916094952,
180,0,270,180,-12,180,0,180,-12,180,j,present,resp,freq_top,,,,,0,120,120,544,,,,,,,,,,,1.0482181333852698,,,,,,,,,,,,,,,,,,,,,,1505.5705479779363,1505.9537252243163,1505.9537396565202,1507.002525956318,1507.002540067805,1687.7452905314804,1687.7452905314804,1508.8101180650456,j,1,1.7704966691935624,None,1508.8106167778542,,1508.81135121665,1508.811361158835,1508.8119358812482,1689.235689427962,1689.235689427962,1689.235689427962,1689.235689427962,,,,,,CAN,001,1,21,M,2024-02-09_11h54.07.842,eye_track_exp,2023.1.3,120.10380916094952,
0,0,12,0,270,0,0,0,12,0,j,present,resp,freq_top,,,,,0,121,121,624,,,,,,,,,,,1.0364173302871413,,,,,,,,,,,,,,,,,,,,,,1508.812415030402,1509.308847229354,1509.3088610201257,1510.3489780556747,1510.3489918464466,1691.092458788844,1691.092458788844,1511.9735698247632,j,1,1.5749467268751687,None,1511.9740669339944,,1511.9741047784382,1511.974113437761,1511.974584569024,1692.5828509502971,1692.5828509502971,1692.5828509502971,1692.5828509502971,,,,,,CAN,001,1,21,M,2024-02-09_11h54.07.842,eye_track_exp,2023.1.3,120.10380916094952,
90,180,168,180,180,180,168,180,180,180,f,present,resp,freq_top,,,,,0,122,122,428,,,,,,,,,,,0.7977944447645423,,,,,,,,,,,,,,,,,,,,,,1511.9750537759928,1513.1052643225985,1513.105287414125,1513.9051060173633,1513.9051204495654,1694.6560982313495,1694.6560982313495,1514.6806448436791,f,1,0.7315332477746779,None,1514.681179155922,,1514.6812182832282,1514.6812275839811,1514.6814912122309,,,,,,,,,,CAN,001,1,21,M,2024-02-09_11h54.07.842,eye_track_exp,2023.1.3,120.10380916094952,
90,180,12,0,180,180,180,-168,180,180,None,present,inhibit,freq_top,,,,,0,123,123,59,,,,,,,,,,,0.9954514796463185,,,,,,,,,,,,,,,,,,,,,,1514.6819751721205,1515.3954256970837,1515.3954398085707,1516.3944010106397,1516.3944144806946,1697.1456424206717,1697.1456424206717,1519.433960000987,None,1,,,1519.4343506326268,,1519.4344102857349,1519.4344276043785,1519.434969934512,1698.6360563907874,1698.6360563907874,1698.6360563907874,1698.6360563907874,1700.1098011659305,1700.1098011659305,,,,CAN,001,1,21,M,2024-02-09_11h54.07.842,eye_track_exp,2023.1.3,120.10380916094952,
0,0,180,0,180,-168,0,168,0,0,f,abs,resp,freq_top,,,,,0,124,124,988,,,,,,,,,,,0.7832698950595507,,,,,,,,,,,,,,,,,,,,,,1519.4354769859265,1520.6327334561238,1520.6327478883277,1521.414879345176,1521.4148931359478,1702.15806886855,1702.15806886855,1522.5825199717647,f,1,1.1333450345236997,None,1522.5830343996377,,1522.5830728855135,1522.5830815448362,1538.7004762947845,,,,,,,,,,CAN,001,1,21,M,2024-02-09_11h54.07.842,eye_track_exp,2023.1.3,120.10380916094952,
12,0,90,180,180,180,0,0,168,0,None,present,inhibit,freq_top,,,,,0,125,125,201,,,,,,,,,,,0.9787542737932378,,,,,,,,,,,,,,,,,,,,,,1538.7010218320747,1538.933618599197,1538.9336323899688,1539.9158942497934,1539.9159083612803,1720.6590157814535,1720.6590157814535,1542.9474462536718,None,1,,,1542.947824698119,,1542.9478635047099,1542.9478721640326,1542.9483311081012,1722.149415319367,1722.149415319367,1722.149415319367,1722.149415319367,1723.6398164608581,1723.6398164608581,,,,CAN,001,1,21,M,2024-02-09_11h54.07.842,eye_track_exp,2023.1.3,120.10380916094952,
180,180,180,168,180,180,168,180,0,180,f,abs,resp,freq_top,,,,,0,126,126,853,,,,,,,,,,,1.0320224388373285,,,,,,,,,,,,,,,,,,,,,,1542.948796145768,1544.9210276242002,1544.9210420564023,1545.9527220258196,1545.9527358165915,1726.6955581205675,1726.6955581205675,1547.285314719854,f,1,1.2833071740433297,None,1547.285843900646,,1547.2858814243746,1547.2858904044124,1547.2867537708944,,,,,,,,,,CAN,001,1,21,M,2024-02-09_11h54.07.842,eye_track_exp,2023.1.3,120.10380916094952,
270,0,180,-12,0,180,0,-12,0,0,j,present,resp,freq_top,,,,,0,127,127,688,,,,,,,,,,,1.083770629001981,,,,,,,,,,,,,,,,,,,,,,1547.2872444658105,1548.1512273626877,1548.1512411534595,1549.2415238867407,1549.2415373567956,1729.9844391982497,1729.9844391982497,1550.5158294010917,j,1,1.2254519983189311,None,1550.5163601854629,,1550.516399954201,1550.5164089342388,1550.5172225897977,,,,,,,,,,CAN,001,1,21,M,2024-02-09_11h54.07.842,eye_track_exp,2023.1.3,120.10380916094952,
90,180,12,0,180,180,180,-168,180,180,None,present,inhibit,freq_top,,,,,0,128,128,62,,,,,,,,,,,0.786449029264509,,,,,,,,,,,,,,,,,,,,,,1550.5182257882943,1552.6888651060426,1552.6888788968145,1553.4795526145217,1553.4795670467256,1734.222503525467,1734.222503525467,1556.5107582455194,None,1,,,1556.511138293542,,1556.5111767794178,1556.5111857594557,1556.5117931948635,1735.712904987673,1735.712904987673,1735.712904987673,1735.712904987673,1737.2033090156056,1737.2033090156056,,,,CAN,001,1,21,M,2024-02-09_11h54.07.842,eye_track_exp,2023.1.3,120.10380916094952,
90,180,168,180,180,12,0,180,0,180,None,present,inhibit,freq_top,,,,,0,129,129,128,,,,,,,,,,,0.8939158462236743,,,,,,,,,,,,,,,,,,,,,,1556.5122822862022,1556.5131033182197,1556.5131139018367,1557.4091584197313,1557.4091725312182,1738.1525076594917,1738.1525076594917,1560.4405446136288,None,1,,,1560.4409362074157,,1560.4409740518595,1560.4409827111822,1560.4414608981888,1739.6428869923184,1739.6428869923184,1739.6428869923184,1739.6428869923184,1741.1332993588567,1741.1332993588567,,,,CAN,001,1,21,M,2024-02-09_11h54.07.842,eye_track_exp,2023.1.3,120.10380916094952,
270,180,180,-168,180,180,180,180,12,180,None,present,inhibit,freq_top,,,,,0,130,130,85,,,,,,,,,,,0.9316501847458265,,,,,,,,,,,,,,,,,,,,,,1560.4419531966842,1560.9490232124344,1560.9490379653535,1561.8807242528683,1561.880737722925,1742.6320269195876,1742.6320269195876,1564.9203323127085,None,1,,,1564.920727434367,,1564.9207655995278,1564.9207745795657,1564.9212290336154,1744.1224418518505,1744.1224418518505,1744.1224418518505,1744.1224418518505,1745.5961843819823,1745.5961843819823,,,,CAN,001,1,21,M,2024-02-09_11h54.07.842,eye_track_exp,2023.1.3,120.10380916094952,
0,270,180,180,-168,180,180,180,0,-168,f,present,resp,freq_top,,,,,0,131,131,721,,,,,,,,,,,0.7535101966522743,,,,,,,,,,,,,,,,,,,,,,1564.9217261428466,1565.2617748338935,1565.2617883039502,1566.0184703339646,1566.0184841247365,1746.761863832482,1746.761863832482,1567.8263700089838,f,1,1.7591738038072435,None,1567.8268873232983,,1567.826925167742,1567.8269338270647,1567.8277789127542,1748.252259842522,1748.252259842522,1748.252259842522,1748.252259842522,,,,,,CAN,001,1,21,M,2024-02-09_11h54.07.842,eye_track_exp,2023.1.3,120.10380916094952,
180,12,180,12,180,90,180,180,0,180,j,present,resp,freq_top,,,,,0,132,132,502,,,,,,,,,,,0.8499672389747643,,,,,,,,,,,,,,,,,,,,,,1567.828244271136,1568.1093435047233,1568.109357295495,1568.9577216618063,1568.95773545258,1749.7010317742606,1749.7010317742606,1570.024915756022,j,1,1.0295184801025243,None,1570.025469631918,,1570.0255190221242,1570.0255363407696,1570.0260562208086,,,,,,,,,,CAN,001,1,21,M,2024-02-09_11h54.07.842,eye_track_exp,2023.1.3,120.10380916094952,
90,180,180,-12,0,12,180,0,180,180,j,present,resp,freq_top,,,,,0,133,133,459,,,,,,,,,,,1.0447148579790695,,,,,,,,,,,,,,,,,,,,,,1570.0265594236362,1570.3653935645843,1570.3654073553562,1571.4143062263402,1571.4143200171138,1752.1572860016931,1752.1572860016931,1572.6471194765154,j,1,1.1961610396438118,None,1572.647617227175,,1572.6476550716206,1572.6476640516585,1572.6481432008122,,,,,,,,,,CAN,001,1,21,M,2024-02-09_11h54.07.842,eye_track_exp,2023.1.3,120.10380916094952,
180,180,0,0,270,168,180,180,168,180,f,present,resp,freq_top,,,,,0,134,134,485,,,,,,,,,,,0.7411829802867961,,,,,,,,,,,,,,,,,,,,,,1572.6486152942225,1573.2713013710263,1573.271315482515,1574.0116041329975,1574.0116179237693,1754.755081338295,1754.755081338295,1575.5128534807418,f,1,1.4616491191254681,None,1575.5133515521184,,1575.5133929244357,1575.5134019044735,1575.5138624521214,1756.2371538155385,1756.2371538155385,1756.2371538155385,1756.2371538155385,,,,,,CAN,001,1,21,M,2024-02-09_11h54.07.842,eye_track_exp,2023.1.3,120.10380916094952,
270,0,-168,0,0,180,180,0,-168,0,f,present,resp,freq_top,,,,,0,135,135,700,,,,,,,,,,,0.9566129109559924,,,,,,,,,,,,,,,,,,,,,,1575.5143473741564,1575.952203749358,1575.9522175401298,1576.9094629392248,1576.9094770507118,1757.6609343023647,1757.6609343023647,1577.7847443271012,f,1,0.8280141313598506,None,1577.7852792807762,,1577.78531712522,1577.7853261052578,1577.7858453438666,,,,,,,,,,CAN,001,1,21,M,2024-02-09_11h54.07.842,eye_track_exp,2023.1.3,120.10380916094952,
0,0,180,180,270,180,12,0,-12,0,j,present,resp,freq_top,,,,,0,136,136,711,,,,,,,,,,,0.9914935244015142,,,,,,,,,,,,,,,,,,,,,,1577.786317437277,1578.2421601865544,1578.2421739773263,1579.2327606528097,1579.2327744435815,1759.9756503070694,1759.9756503070694,1580.315987000754,j,1,1.0415260733652758,None,1580.316526123731,,1580.3165646096068,1580.3165739103597,1580.317062039553,,,,,,,,,,CAN,001,1,21,M,2024-02-09_11h54.07.842,eye_track_exp,2023.1.3,120.10380916094952,
0,12,0,0,12,0,0,90,0,0,j,present,resp,freq_top,,,,,0,137,137,627,,,,,,,,,,,0.9793787552858468,,,,,,,,,,,,,,,,,,,,,,1580.317551772322,1580.8229745925864,1580.8229893455054,1581.8050485130507,1581.8050632659697,1762.5484541987607,1762.5484541987607,1582.6892034610346,j,1,0.8359406182053135,None,1582.6897021738432,,1582.689740018287,1582.6897489983248,1582.6902435418297,,,,,,,,,,CAN,001,1,21,M,2024-02-09_11h54.07.842,eye_track_exp,2023.1.3,120.10380916094952,
0,180,168,180,90,168,180,180,180,180,f,present,resp,freq_top,,,,,0,138,138,421,,,,,,,,,,,0.8206716430772203,,,,,,,,,,,,,,,,,,,,,,1582.690730708874,1585.594437123219,1585.5944602147438,1586.4181730947157,1586.4181872062045,1767.1612102781655,1767.1612102781655,1587.6850389685524,f,1,1.2327886891152957,None,1587.685576808667,,1587.6856175395524,1587.6856268403071,1587.6860957265608,,,,,,,,,,CAN,001,1,21,M,2024-02-09_11h54.07.842,eye_track_exp,2023.1.3,120.10380916094952,
180,168,0,180,0,180,168,0,180,180,f,abs,resp,freq_top,,,,,0,139,139,800,,,,,,,,,,,0.7300849163322278,,,,,,,,,,,,,,,,,,,,,,1587.6866095130035,1588.991305719931,1588.9913198314198,1589.72325736756,1589.723271479047,1770.4667348935727,1770.4667348935727,1590.741272606042,f,1,0.9819364675031466,None,1590.7417979382471,,1590.7418361034079,1590.7418450834457,1590.7423656049168,,,,,,,,,,CAN,001,1,21,M,2024-02-09_11h54.07.842,eye_track_exp,2023.1.3,120.10380916094952,
180,180,0,180,270,0,180,-12,0,-12,j,present,resp,freq_top,,,,,0,140,140,746,,,,,,,,,,,0.8725218530914691,,,,,,,,,,,,,,,,,,,,,,1590.7428296804364,1591.5557482343802,1591.5557623458672,1592.42981571359,1592.4298301457939,1773.1727377601292,1773.1727377601292,1593.404719715384,j,1,0.9316617264566958,None,1593.405205278851,,1593.405243123295,1593.4052517826176,1593.4057261210373,,,,,,,,,,CAN,001,1,21,M,2024-02-09_11h54.07.842,eye_track_exp,2023.1.3,120.10380916094952,
168,0,0,0,0,0,0,0,168,180,f,abs,resp,freq_top,,,,,0,141,141,840,,,,,,,,,,,0.9621332020254267,,,,,,,,,,,,,,,,,,,,,,1593.4062168159535,1594.5617481824238,1594.5617626146277,1595.5273857474613,1595.5274181397408,1776.2701487190461,1776.2701487190461,1596.6779059321807,f,1,1.1140212762611554,None,1596.678514971166,,1596.6785540984738,1596.6785633992267,1596.6790682056317,,,,,,,,,,CAN,001,1,21,M,2024-02-09_11h54.07.842,eye_track_exp,2023.1.3,120.10380916094952,
12,0,90,0,0,-168,0,0,0,0,None,present,inhibit,freq_top,,,,,0,142,142,278,,,,,,,,,,,1.0605548323671543,,,,,,,,,,,,,,,,,,,,,,1596.6795637112818,1597.1761947539262,1597.1762088654132,1598.2415902748753,1598.2416047070792,1778.9845033413767,1778.9845033413767,1601.2729290028592,None,1,,,1601.2733286145367,,1601.2733690247069,1601.2733863433505,1601.2740418861022,1780.4749214807962,1780.4749214807962,1780.4749214807962,1780.4749214807962,1781.96532166014,1781.96532166014,,,,CAN,001,1,21,M,2024-02-09_11h54.07.842,eye_track_exp,2023.1.3,120.10380916094952,
0,270,0,0,-12,180,180,180,0,-12,j,present,resp,freq_top,,,,,0,143,143,735,,,,,,,,,,,0.7792455090357959,,,,,,,,,,,,,,,,,,,,,,1601.2746865245235,1602.421347858758,1602.421362290962,1603.2035784167356,1603.2035934903697,1783.9469584451963,1783.9469584451963,1603.9705451556392,j,1,0.7173855190985705,None,1603.9710467548875,,1603.9710855614785,1603.9710945415163,1603.9716740746635,,,,,,,,,,CAN,001,1,21,M,2024-02-09_11h54.07.842,eye_track_exp,2023.1.3,120.10380916094952,
180,180,90,180,168,180,168,180,0,0,f,present,resp,freq_top,,,,,0,144,144,636,,,,,,,,,,,0.8385550324691701,,,,,,,,,,,,,,,,,,,,,,1603.9721461680738,1608.1419942803577,1608.1420087125616,1608.9822060553042,1608.9822208082232,1789.7253808257592,1789.7253808257592,1609.865923867882,f,1,0.8420095201099684,None,1609.8664219392585,,1609.8664601044193,1609.8664687637402,1609.8668443217457,,,,,,,,,,CAN,001,1,21,M,2024-02-09_11h54.07.842,eye_track_exp,2023.1.3,120.10380916094952,
180,180,168,180,0,0,180,0,0,168,f,abs,resp,freq_top,,,,,0,145,145,919,,,,,,,,,,,0.8220895772203571,,,,,,,,,,,,,,,,,,,,,,1609.867336299526,1610.3983041198817,1610.3983182313686,1611.2216696648238,1611.2216834555957,1791.9651603401762,1791.9651603401762,1612.3563782481679,f,1,1.0984284029482296,None,1612.3568897896012,,1612.3569285961921,1612.3569372555148,1612.357487282824,,,,,,,,,,CAN,001,1,21,M,2024-02-09_11h54.07.842,eye_track_exp,2023.1.3,120.10380916094952,
0,180,-12,180,180,270,180,12,180,180,j,present,resp,freq_top,,,,,0,146,146,450,,,,,,,,,,,0.9216588937618118,,,,,,,,,,,,,,,,,,,,,,1612.357963224821,1613.3376340230543,1613.3376481345413,1614.261307230502,1614.261321662706,1795.0042366535,1795.0042366535,1615.5615451694293,j,1,1.2586909664214545,None,1615.5620393922172,,1615.5620772366628,1615.5620858959855,1615.56263688544,,,,,,,,,,CAN,001,1,21,M,2024-02-09_11h54.07.842,eye_track_exp,2023.1.3,120.10380916094952,
270,180,180,180,168,180,12,180,0,180,None,present,inhibit,freq_top,,,,,0,147,147,115,,,,,,,,,,,0.7915674172392023,,,,,,,,,,,,,,,,,,,,,,1615.5631051302635,1615.9848067383637,1615.9848205291355,1616.7752062442041,1616.7752197142609,1797.518779022761,1797.518779022761,1619.8073336119278,None,1,,,1619.8077296957335,,1619.8077675401792,1619.8077765202152,1619.8082531036443,1799.0091753535162,1799.0091753535162,1799.0091753535162,1799.0091753535162,1800.499575853577,1800.499575853577,,,,CAN,001,1,21,M,2024-02-09_11h54.07.842,eye_track_exp,2023.1.3,120.10380916094952,
