ori10,ori11,ori12,ori13,ori14,ori16,ori17,ori18,ori19,ori20,corrAns,distractor,responses,dist_freq,practice_trials.thisRepN,practice_trials.thisTrialN,practice_trials.thisN,practice_trials.thisIndex,trials.thisRepN,trials.thisTrialN,trials.thisN,trials.thisIndex,intro_2.started,intro_2.stopped,key_resp.keys,key_resp.rt,key_resp.duration,start_et_record_2.started,start_et_record_2.stopped,fix_check_3.started,fix_check_3.stopped,fix_practice_2.started,fixdur,fix_practice_2.stopped,practice_search_2.started,int14_2.started,per15_2.started,practice_search_2.stopped,response_2.keys,response_2.corr,response_2.rt,response_2.duration,feedback_4.started,feedback_4.stopped,pause_pract_2.started,pause_pract_2.stopped,stop_et_record_2.started,stop_et_record_2.stopped,break_3.started,break_3.stopped,key_resp_2.keys,key_resp_2.rt,key_resp_2.duration,fix_check_2.started,fix_check_2.stopped,fixation_2.started,fixation_2.stopped,search_displays_2.started,int14.started,per15.started,int14.stopped,int14_3.started,per15.stopped,per15_3.started,search_displays_2.stopped,response.keys,response.corr,response.rt,response.duration,feedback_6.started,feedback_6.stopped,pause_4.started,pause_4.stopped,int14_3.stopped,per15_3.stopped,text_feedback_2.started,text_feedback_2.stopped,end_2.started,end_2.stopped,participant,session,group,age,gender,date,expName,psychopyVersion,frameRate,
,,,,,,,,,,,,,,,,,,,,,,1.0904230066444143e-05,214.41230593677597,space,214.39920499514307,None,,,,,,,,,,,,,,,,,,,,,,,,,,,,,,,,,,,,,,,,,,,,,,,,,,,,,CIW,001,2,28,F,2024-02-15_16h49.45.708,eye_track_exp,2023.1.3,120.098912273206,
180,0,180,0,12,0,12,180,180,180,j,abs,resp,freq_top,0,0,0,7,,,,,,,,,,324.2732478185126,324.7750482993249,324.90579803569915,325.16846875104227,325.1684835038242,0.7760703346167592,325.95004740132947,325.9500605505482,476.82085504557966,476.82085504557966,328.84858482336426,j,1,2.854701625094606,None,328.8493500437452,328.8493933399528,328.8494026406197,328.8499536249509,,,,,,,,,,,,,,,,,,,,,,,,,,,,,,,,,,CIW,001,2,28,F,2024-02-15_16h49.45.708,eye_track_exp,2023.1.3,120.098912273206,
180,180,90,180,12,180,12,0,0,180,j,present,resp,freq_top,0,1,1,39,,,,,,,,,,,,328.85042988323494,329.122343537127,329.12235604492025,0.8816870636600659,330.0046490505623,330.0046609169302,480.8757087749547,480.8757087749547,332.7364550219752,j,1,2.68807408537117,None,332.7370457746749,332.7370845809055,332.73709356085965,332.7375630841781,,,,,,,,,,,,,,,,,,,,,,,,,,,,,,,,,,CIW,001,2,28,F,2024-02-15_16h49.45.708,eye_track_exp,2023.1.3,120.098912273206,
0,180,0,0,180,0,180,168,0,168,f,abs,resp,freq_top,0,2,2,14,,,,,,,,,,,,332.7380502466922,333.02744851279124,333.02746198272257,0.8383408105828549,333.86790006337276,333.86791289187875,484.73906049153703,484.73906049153703,336.5168140020577,f,1,2.600531077804874,None,336.5174044340448,336.5174432402754,336.51745222022953,336.51797081258326,,,,,,,,,,,,,,,,,,,,,,,,,,,,,,,,,,CIW,001,2,28,F,2024-02-15_16h49.45.708,eye_track_exp,2023.1.3,120.098912273206,
0,180,180,180,12,0,180,12,0,0,j,abs,resp,freq_top,0,3,3,8,,,,,,,,,,,,336.5184781799942,336.92390707543416,336.92392022465276,0.9421385330986948,337.8728685437336,337.8728816929522,488.7440078048631,488.7440078048631,339.52247105247625,j,1,1.6028350774764135,None,339.52297457133545,339.5230130568533,339.52302203680756,339.52393702999564,,,,,,,,,,,,,,,,,,,,,,,,,,,,,,,,,,CIW,001,2,28,F,2024-02-15_16h49.45.708,eye_track_exp,2023.1.3,120.098912273206,
12,0,0,12,0,0,90,180,180,0,j,present,resp,freq_top,0,4,4,38,,,,,,,,,,,,339.5244318896132,339.53063318939746,339.5306437729149,1.0373558776084217,340.57066422155344,340.5706764086341,491.44166974550814,491.44166974550814,342.76993261185817,j,1,2.1529393732300264,None,342.7704460728095,342.7704845583273,342.77049353828147,342.77086909279365,,,,,,,,,,,,,,,,,,,,,,,,,,,,,,,,,,CIW,001,2,28,F,2024-02-15_16h49.45.708,eye_track_exp,2023.1.3,120.098912273206,
0,180,0,12,0,12,0,180,180,180,j,abs,resp,freq_top,0,5,5,0,,,,,,,,,,,,342.7713713288023,344.2847970017216,344.2848101509402,0.979726595470275,345.26661099095077,345.266623498744,496.1376142699169,496.1376142699169,346.5327787570204,j,1,1.217281065617783,None,346.53329061440843,346.5333297413516,346.53333872130577,346.53381273460127,,,,,,,,,,,,,,,,,,,,,,,,,,,,,,,,,,CIW,001,2,28,F,2024-02-15_16h49.45.708,eye_track_exp,2023.1.3,120.098912273206,
180,0,180,0,168,180,0,180,12,180,None,abs,inhibit,freq_top,0,6,6,30,,,,,,,,,,,,346.5342957278509,347.3485691084445,347.3485822576631,0.8528113253078148,348.20521728923404,348.2052294763147,499.0767792496351,499.0767792496351,351.21915481954136,None,1,,,351.2195768773877,351.21961568361826,351.219624984285,351.2201791757428,,,,,,,,,,,,,,,,,,,,,,,,,,,,,,,,,,CIW,001,2,28,F,2024-02-15_16h49.45.708,eye_track_exp,2023.1.3,120.098912273206,
12,0,0,12,0,0,180,0,180,180,j,abs,resp,freq_top,0,7,7,6,,,,,,,,,,,,351.220664413981,351.4951758403313,351.4951886688373,0.9164545495640224,352.41050738023944,352.41052085017077,503.281491095734,503.281491095734,353.91047178113536,j,1,1.4650389634875296,None,353.91099967415596,353.9110397632371,353.91104874319126,353.91151409724523,,,,,,,,,,,,,,,,,,,,,,,,,,,,,,,,,,CIW,001,2,28,F,2024-02-15_16h49.45.708,eye_track_exp,2023.1.3,120.098912273206,
180,12,180,12,0,180,0,180,180,180,j,abs,resp,freq_top,0,8,8,5,,,,,,,,,,,,353.9120105604261,358.9719556031065,358.9719690730378,1.078720290408232,360.05369499457356,360.0537071816542,510.924942977291,510.924942977291,361.0375570547802,j,1,0.9412032786889881,None,361.0380974555941,361.03813754467524,361.03814620391677,361.0386651169831,,,,,,,,,,,,,,,,,,,,,,,,,,,,,,,,,,CIW,001,2,28,F,2024-02-15_16h49.45.708,eye_track_exp,2023.1.3,120.098912273206,
0,270,0,0,12,0,0,12,0,0,j,present,resp,freq_top,0,9,9,40,,,,,,,,,,,,361.0391503552213,367.1730036279015,367.1730170978327,0.9545424150538402,368.1301852821116,368.13019778990497,519.0013495588278,519.0013495588278,369.8799367298086,j,1,1.712456585236339,None,369.88047552705916,369.88051433328974,369.88052299253127,369.8809094512735,,,,,,,,,,,,,,,,,,,,,,,,,,,,,,,,,,CIW,001,2,28,F,2024-02-15_16h49.45.708,eye_track_exp,2023.1.3,120.098912273206,
180,168,0,180,0,180,180,180,168,180,f,abs,resp,freq_top,0,10,10,12,,,,,,,,,,,,369.88142002581094,370.2208917992492,370.2209046277552,0.7965997047991096,371.0192267233173,371.01923923111065,521.8905382071393,521.8905382071393,372.6189160810453,f,1,1.5585376049487536,None,372.61945455758325,372.6194940052392,372.6195026644807,372.6199827713165,,,,,,,,,,,,,,,,,,,,,,,,,,,,,,,,,,CIW,001,2,28,F,2024-02-15_16h49.45.708,eye_track_exp,2023.1.3,120.098912273206,
90,0,0,12,0,0,0,12,0,0,j,present,resp,freq_top,0,11,11,34,,,,,,,,,,,,372.6204625574396,374.6832625841229,374.6832760540542,0.9499583566645637,375.6322990991823,375.6323119276883,526.503256195527,526.503256195527,377.3324122466049,j,1,1.6501879794128058,None,377.3329494402923,377.33298792581013,377.3329969057644,377.333497217497,,,,,,,,,,,,,,,,,,,,,,,,,,,,,,,,,,CIW,001,2,28,F,2024-02-15_16h49.45.708,eye_track_exp,2023.1.3,120.098912273206,
90,0,0,12,0,12,180,180,180,0,j,present,resp,freq_top,0,12,12,32,,,,,,,,,,,,377.33397700362013,377.813720792699,377.81373362120496,0.7341450201583367,378.5549736759058,378.55498618369904,529.425737382523,529.425737382523,380.0057115715689,j,1,1.4149308191821888,None,380.00624170957803,380.0062821193718,380.00629109932595,380.00678467609305,,,,,,,,,,,,,,,,,,,,,,,,,,,,,,,,,,CIW,001,2,28,F,2024-02-15_16h49.45.708,eye_track_exp,2023.1.3,120.098912273206,
0,180,0,-168,180,0,180,0,12,180,None,abs,inhibit,freq_top,0,13,13,24,,,,,,,,,,,,380.00728498782576,380.56148927408617,380.5615024233048,1.0562980847934877,381.61854694078613,381.6185594485795,532.4897750393193,532.4897750393193,384.63221314819236,None,1,,,384.6326489966825,384.63268876505106,384.6326980657178,384.6334738696162,,,,,,,,,,,,,,,,,,,,,,,,,,,,,,,,,,CIW,001,2,28,F,2024-02-15_16h49.45.708,eye_track_exp,2023.1.3,120.098912273206,
0,0,180,0,168,0,0,0,180,168,f,abs,resp,freq_top,0,14,14,17,,,,,,,,,,,,384.6339632771188,384.8661579522626,384.86617046005586,0.7968522208673274,385.66475105001314,385.6647635578065,536.5363126897016,536.5363126897016,387.38191680970453,f,1,1.6804889105057441,None,387.38242738424196,387.38246651118516,387.3824754911393,387.38294501445773,,,,,,,,,,,,,,,,,,,,,,,,,,,,,,,,,,CIW,001,2,28,F,2024-02-15_16h49.45.708,eye_track_exp,2023.1.3,120.098912273206,
0,180,0,12,0,180,180,180,0,12,j,abs,resp,freq_top,0,15,15,4,,,,,,,,,,,,387.38343602552357,387.9222570088542,387.9222701580728,0.9818252639797568,388.9041540626596,388.90416657045284,539.7751852436261,539.7751852436261,390.1047951031027,j,1,1.160873804170194,None,390.1053377489051,390.10537655513565,390.1053852143772,390.1058893746616,,,,,,,,,,,,,,,,,,,,,,,,,,,,,,,,,,CIW,001,2,28,F,2024-02-15_16h49.45.708,eye_track_exp,2023.1.3,120.098912273206,
90,0,0,12,0,180,180,180,0,12,j,present,resp,freq_top,0,16,16,36,,,,,,,,,,,,390.1063662743709,390.51956603730014,390.51957918651874,1.087473373220508,391.6097812226592,391.60979340973984,542.4812171429892,542.4812171429892,393.19366201248465,j,1,1.5430497496952853,None,393.19417675628654,393.1942152418045,393.19422454247126,393.19458213707514,,,,,,,,,,,,,,,,,,,,,,,,,,,,,,,,,,CIW,001,2,28,F,2024-02-15_16h49.45.708,eye_track_exp,2023.1.3,120.098912273206,
0,180,180,180,168,0,0,0,0,12,None,abs,inhibit,freq_top,0,17,17,31,,,,,,,,,,,,393.19507282742836,393.50064334957415,393.5006558573675,0.8865238813110826,394.3908842560877,394.3908967638811,545.2621755350128,545.2621755350128,397.4045414835397,None,1,,,397.4049475057535,397.40498887768535,397.40499881977746,397.40575377735354,,,,,,,,,,,,,,,,,,,,,,,,,,,,,,,,,,CIW,001,2,28,F,2024-02-15_16h49.45.708,eye_track_exp,2023.1.3,120.098912273206,
180,270,0,0,0,0,0,168,0,168,f,present,resp,freq_top,0,18,18,43,,,,,,,,,,,,397.40626723830485,397.75485879663484,397.7548716251408,0.7602301481453633,398.52108140456744,398.5210942330734,549.3919631334395,549.3919631334395,400.20357940973474,f,1,1.6399088182944865,None,400.2041217348245,400.2041608617677,400.20416984172186,400.2046541178221,,,,,,,,,,,,,,,,,,,,,,,,,,,,,,,,,,CIW,001,2,28,F,2024-02-15_16h49.45.708,eye_track_exp,2023.1.3,120.098912273206,
0,270,0,0,12,0,180,180,180,12,j,present,resp,freq_top,0,19,19,42,,,,,,,,,,,,400.2051467324512,400.56124873959925,400.56126156810524,0.7898785368197392,401.35135225281385,401.35136540203257,552.2228609749152,552.2228609749152,402.28493362531015,j,1,0.8886718296067215,None,402.28551571876835,402.28555997711396,402.2855689570681,402.28611416857166,,,,,,,,,,,,,,,,,,,,,,,,,,,,,,,,,,CIW,001,2,28,F,2024-02-15_16h49.45.708,eye_track_exp,2023.1.3,120.098912273206,
180,0,180,12,180,180,12,180,180,180,j,abs,resp,freq_top,0,20,20,1,,,,,,,,,,,,402.28663372306335,402.601172974443,402.60118548223636,0.8862708167770407,403.49151715042956,403.4915306203609,554.3626881621112,554.3626881621112,405.32463015417295,j,1,1.7890142224309216,None,405.3251541986417,405.3251930048723,405.3252016641138,405.3256737531333,,,,,,,,,,,,,,,,,,,,,,,,,,,,,,,,,,CIW,001,2,28,F,2024-02-15_16h49.45.708,eye_track_exp,2023.1.3,120.098912273206,
180,0,90,180,12,0,180,180,12,180,j,present,resp,freq_top,0,21,21,41,,,,,,,,,,,,405.32615867065886,405.72346487683353,405.72347802605213,0.9750031447573012,406.6972373170976,406.69725014560356,557.5682627252365,557.5682627252365,408.0800707235534,j,1,1.3352327637272197,None,408.0806056722522,408.08064447848267,408.0806534584369,408.0810078459142,,,,,,,,,,,,,,,,,,,,,,,,,,,,,,,,,,CIW,001,2,28,F,2024-02-15_16h49.45.708,eye_track_exp,2023.1.3,120.098912273206,
180,270,0,0,168,0,0,168,180,0,f,present,resp,freq_top,0,22,22,45,,,,,,,,,,,,408.0814962912789,408.346445990707,408.34645946063824,0.7848197870218412,409.1369481497445,409.1369609782505,560.0078770233761,560.0078770233761,411.0861607360483,f,1,1.9033854845249039,None,411.086740584518,411.0867829185877,411.08679189854183,411.08730535949314,,,,,,,,,,,,,,,,,,,,,,,,,,,,,,,,,,CIW,001,2,28,F,2024-02-15_16h49.45.708,eye_track_exp,2023.1.3,120.098912273206,
168,0,180,0,0,180,180,0,168,0,f,abs,resp,freq_top,0,23,23,13,,,,,,,,,,,,411.0878278003987,411.3605756278912,411.3605887771098,0.9658379970056223,412.32536586899016,412.32537869749615,563.1967918472278,563.1967918472278,413.52585136379844,f,1,1.1621691625602466,None,413.5263709182901,413.52640908309536,413.5264174216243,413.5268051632171,,,,,,,,,,,,,,,,,,,,,,,,,,,,,,,,,,CIW,001,2,28,F,2024-02-15_16h49.45.708,eye_track_exp,2023.1.3,120.098912273206,
180,270,180,12,180,180,180,180,12,180,j,present,resp,freq_top,0,24,24,35,,,,,,,,,,,,413.5272939292944,414.1665842435158,414.1665970720218,1.0363229629453454,415.2063397835061,415.2063529327247,566.0776435702246,566.0776435702246,417.3554625061256,j,1,2.1056281639380927,None,417.3560429960206,417.3560805194005,417.35608917864204,417.356567361202,,,,,,,,,,,,,,,,,,,,,,,,,,,,,,,,,,CIW,001,2,28,F,2024-02-15_16h49.45.708,eye_track_exp,2023.1.3,120.098912273206,
180,168,180,0,180,0,180,0,0,168,f,abs,resp,freq_top,0,25,25,20,,,,,,,,,,,,417.3570542030034,417.6713070579874,417.67131956578066,0.8695490564185648,418.54489367734254,418.5449058644232,569.4164428092377,569.4164428092377,419.74494139938474,f,1,1.150375917025201,None,419.7454603124511,419.74549879796893,419.74550745721046,419.74600424110406,,,,,,,,,,,,,,,,,,,,,,,,,,,,,,,,,,CIW,001,2,28,F,2024-02-15_16h49.45.708,eye_track_exp,2023.1.3,120.098912273206,
180,270,180,12,180,0,12,180,0,180,j,present,resp,freq_top,0,26,26,33,,,,,,,,,,,,419.7464840272272,420.14377548062,420.1437886298386,0.792416206810516,420.94343302365314,420.9434455314465,571.814395572113,571.814395572113,422.176212678669,j,1,1.1842829411454545,None,422.1767341574365,422.1767729636671,422.1767819436212,422.1772508255143,,,,,,,,,,,,,,,,,,,,,,,,,,,,,,,,,,CIW,001,2,28,F,2024-02-15_16h49.45.708,eye_track_exp,2023.1.3,120.098912273206,
0,0,180,0,0,0,168,0,180,168,f,abs,resp,freq_top,0,27,27,15,,,,,,,,,,,,422.1777463265573,422.4509056283787,422.45091845688466,0.8651206228026693,423.31621818209805,423.3162316520293,574.1873577639401,574.1873577639401,424.3831307070816,f,1,1.0195001405799644,None,424.38362332171073,424.38366309007915,424.383672390746,424.38396584282,,,,,,,,,,,,,,,,,,,,,,,,,,,,,,,,,,CIW,001,2,28,F,2024-02-15_16h49.45.708,eye_track_exp,2023.1.3,120.098912273206,
180,12,180,-168,180,180,0,180,180,180,None,abs,inhibit,freq_top,0,28,28,26,,,,,,,,,,,,424.38445492961,424.7069494582522,424.70696196604547,0.92994025163977,425.6394083364763,425.6394208442696,576.5103657535337,576.5103657535337,428.65279199603856,None,1,,,428.6532753100008,428.65333656611676,428.65334586678364,428.654232316546,,,,,,,,,,,,,,,,,,,,,,,,,,,,,,,,,,CIW,001,2,28,F,2024-02-15_16h49.45.708,eye_track_exp,2023.1.3,120.098912273206,
180,0,180,12,0,180,180,0,12,180,j,abs,resp,freq_top,0,29,29,3,,,,,,,,,,,,428.65473711825575,429.6939452017539,429.6939586716852,0.9084696244207746,430.6015850901972,430.6015975979906,581.4727727789366,581.4727727789366,431.9514534055835,j,1,1.30121284875446,None,431.95199508924793,431.9520338954784,431.95204287543265,431.9525470357171,,,,,,,,,,,,,,,,,,,,,,,,,,,,,,,,,,CIW,001,2,28,F,2024-02-15_16h49.45.708,eye_track_exp,2023.1.3,120.098912273206,
12,0,0,-168,0,0,180,180,180,180,None,abs,inhibit,freq_top,0,30,30,27,,,,,,,,,,,,431.95302714255286,436.3968260993388,436.39683956927,0.8858661397124986,437.28714525973874,437.2871580882447,588.1587017680247,588.1587017680247,440.3011033156556,None,1,,,440.3021392175124,440.3021802687315,440.3021898901111,486.1791074310404,,,,,,,,,,,,,,,,,,,,,,,,,,,,,,,,,,CIW,001,2,28,F,2024-02-15_16h49.45.708,eye_track_exp,2023.1.3,120.098912273206,
0,0,0,-168,0,0,0,12,0,0,None,abs,inhibit,freq_top,0,31,31,23,,,,,,,,,,,,486.17974564921224,490.883494074513,490.8835072237316,1.081212156081178,491.9658713634392,491.9658841919452,642.8367935021051,642.8367935021051,494.9792264795758,None,1,,,494.9796536688243,494.9796943993308,494.9797040207104,494.9805590406329,,,,,,,,,,,,,,,,,,,,,,,,,,,,,,,,,,CIW,001,2,28,F,2024-02-15_16h49.45.708,eye_track_exp,2023.1.3,120.098912273206,
180,0,180,0,12,180,180,180,12,180,j,abs,resp,freq_top,0,32,32,9,,,,,,,,,,,,494.9810494102735,498.2275202882822,498.22753375821344,0.8887199647576323,499.1174363128821,499.11744849996285,649.9889973111451,649.9889973111451,500.95038896030087,j,1,1.7902287612332088,None,500.950910759781,500.95095052814963,500.95095918739116,500.95131710270766,,,,,,,,,,,,,,,,,,,,,,,,,,,,,,,,,,CIW,001,2,28,F,2024-02-15_16h49.45.708,eye_track_exp,2023.1.3,120.098912273206,
90,0,180,168,180,180,0,168,0,0,f,present,resp,freq_top,0,33,33,46,,,,,,,,,,,,500.95182703581963,503.29018753992864,503.29020100985986,1.0296233756255169,504.321843802677,504.32185631047037,655.1928541373213,655.1928541373213,506.1380347242,f,1,1.7697458064689613,None,506.13857993570355,506.13862451476166,506.1386334947158,506.13892021182437,,,,,,,,,,,,,,,,,,,,,,,,,,,,,,,,,,CIW,001,2,28,F,2024-02-15_16h49.45.708,eye_track_exp,2023.1.3,120.098912273206,
0,180,0,12,0,180,180,12,0,0,j,abs,resp,freq_top,0,34,34,2,,,,,,,,,,,,506.1394295035111,506.47873065782005,506.4787575976827,0.9942957876826978,507.47739039965927,507.47740322816526,658.3485117008802,658.3485117008802,508.6768890616461,j,1,1.1582458847230441,None,508.6774060504365,508.6774448566671,508.677453195196,508.6780776227238,,,,,,,,,,,,,,,,,,,,,,,,,,,,,,,,,,CIW,001,2,28,F,2024-02-15_16h49.45.708,eye_track_exp,2023.1.3,120.098912273206,
180,180,168,0,270,0,0,168,0,180,f,present,resp,freq_top,0,35,35,47,,,,,,,,,,,,508.678571199491,510.8088074749139,510.80882158627037,1.0395284725334595,511.84859957614617,511.84861240465216,662.7197491000802,662.7197491000802,514.0311767973378,f,1,2.146008452169042,None,514.0316912204271,514.031728743807,514.0317374030485,514.03223514908,,,,,,,,,,,,,,,,,,,,,,,,,,,,,,,,,,CIW,001,2,28,F,2024-02-15_16h49.45.708,eye_track_exp,2023.1.3,120.098912273206,
180,180,0,168,180,180,180,0,0,168,f,abs,resp,freq_top,0,36,36,18,,,,,,,,,,,,514.032793830515,514.3054627626957,514.3054755912017,0.7883863716905767,515.0959553003538,515.0959681288598,665.966946712952,665.966946712952,516.079667908466,f,1,0.9474972644288187,None,516.0801672580608,516.0802067057166,516.0802153649581,516.0804565408703,,,,,,,,,,,,,,,,,,,,,,,,,,,,,,,,,,CIW,001,2,28,F,2024-02-15_16h49.45.708,eye_track_exp,2023.1.3,120.098912273206,
180,180,180,-168,180,180,12,180,0,180,None,abs,inhibit,freq_top,0,37,37,22,,,,,,,,,,,,516.0809398548326,516.1451526207354,516.1451648078162,1.0598747791673409,517.210770749467,517.2107829365477,668.081817966066,668.081817966066,520.2241832731677,None,1,,,520.2246264980488,520.2246646628539,520.2246739635209,520.2256691348712,,,,,,,,,,,,,,,,,,,,,,,,,,,,,,,,,,CIW,001,2,28,F,2024-02-15_16h49.45.708,eye_track_exp,2023.1.3,120.098912273206,
168,0,270,180,180,180,180,168,180,180,f,present,resp,freq_top,0,38,38,49,,,,,,,,,,,,520.2261521281209,520.4998367572616,520.4998499064802,0.7295837962067035,521.2322694011909,521.2322828711222,672.1033554240205,672.1033554240205,523.3817089879078,f,1,2.1066855535422633,None,523.3823250769069,523.3823677316891,523.3823763909306,523.3830370589881,,,,,,,,,,,,,,,,,,,,,,,,,,,,,,,,,,CIW,001,2,28,F,2024-02-15_16h49.45.708,eye_track_exp,2023.1.3,120.098912273206,
180,12,180,12,180,90,180,180,0,180,j,present,resp,freq_top,0,39,39,37,,,,,,,,,,,,523.3835383328587,523.6975198649416,523.6975330141602,0.7359369436669704,524.4378106102006,524.437824080132,675.3089620584108,675.3089620584108,526.0538011504605,j,1,1.5723029125635435,None,526.0543293641936,526.0543681704241,526.0543771503783,526.0549037605483,,,,,,,,,,,,,,,,,,,,,,,,,,,,,,,,,,CIW,001,2,28,F,2024-02-15_16h49.45.708,eye_track_exp,2023.1.3,120.098912273206,
0,180,0,0,180,168,180,0,0,168,f,abs,resp,freq_top,0,40,40,16,,,,,,,,,,,,526.0553880366485,530.758157646944,530.7581714375881,0.8267709910269745,531.5902017154278,531.5902139025084,682.4611450211285,682.4611450211285,533.2223542489294,f,1,1.5881775472718687,None,533.2228798969613,533.2229190239045,533.2229280038589,533.2234020171543,,,,,,,,,,,,,,,,,,,,,,,,,,,,,,,,,,CIW,001,2,28,F,2024-02-15_16h49.45.708,eye_track_exp,2023.1.3,120.098912273206,
180,180,0,168,180,180,180,180,168,180,f,abs,resp,freq_top,0,41,41,10,,,,,,,,,,,,533.2239071395768,533.7306709693476,533.7306841185662,0.786872374130941,534.5209284246339,534.5209422152777,685.3919438906805,685.3919438906805,535.7876346672413,f,1,1.2165985891003288,None,535.7881712195035,535.7882116292972,535.7882206092513,535.7886035401546,,,,,,,,,,,,,,,,,,,,,,,,,,,,,,,,,,CIW,001,2,28,F,2024-02-15_16h49.45.708,eye_track_exp,2023.1.3,120.098912273206,
90,0,180,180,180,168,0,168,0,0,f,present,resp,freq_top,0,42,42,44,,,,,,,,,,,,535.7890926269445,536.3362765133147,536.3362896625333,0.9424792112505407,537.2852020617975,537.2852145695908,688.1562518440976,688.1562518440976,538.7677007725326,f,1,1.4450736389391636,None,538.7682084606563,538.7682475875995,538.7682565675536,538.7690317300267,,,,,,,,,,,,,,,,,,,,,,,,,,,,,,,,,,CIW,001,2,28,F,2024-02-15_16h49.45.708,eye_track_exp,2023.1.3,120.098912273206,
0,0,168,0,0,0,0,0,168,0,f,abs,resp,freq_top,0,43,43,11,,,,,,,,,,,,538.7695160061269,539.1670714060299,539.1670842345359,1.0055887084792698,540.1740100241946,540.1740222112753,691.0454526794899,691.0454526794899,541.2085103667157,f,1,0.9870757710368139,None,541.2090517296674,541.2090911773232,541.2090998365647,541.2095010480889,,,,,,,,,,,,,,,,,,,,,,,,,,,,,,,,,,CIW,001,2,28,F,2024-02-15_16h49.45.708,eye_track_exp,2023.1.3,120.098912273206,
0,0,0,0,168,0,0,12,0,0,None,abs,inhibit,freq_top,0,44,44,29,,,,,,,,,,,,541.2100113019137,541.4989281783264,541.498941327545,1.0236772886878904,542.521888959018,542.5219024289493,693.3934182067287,693.3934182067287,545.53584156282,None,1,,,545.5362260972863,545.5362799770112,545.5362895983908,545.5369217230223,,,,,,,,,,,,,,,,,,,,,,,,,,,,,,,,,,CIW,001,2,28,F,2024-02-15_16h49.45.708,eye_track_exp,2023.1.3,120.098912273206,
0,168,180,90,0,180,0,168,0,0,f,present,resp,freq_top,0,45,45,48,,,,,,,,,,,,545.5374393532379,545.8277256726626,545.827738180456,0.904343836649217,546.7354563227857,546.7354685098665,697.6064791652234,697.6064791652234,548.2020342161911,f,1,1.4175956205839952,None,548.2025832762465,548.2026252896035,548.2026342695576,548.2030467060245,,,,,,,,,,,,,,,,,,,,,,,,,,,,,,,,,,CIW,001,2,28,F,2024-02-15_16h49.45.708,eye_track_exp,2023.1.3,120.098912273206,
0,0,0,-168,0,12,0,0,0,0,None,abs,inhibit,freq_top,0,46,46,21,,,,,,,,,,,,548.203538999941,548.7088907319176,548.7089038811362,0.7379243169255012,549.4492869916382,549.4492998201442,700.3208268228666,700.3208268228666,552.4632149005663,None,1,,,552.4636231677687,552.4636658225509,552.4636754439305,552.4643280941714,,,,,,,,,,,,,,,,,,,,,,,,,,,,,,,,,,CIW,001,2,28,F,2024-02-15_16h49.45.708,eye_track_exp,2023.1.3,120.098912273206,
0,0,0,-168,180,180,180,180,0,12,None,abs,inhibit,freq_top,0,47,47,25,,,,,,,,,,,,552.464814935973,552.8052526959104,552.8052655244164,1.0107179892729408,553.8210118740651,553.8210240611459,704.6920594113767,704.6920594113767,556.8344260013291,None,1,,,556.8349644778671,556.8350090569252,556.8350186783048,556.8359795334015,,,,,,,,,,,,,,,,,,,,,,,,,,,,,,,,,,CIW,001,2,28,F,2024-02-15_16h49.45.708,eye_track_exp,2023.1.3,120.098912273206,
0,0,168,0,0,0,0,0,180,168,f,abs,resp,freq_top,0,48,48,19,,,,,,,,,,,,556.8364849765367,557.3179910816227,557.3180042308413,0.9563984275561257,558.2755543838853,558.2755668916786,709.1465813955874,709.1465813955874,559.458068424685,f,1,1.1409495308409419,None,559.4585934312918,559.458632558235,559.4586415381891,559.4591219657375,,,,,,,,,,,,,,,,,,,,,,,,,,,,,,,,,,CIW,001,2,28,F,2024-02-15_16h49.45.708,eye_track_exp,2023.1.3,120.098912273206,
0,180,0,180,168,180,12,180,0,180,None,abs,inhibit,freq_top,0,49,49,28,,,,,,,,,,,,559.4596129768036,559.7493415769313,559.7493544054373,0.994832653189013,560.748515421147,560.7485285703656,711.6194667446639,711.6194667446639,563.7618359003175,None,1,,,563.7622358289909,563.7622762387846,563.7622858601642,563.7631633299723,,,,,,,,,,,,,,,,,,,,,,,,,,,,,,,,,,CIW,001,2,28,F,2024-02-15_16h49.45.708,eye_track_exp,2023.1.3,120.098912273206,
,,,,,,,,,,,,,,,,,,,,,,,,,,,,,,,,,,,,,,,,,,,,,,563.7632140025707,564.2665442827197,564.2665616012027,580.5892777422855,space,16.30558640715134,None,,,,,,,,,,,,,,,,,,,,,,,,,,,CIW,001,2,28,F,2024-02-15_16h49.45.708,eye_track_exp,2023.1.3,120.098912273206,
0,180,0,-12,0,180,90,0,-12,180,j,present,resp,freq_bottom,,,,,0,0,0,710,,,,,,580.5893046821482,581.0907738667938,,,,0.9052979424258816,,,,,,,,,,,,,,,,,,,,,581.2645411115132,583.2295616242941,583.2295760563634,584.1363727912519,584.136388185459,735.0077173084767,735.0077173084767,736.4981071539446,736.4981071539446,736.4981071539446,736.4981071539446,585.9617720143576,j,1,1.790465126455672,None,585.9632046377615,585.9632511410955,585.9632607624751,585.9635728158828,,,,,,,CIW,001,2,28,F,2024-02-15_16h49.45.708,eye_track_exp,2023.1.3,120.098912273206,
270,180,0,180,180,0,-168,0,12,180,None,present,inhibit,freq_bottom,,,,,0,1,1,38,,,,,,,,,,,1.0406809843855054,,,,,,,,,,,,,,,,,,,,,585.9640718447647,586.2938975438542,586.2939129380613,587.3334314714039,587.3334455827605,738.204978679023,738.204978679023,739.6953605066747,739.6953605066747,739.6953605066747,739.6953605066747,590.3653689991456,None,1,,,590.3657551371753,590.3657955469689,590.3658048476359,590.3663699433237,741.1857593320967,741.1857593320967,,,,,CIW,001,2,28,F,2024-02-15_16h49.45.708,eye_track_exp,2023.1.3,120.098912273206,
180,180,180,0,0,-168,180,180,168,180,f,abs,resp,freq_bottom,,,,,0,2,2,956,,,,,,,,,,,0.7298379129290972,,,,,,,,,,,,,,,,,,,,,590.366858709401,590.367830468728,590.3678407315326,591.0974940796445,591.097508191001,741.9684194254369,741.9684194254369,,,,,592.3142778705705,f,1,1.1812429059440888,None,592.3147945386484,592.3148330241663,592.3148423248331,592.3153009439216,,,,,,,CIW,001,2,28,F,2024-02-15_16h49.45.708,eye_track_exp,2023.1.3,120.098912273206,
0,180,180,180,12,0,270,0,0,12,j,present,resp,freq_bottom,,,,,0,3,3,564,,,,,,,,,,,0.7858911039506085,,,,,,,,,,,,,,,,,,,,,592.3157826543204,592.8797196073451,592.8797350015523,593.6699712898037,593.6699850804475,744.5495513871463,744.5495513871463,746.0399162170274,746.0399162170274,746.0399162170274,746.0399162170274,595.3861931921683,j,1,1.6729909694808498,None,595.3867387243847,595.3867788134658,595.3867884348454,595.3874016374305,,,,,,,CIW,001,2,28,F,2024-02-15_16h49.45.708,eye_track_exp,2023.1.3,120.098912273206,
180,0,180,168,180,180,168,180,180,0,f,abs,resp,freq_bottom,,,,,0,4,4,836,,,,,,,,,,,1.0983997181262088,,,,,,,,,,,,,,,,,,,,,595.3879385104051,595.7104198898287,595.7104340011854,596.8087308245906,596.8087442945221,747.6801763663,747.6801763663,,,,,597.9592656450045,f,1,1.1015422847876266,None,597.9598150257725,597.9598538320031,597.9598628119572,597.9604400947258,,,,,,,CIW,001,2,28,F,2024-02-15_16h49.45.708,eye_track_exp,2023.1.3,120.098912273206,
180,180,180,12,180,-12,0,270,0,180,j,present,resp,freq_bottom,,,,,0,5,5,493,,,,,,,,,,,0.7527972444704858,,,,,,,,,,,,,,,,,,,,,597.9609250122512,599.8070390653663,599.8070708159187,600.5640437503366,600.5640572202681,751.4353007130082,751.4353007130082,,,,,601.8141069307287,j,1,1.2022771657520366,None,601.814644124416,601.8146838927844,601.8146931934514,601.8152088993911,,,,,,,CIW,001,2,28,F,2024-02-15_16h49.45.708,eye_track_exp,2023.1.3,120.098912273206,
0,0,0,180,180,180,168,180,180,-168,f,abs,resp,freq_bottom,,,,,0,6,6,805,,,,,,,,,,,1.0242489238803123,,,,,,,,,,,,,,,,,,,,,601.8156896476523,604.0372783554881,604.0372924668447,605.0608645258455,605.0608799200527,755.9314210520913,755.9314210520913,,,,,606.3607071200774,f,1,1.2499584774411119,None,606.3612500865925,606.3612901756735,606.3612994763403,606.3617638682563,,,,,,,CIW,001,2,28,F,2024-02-15_16h49.45.708,eye_track_exp,2023.1.3,120.098912273206,
0,0,-168,0,180,180,180,0,0,12,None,abs,inhibit,freq_bottom,,,,,0,7,7,365,,,,,,,,,,,0.8799450520458534,,,,,,,,,,,,,,,,,,,,,606.3622484650693,606.7841305608365,606.7841449929058,607.6661163237607,607.6661310765426,758.5375423019984,758.5375423019984,760.0279266953512,760.0279266953512,760.0279266953512,760.0279266953512,610.6976612992198,None,1,,,610.6980952234342,610.69813467109,610.6981436510441,610.6987469115372,761.5183117301292,761.5183117301292,,,,,CIW,001,2,28,F,2024-02-15_16h49.45.708,eye_track_exp,2023.1.3,120.098912273206,
-168,180,180,0,180,180,-168,180,180,0,f,abs,resp,freq_bottom,,,,,0,8,8,851,,,,,,,,,,,0.715510106820343,,,,,,,,,,,,,,,,,,,,,610.6992982165812,610.9388394563791,610.9388554920117,611.6547412875202,611.6547560403021,762.5257759963258,762.5257759963258,,,,,613.0716856913409,f,1,1.3756938715457068,None,613.0722501456034,613.0722886311214,613.0722976110756,613.0726144751729,,,,,,,CIW,001,2,28,F,2024-02-15_16h49.45.708,eye_track_exp,2023.1.3,120.098912273206,
0,180,0,168,180,180,12,0,270,180,None,present,inhibit,freq_bottom,,,,,0,9,9,78,,,,,,,,,,,0.9015542122319622,,,,,,,,,,,,,,,,,,,,,613.0731029205376,613.2704572977523,613.2704714091087,614.177502584944,614.1775170170131,765.0486197169005,765.0486197169005,766.5390217494489,766.5390217494489,766.5390217494489,766.5390217494489,617.2087557118923,None,1,,,617.2092672485676,617.2093073376489,617.2093166383156,617.2099843620513,768.0293939557212,768.0293939557212,,,,,CIW,001,2,28,F,2024-02-15_16h49.45.708,eye_track_exp,2023.1.3,120.098912273206,
180,168,180,0,0,180,180,90,180,168,f,present,resp,freq_bottom,,,,,0,10,10,636,,,,,,,,,,,0.7498543751366133,,,,,,,,,,,,,,,,,,,,,617.2105103307958,617.5167646123098,617.5167784029536,618.2658278106614,618.2658416013055,769.1451054759759,769.1451054759759,770.6271959195087,770.6271959195087,770.6271959195087,770.6271959195087,621.305507341754,None,0,,,621.305898611186,621.8117884989879,621.8117997239306,621.8126476881748,772.1175447137575,772.1175447137575,772.1591770641708,,,,CIW,001,2,28,F,2024-02-15_16h49.45.708,eye_track_exp,2023.1.3,120.098912273206,
180,180,0,270,0,168,180,180,12,180,None,present,inhibit,freq_bottom,,,,,0,11,11,179,,,,,,,,,,,0.9004879245690047,,,,,,,,,,,,,,,,,,,,,621.8132175945525,621.8546523859738,621.8546648937672,622.762136087357,622.7621501987135,773.6329132639055,773.6329132639055,775.123294129419,775.123294129419,775.123294129419,775.123294129419,625.7932394414981,None,1,,,625.7937131340809,625.7944530181626,625.79446360168,625.7949286350213,776.6137016140826,776.6137016140826,,,,,CIW,001,2,28,F,2024-02-15_16h49.45.708,eye_track_exp,2023.1.3,120.098912273206,
0,180,180,180,0,0,12,0,0,168,None,abs,inhibit,freq_bottom,,,,,0,12,12,413,,,,,,,,,,,0.9351240359925556,,,,,,,,,,,,,,,,,,,,,625.7954488309383,626.2269757182039,626.2269907916984,627.1664575620193,627.166471673376,778.0374736694914,778.0374736694914,779.5361872910557,779.5361872910557,779.5361872910557,779.5361872910557,630.1978101098889,None,1,,,630.1982228670684,630.1982632768622,630.198272577529,630.1988264482741,781.0099289429054,781.0099289429054,,,,,CIW,001,2,28,F,2024-02-15_16h49.45.708,eye_track_exp,2023.1.3,120.098912273206,
0,0,0,12,0,180,0,-12,0,90,j,present,resp,freq_bottom,,,,,0,13,13,626,,,,,,,,,,,0.8638199219071464,,,,,,,,,,,,,,,,,,,,,630.1993270807195,630.2477396172487,630.2477524457547,631.1125480106837,631.1125618013275,781.9840791826703,781.9840791826703,783.4744789702302,783.4744789702302,783.4744789702302,783.4744789702302,632.8707390117431,j,1,1.7234842896779696,None,632.8713329715695,632.8713717778,632.8713810784668,632.8721895950553,,,,,,,CIW,001,2,28,F,2024-02-15_16h49.45.708,eye_track_exp,2023.1.3,120.098912273206,
0,-12,180,180,180,90,180,180,0,168,None,present,inhibit,freq_bottom,,,,,0,14,14,29,,,,,,,,,,,0.7795183882536336,,,,,,,,,,,,,,,,,,,,,632.8727758577779,633.4108726719469,633.4108867833033,634.1936812552435,634.1936960080254,785.0647839551309,785.0647839551309,786.5551705934722,786.5551705934722,786.5551705934722,786.5551705934722,637.2252457941743,None,1,,,637.2256393085947,637.225679397676,637.2256883776301,637.2261999143057,788.0455367062041,788.0455367062041,,,,,CIW,001,2,28,F,2024-02-15_16h49.45.708,eye_track_exp,2023.1.3,120.098912273206,
-12,0,12,0,0,0,0,180,90,180,j,present,resp,freq_bottom,,,,,0,15,15,656,,,,,,,,,,,0.7532378305579948,,,,,,,,,,,,,,,,,,,,,637.2267085645672,637.5664766764933,637.5664904671371,638.3235804616722,638.3235942523161,789.1945638564541,789.1945638564541,790.6849620404507,790.6849620404507,790.6849620404507,790.6849620404507,640.3312089327453,j,1,1.9702296977142737,None,640.3317737077205,640.3318131553763,640.331822456043,640.3324901797787,,,,,,,CIW,001,2,28,F,2024-02-15_16h49.45.708,eye_track_exp,2023.1.3,120.098912273206,
0,0,0,180,168,0,0,180,0,168,f,abs,resp,freq_bottom,,,,,0,16,16,898,,,,,,,,,,,0.919295694898593,,,,,,,,,,,,,,,,,,,,,640.332998188615,640.8215227693152,640.8215372013844,641.745436579715,641.7454506910715,792.6166393419489,792.6166393419489,794.1070291874169,794.1070291874169,794.1070291874169,794.1070291874169,643.9865592535862,f,1,2.1948353494407797,None,643.9870900330206,643.9871294806765,643.9871387813432,643.9877555117675,,,,,,,CIW,001,2,28,F,2024-02-15_16h49.45.708,eye_track_exp,2023.1.3,120.098912273206,
0,168,0,0,0,180,0,168,0,0,f,abs,resp,freq_bottom,,,,,0,17,17,999,,,,,,,,,,,1.0875500992494849,,,,,,,,,,,,,,,,,,,,,643.9882522956611,644.4848055968205,644.4848203496024,645.5757064658235,645.5757199357549,796.4550046567476,796.4550046567476,,,,,646.9841244031538,f,1,1.3642261493495766,None,646.9846696146574,646.9847090623132,646.98471836298,646.9852266925288,,,,,,,CIW,001,2,28,F,2024-02-15_16h49.45.708,eye_track_exp,2023.1.3,120.098912273206,
180,0,180,168,180,270,180,0,12,0,None,present,inhibit,freq_bottom,,,,,0,18,18,71,,,,,,,,,,,0.7319206652717116,,,,,,,,,,,,,,,,,,,,,646.9857298906754,647.2831870242228,647.2832011355792,648.0148999889675,648.0149147417494,798.8946173513241,798.8946173513241,800.3849748048142,800.3849748048142,800.3849748048142,800.3849748048142,651.0550782282294,None,1,,,651.0554951546733,651.0555352437543,651.0555442237087,651.0560948873272,801.8587209466411,801.8587209466411,,,,,CIW,001,2,28,F,2024-02-15_16h49.45.708,eye_track_exp,2023.1.3,120.098912273206,
0,0,12,0,0,0,-168,0,90,0,None,present,inhibit,freq_bottom,,,,,0,19,19,230,,,,,,,,,,,0.893102830642199,,,,,,,,,,,,,,,,,,,,,651.056603216876,651.3050666825741,651.3050801525053,652.2031570311758,652.2031711425325,803.0743267600069,803.0743267600069,804.564714360486,804.564714360486,804.564714360486,804.564714360486,655.2349646702946,None,1,,,655.2353973116583,655.2354422114292,655.2354527949465,655.2358726078044,806.0551083752184,806.0551083752184,,,,,CIW,001,2,28,F,2024-02-15_16h49.45.708,eye_track_exp,2023.1.3,120.098912273206,
0,0,-12,0,0,0,0,270,0,168,None,present,inhibit,freq_bottom,,,,,0,20,20,300,,,,,,,,,,,0.7731193349241816,,,,,,,,,,,,,,,,,,,,,655.2364235921357,655.5088080521966,655.5088321056453,656.2831867035102,656.2832097948208,807.1541649668895,807.1541649668895,808.6445480773918,808.6445480773918,808.6445480773918,808.6445480773918,659.3140742180383,None,1,,,659.3144863337925,659.3145261021612,659.3145354028279,659.3151024227916,810.1349433749747,810.1349433749747,,,,,CIW,001,2,28,F,2024-02-15_16h49.45.708,eye_track_exp,2023.1.3,120.098912273206,
12,0,0,0,0,180,90,180,-168,180,None,present,inhibit,freq_bottom,,,,,0,21,21,261,,,,,,,,,,,0.9646545057559333,,,,,,,,,,,,,,,,,,,,,659.3156033759496,659.4810689737451,659.4810821229637,660.4463800521864,660.4463941635429,811.3255884435687,811.3255884435687,812.8076400808709,812.8076400808709,812.8076400808709,812.8076400808709,663.4856949329967,None,1,,,663.4860791467504,663.4861189151188,663.4861282157858,663.4866878593584,814.2980437169826,814.2980437169826,,,,,CIW,001,2,28,F,2024-02-15_16h49.45.708,eye_track_exp,2023.1.3,120.098912273206,
0,0,0,180,168,0,0,180,180,-168,f,abs,resp,freq_bottom,,,,,0,22,22,900,,,,,,,,,,,1.0270389986698898,,,,,,,,,,,,,,,,,,,,,663.4871920196431,663.4879213202071,663.4879312622993,664.5172081579035,664.5172216278347,815.38872842566,815.38872842566,816.8791464938411,816.8791464938411,816.8791464938411,816.8791464938411,666.5750098779495,f,1,2.0136298162496473,None,666.5756147420059,666.5756535482365,666.5756628489032,666.5761371829115,,,,,,,CIW,001,2,28,F,2024-02-15_16h49.45.708,eye_track_exp,2023.1.3,120.098912273206,
0,0,180,180,180,90,0,168,0,12,None,present,inhibit,freq_bottom,,,,,0,23,23,23,,,,,,,,,,,0.9722731722074346,,,,,,,,,,,,,,,,,,,,,666.5766291561151,667.1073787642044,667.1073931962735,668.0810482557081,668.0810620463519,818.9523703230475,818.9523703230475,820.4427563199633,820.4427563199633,820.4427563199633,820.4427563199633,671.11267469218,None,1,,,671.1130890529228,671.1131291420038,671.1131384426706,671.1137109147494,821.9331432790175,821.9331432790175,,,,,CIW,001,2,28,F,2024-02-15_16h49.45.708,eye_track_exp,2023.1.3,120.098912273206,
12,180,180,168,180,270,180,0,0,0,None,present,inhibit,freq_bottom,,,,,0,24,24,68,,,,,,,,,,,0.9807087045413536,,,,,,,,,,,,,,,,,,,,,671.1142285449653,671.4120272374839,671.4120407074151,672.3940865718896,672.3941000418208,823.2736679520829,823.2736679520829,824.7640526661485,824.7640526661485,824.7640526661485,824.7640526661485,675.4334848379888,None,1,,,675.4338805973978,675.4339194036284,675.4339280628699,675.4343061830832,826.237785338044,826.237785338044,,,,,CIW,001,2,28,F,2024-02-15_16h49.45.708,eye_track_exp,2023.1.3,120.098912273206,
180,180,0,0,168,180,180,0,168,180,f,abs,resp,freq_bottom,,,,,0,25,25,915,,,,,,,,,,,1.0954268671720129,,,,,,,,,,,,,,,,,,,,,675.4348109847931,675.4356951895668,675.4357064145095,676.532314685817,676.5323297593116,827.411762970261,827.411762970261,828.8938264739311,828.8938264739311,828.8938264739311,828.8938264739311,678.7394533645322,f,1,2.1501103669517647,None,678.740014932381,678.7400582285886,678.7400681706806,678.740577141655,,,,,,,CIW,001,2,28,F,2024-02-15_16h49.45.708,eye_track_exp,2023.1.3,120.098912273206,
0,0,0,168,0,0,0,168,0,0,f,abs,resp,freq_bottom,,,,,0,26,26,950,,,,,,,,,,,0.9546914097916186,,,,,,,,,,,,,,,,,,,,,678.7410922061695,679.4804220963317,679.4804362076884,680.4370001693362,680.4370142806929,831.3084469938963,831.3084469938963,,,,,681.3718137198305,f,1,0.8931518646028849,None,681.3724500137264,681.3724926685088,681.3725019691756,681.3731039468182,,,,,,,CIW,001,2,28,F,2024-02-15_16h49.45.708,eye_track_exp,2023.1.3,120.098912273206,
180,168,0,0,0,0,12,0,90,180,None,present,inhibit,freq_bottom,,,,,0,27,27,249,,,,,,,,,,,0.8972969133253396,,,,,,,,,,,,,,,,,,,,,681.3736356883903,681.9118046629053,681.911822302101,682.8103523477448,682.8103661383889,833.6897303961186,833.6897303961186,835.1801135066207,835.1801135066207,835.1801135066207,835.1801135066207,685.8496685114058,None,1,,,685.8501053220339,685.8501454111151,685.8501553532071,685.8506271215142,836.6538378399875,836.6538378399875,,,,,CIW,001,2,28,F,2024-02-15_16h49.45.708,eye_track_exp,2023.1.3,120.098912273206,
180,180,-168,0,12,180,90,0,180,180,None,present,inhibit,freq_bottom,,,,,0,28,28,175,,,,,,,,,,,0.7988667546502297,,,,,,,,,,,,,,,,,,,,,685.8511306403734,686.107672536991,686.1076866483475,686.9068307304294,686.9068445210733,837.7861933845961,837.7861933845961,839.2766021521102,839.2766021521102,839.2766021521102,839.2766021521102,689.9469441857361,None,1,,,689.9474496288713,689.9474977357686,689.9475073571482,689.948017610973,840.7503425211094,840.7503425211094,,,,,CIW,001,2,28,F,2024-02-15_16h49.45.708,eye_track_exp,2023.1.3,120.098912273206,
-168,180,180,0,180,180,-168,180,180,0,f,abs,resp,freq_bottom,,,,,0,29,29,852,,,,,,,,,,,0.7501059280545292,,,,,,,,,,,,,,,,,,,,,689.9485525596717,690.3204939231366,690.3205086759185,691.0698521771258,691.069865647057,841.9409888725538,841.9409888725538,,,,,692.1530787131469,f,1,1.0435353086463124,None,692.1535957019373,692.1536348288805,692.1536441295473,692.1541017864977,,,,,,,CIW,001,2,28,F,2024-02-15_16h49.45.708,eye_track_exp,2023.1.3,120.098912273206,
0,0,0,180,180,180,-168,180,180,-168,f,abs,resp,freq_bottom,,,,,0,30,30,804,,,,,,,,,,,0.9842404190230039,,,,,,,,,,,,,,,,,,,,,692.1545895904371,692.9020177957034,692.9020331899105,693.8924111690103,693.892425280367,844.7635821806921,844.7635821806921,,,,,694.7097265090813,f,1,0.7815977424190237,None,694.7102601749295,694.7102996225854,694.7103089232521,694.7109958897468,,,,,,,CIW,001,2,28,F,2024-02-15_16h49.45.708,eye_track_exp,2023.1.3,120.098912273206,
12,0,0,0,0,168,180,270,180,180,None,present,inhibit,freq_bottom,,,,,0,31,31,262,,,,,,,,,,,1.0966977139629734,,,,,,,,,,,,,,,,,,,,,694.7114888250885,695.2419488296555,695.2419642238626,696.3402738757738,696.3402879871305,847.2114500188579,847.2114500188579,848.7018424300268,848.7018424300268,848.7018424300268,848.7018424300268,699.371292241063,None,1,,,699.3716809447938,699.371721033875,699.3717300138292,699.3721796529633,850.1922281062302,850.1922281062302,,,,,CIW,001,2,28,F,2024-02-15_16h49.45.708,eye_track_exp,2023.1.3,120.098912273206,
-168,0,180,180,180,90,180,180,12,180,None,present,inhibit,freq_bottom,,,,,0,32,32,27,,,,,,,,,,,1.0267485951720297,,,,,,,,,,,,,,,,,,,,,699.3726815682592,699.4466401501447,699.4466526579381,700.4782030855122,700.4782175175815,851.3495774290134,851.3495774290134,852.8399608602283,852.8399608602283,852.8399608602283,852.8399608602283,703.5094837937484,None,1,,,703.5099003994796,703.5099408092735,703.5099501099403,703.5105174506166,854.3303503849834,854.3303503849834,,,,,CIW,001,2,28,F,2024-02-15_16h49.45.708,eye_track_exp,2023.1.3,120.098912273206,
0,180,180,0,12,90,180,168,180,0,None,present,inhibit,freq_bottom,,,,,0,33,33,160,,,,,,,,,,,0.9512252576038012,,,,,,,,,,,,,,,,,,,,,703.5110482300511,703.511838145306,703.5118484081106,704.4667212519596,704.4667350426034,855.3461281644716,855.3461281644716,856.8365353284225,856.8365353284225,856.8365353284225,856.8365353284225,707.5066140569636,None,1,,,707.5070034021198,707.5070422083504,707.5070511883046,707.5075268051633,858.3102603032146,858.3102603032146,,,,,CIW,001,2,28,F,2024-02-15_16h49.45.708,eye_track_exp,2023.1.3,120.098912273206,
180,12,0,180,0,-12,0,0,180,90,j,present,resp,freq_bottom,,,,,0,34,34,605,,,,,,,,,,,0.8520978319676051,,,,,,,,,,,,,,,,,,,,,707.5080341725741,707.8560574280898,707.8560712187336,708.7132129762904,708.7132283704975,859.5841620548188,859.5841620548188,,,,,710.0299321115465,j,1,1.2722646836156741,None,710.0305318442004,710.0305764232585,710.0305857239255,710.0312970645812,,,,,,,CIW,001,2,28,F,2024-02-15_16h49.45.708,eye_track_exp,2023.1.3,120.098912273206,
180,0,-168,0,-168,180,270,0,180,0,f,present,resp,freq_bottom,,,,,0,35,35,727,,,,,,,,,,,0.8820196057951909,,,,,,,,,,,,,,,,,,,,,710.0318111669578,711.9104114871573,711.9104259192266,712.7927513168461,712.7927654282028,863.6640063552418,863.6640063552418,,,,,714.0101040520119,f,1,1.1762628799276058,None,714.0106098158597,714.0106489428028,714.010657922757,714.0111377088801,,,,,,,CIW,001,2,28,F,2024-02-15_16h49.45.708,eye_track_exp,2023.1.3,120.098912273206,
0,180,0,180,180,168,0,0,90,12,None,present,inhibit,freq_bottom,,,,,0,36,36,44,,,,,,,,,,,0.9006788337822549,,,,,,,,,,,,,,,,,,,,,714.011639624176,717.7898895978776,717.7899037092343,718.696265237058,718.6962787069892,869.5672781374035,869.5672781374035,871.0576612479058,871.0576612479058,871.0576612479058,871.0576612479058,721.7272858473357,None,1,,,721.7276735889284,721.7277127158716,721.7277220165386,721.7282797358355,872.5480510933735,872.5480510933735,,,,,CIW,001,2,28,F,2024-02-15_16h49.45.708,eye_track_exp,2023.1.3,120.098912273206,
180,90,180,0,180,180,-12,0,12,180,j,present,resp,freq_bottom,,,,,0,37,37,501,,,,,,,,,,,0.8121195683750643,,,,,,,,,,,,,,,,,,,,,721.7287810097059,722.035808529417,722.0358226407736,722.8504911393509,722.8505055714202,873.7220409126712,873.7220409126712,875.2124140810813,875.2124140810813,875.2124140810813,875.2124140810813,725.8821557406281,None,0,,,725.8825797227503,726.388681922326,726.3886937886939,726.3893878108668,876.7027943051696,876.7027943051696,876.7360999930727,,,,CIW,001,2,28,F,2024-02-15_16h49.45.708,eye_track_exp,2023.1.3,120.098912273206,
12,0,0,0,0,168,180,270,180,180,None,present,inhibit,freq_bottom,,,,,0,38,38,260,,,,,,,,,,,0.7434170327033283,,,,,,,,,,,,,,,,,,,,,726.3899426437497,726.3909041402719,726.3909147237894,727.1389577352043,727.1389721672733,878.0100161767459,878.0100161767459,879.5004114743288,879.5004114743288,879.5004114743288,879.5004114743288,730.1706451070795,None,1,,,730.1710488843048,730.1717967862025,730.1718083318581,730.1724603406738,880.9908054890611,880.9908054890611,,,,,CIW,001,2,28,F,2024-02-15_16h49.45.708,eye_track_exp,2023.1.3,120.098912273206,
0,0,0,-168,180,90,180,0,-168,180,f,present,resp,freq_bottom,,,,,0,39,39,540,,,,,,,,,,,0.7979915743251178,,,,,,,,,,,,,,,,,,,,,730.1729786123149,730.4365296838798,730.4365444366617,731.2352359931958,731.2352510666904,882.1065000115457,882.1065000115457,883.596880235634,883.596880235634,883.596880235634,883.596880235634,733.4430921061071,f,1,2.171905677876282,None,733.4436488632662,733.4436902351979,733.4436998565773,733.4441722663096,,,,,,,CIW,001,2,28,F,2024-02-15_16h49.45.708,eye_track_exp,2023.1.3,120.098912273206,
0,168,180,180,180,168,0,180,0,180,f,abs,resp,freq_bottom,,,,,0,40,40,761,,,,,,,,,,,0.7680106506266534,,,,,,,,,,,,,,,,,,,,,733.4446696916284,734.0167816100802,734.0167963628619,734.7907426935244,734.7907574463063,885.6701191383349,885.6701191383349,887.1605038524003,887.1605038524003,887.1605038524003,887.1605038524003,737.8312769238269,None,0,,,737.831710206616,738.3369599519701,738.3369772704532,738.3377007981896,888.6342233750772,888.6342233750772,888.6841833501387,,,,CIW,001,2,28,F,2024-02-15_16h49.45.708,eye_track_exp,2023.1.3,120.098912273206,
180,180,0,180,0,-168,0,0,180,-168,f,abs,resp,freq_bottom,,,,,0,41,41,939,,,,,,,,,,,0.7169494598392114,,,,,,,,,,,,,,,,,,,,,738.3386289405962,738.3400567533104,738.3400721475175,739.0705426714594,739.0705580656665,889.9414484537801,889.9414484537801,,,,,739.9210267551321,f,1,0.8011695525466962,None,739.9215831915783,739.9224071023741,739.9224176858913,757.7128005398235,,,,,,,CIW,001,2,28,F,2024-02-15_16h49.45.708,eye_track_exp,2023.1.3,120.098912273206,
180,0,90,180,180,180,-12,180,-168,0,None,present,inhibit,freq_bottom,,,,,0,42,42,7,,,,,,,,,,,0.7341496141485829,,,,,,,,,,,,,,,,,,,,,757.7133627490975,762.7261210189938,762.7261360924883,763.4664021428737,763.4664152920923,914.337199524319,914.337199524319,915.8275752584302,915.8275752584302,915.8275752584302,915.8275752584302,766.4973355193108,None,1,,,766.4977303165817,766.4977707263756,766.4977800270424,766.4983361427762,917.3179561239438,917.3179561239438,,,,,CIW,001,2,28,F,2024-02-15_16h49.45.708,eye_track_exp,2023.1.3,120.098912273206,
180,0,180,-12,180,90,180,180,12,0,j,present,resp,freq_bottom,,,,,0,43,43,546,,,,,,,,,,,0.7249353919448128,,,,,,,,,,,,,,,,,,,,,766.4988319645317,766.7134131009834,766.7134268916273,767.4371217194303,767.4371348686489,918.3087731586604,918.3087731586604,919.7991636455536,919.7991636455536,919.7991636455536,919.7991636455536,769.8287372003581,j,1,2.3526083336336683,None,769.8292551512866,769.8292942782298,769.8293035788965,769.8295614318665,,,,,,,CIW,001,2,28,F,2024-02-15_16h49.45.708,eye_track_exp,2023.1.3,120.098912273206,
0,180,0,180,180,168,0,0,90,12,None,present,inhibit,freq_bottom,,,,,0,44,44,40,,,,,,,,,,,0.9273493265546532,,,,,,,,,,,,,,,,,,,,,769.830042821553,770.152165323522,770.1521800763039,771.0846729500688,771.0846867407129,921.9556505720232,921.9556505720232,923.4460368896516,923.4460368896516,923.4460368896516,923.4460368896516,774.1163433241738,None,1,,,774.1167313864792,774.1167705134224,774.1167798140893,774.1173266291562,924.9364260936943,924.9364260936943,,,,,CIW,001,2,28,F,2024-02-15_16h49.45.708,eye_track_exp,2023.1.3,120.098912273206,
0,180,0,0,168,180,180,0,-168,180,f,abs,resp,freq_bottom,,,,,0,45,45,920,,,,,,,,,,,0.9610467396257807,,,,,,,,,,,,,,,,,,,,,774.1178128295321,774.1490980277454,774.1491092526883,775.1141724202516,775.1141855694702,925.9855191824649,925.9855191824649,927.4759292328297,927.4759292328297,927.4759292328297,927.4759292328297,777.4383792337276,f,1,2.2755122199011453,None,777.4388933361042,777.4389331044727,777.4389424051396,777.4393016033066,,,,,,,CIW,001,2,28,F,2024-02-15_16h49.45.708,eye_track_exp,2023.1.3,120.098912273206,
180,180,180,180,12,270,0,0,0,168,None,present,inhibit,freq_bottom,,,,,0,46,46,148,,,,,,,,,,,0.7138199413980845,,,,,,,,,,,,,,,,,,,,,777.4397836344183,777.7794657953546,777.779479906711,778.4950209361218,778.495034406053,929.3659555825809,929.3659555825809,930.8563342031059,930.8563342031059,930.8563342031059,930.8563342031059,781.5256958181635,None,1,,,781.5260777869287,781.5261165931593,781.526125893826,781.526681688847,932.3467291799761,932.3467291799761,,,,,CIW,001,2,28,F,2024-02-15_16h49.45.708,eye_track_exp,2023.1.3,120.098912273206,
180,12,0,0,0,270,0,168,180,180,None,present,inhibit,freq_bottom,,,,,0,47,47,254,,,,,,,,,,,0.8211852038177339,,,,,,,,,,,,,,,,,,,,,781.5277005929336,781.7843563425415,781.7843691710475,782.6075971695184,782.6076116015877,933.4790548983085,933.4790548983085,934.9694431402129,934.9694431402129,934.9694431402129,934.9694431402129,785.6392200781513,None,1,,,785.6396472673998,785.6396867150559,785.63969569501,785.6403444966993,936.4598679433595,936.4598679433595,,,,,CIW,001,2,28,F,2024-02-15_16h49.45.708,eye_track_exp,2023.1.3,120.098912273206,
-168,180,180,180,180,180,12,180,180,180,None,abs,inhibit,freq_bottom,,,,,0,48,48,354,,,,,,,,,,,1.0115729275289125,,,,,,,,,,,,,,,,,,,,,785.6408464119952,785.8395686286583,785.8395820985895,786.8538884484435,786.8539019183747,937.7254433531662,937.7254433531662,939.2158588556458,939.2158588556458,939.2158588556458,939.2158588556458,789.8851428582425,None,1,,,789.8855341276744,789.8855726131924,789.8855815931465,789.8860546443041,940.7062172712742,940.7062172712742,,,,,CIW,001,2,28,F,2024-02-15_16h49.45.708,eye_track_exp,2023.1.3,120.098912273206,
0,0,0,180,-168,0,0,90,0,12,None,present,inhibit,freq_bottom,,,,,0,49,49,313,,,,,,,,,,,0.7295635285624553,,,,,,,,,,,,,,,,,,,,,789.8865408446802,790.293919673027,790.2939331429584,791.0261647000566,791.026178169988,941.896865226282,941.896865226282,943.3872364704162,943.3872364704162,943.3872364704162,943.3872364704162,794.0569935241701,None,1,,,794.0573892835791,794.0574284105223,794.0574377111893,794.0579938269229,944.8776519728958,944.8776519728958,,,,,CIW,001,2,28,F,2024-02-15_16h49.45.708,eye_track_exp,2023.1.3,120.098912273206,
12,0,180,-12,0,90,0,180,0,180,j,present,resp,freq_bottom,,,,,0,50,50,709,,,,,,,,,,,1.0995211175536277,,,,,,,,,,,,,,,,,,,,,794.0584787444484,794.1731649463641,794.1731784162953,795.2722542507254,795.2722677206566,946.1432039706792,946.1432039706792,,,,,796.3726703433165,j,1,1.0603566870947247,None,796.3732001606129,796.3732402496939,796.3732495503609,796.3738079110831,,,,,,,CIW,001,2,28,F,2024-02-15_16h49.45.708,eye_track_exp,2023.1.3,120.098912273206,
180,168,180,0,180,168,0,90,180,0,f,present,resp,freq_bottom,,,,,0,51,51,508,,,,,,,,,,,0.9265550104532302,,,,,,,,,,,,,,,,,,,,,796.3742995635741,805.538718355283,805.5387324666394,806.4707801912473,806.4707939818913,957.3419441472506,957.3419441472506,958.8323365584197,958.8323365584197,958.8323365584197,958.8323365584197,809.5021766767497,None,0,,,809.502563135492,810.0085986268366,810.0086101724921,810.0091021456958,960.3227177446461,960.3227177446461,960.3560468445723,,,,CIW,001,2,28,F,2024-02-15_16h49.45.708,eye_track_exp,2023.1.3,120.098912273206,
12,0,0,0,0,168,180,0,0,180,None,abs,inhibit,freq_bottom,,,,,0,52,52,401,,,,,,,,,,,0.7773891312902554,,,,,,,,,,,,,,,,,,,,,810.009618493061,810.5680667698077,810.5680808811644,811.3501890280354,811.3502028186792,962.2210973760573,962.2210973760573,963.7114747137318,963.7114747137318,963.7114747137318,963.7114747137318,814.3808087475015,None,1,,,814.38119231983,814.381938297452,814.3819485602567,814.3825245601747,965.2018655213376,965.2018655213376,,,,,CIW,001,2,28,F,2024-02-15_16h49.45.708,eye_track_exp,2023.1.3,120.098912273206,
-168,0,0,0,0,0,0,12,0,0,None,abs,inhibit,freq_bottom,,,,,0,53,53,353,,,,,,,,,,,0.9073531596643523,,,,,,,,,,,,,,,,,,,,,814.3830062705738,815.0306912383869,815.0307053497436,815.9372779064904,815.9372926592723,966.8088257555348,966.8088257555348,968.2992348437615,968.2992348437615,968.2992348437615,968.2992348437615,818.9692112649677,None,1,,,818.969599327273,818.9696371713658,818.969663469803,818.970287897331,969.7895842794355,969.7895842794355,,,,,CIW,001,2,28,F,2024-02-15_16h49.45.708,eye_track_exp,2023.1.3,120.098912273206,
180,0,12,0,0,12,180,180,90,0,j,present,resp,freq_bottom,,,,,0,54,54,649,,,,,,,,,,,0.9160907280503932,,,,,,,,,,,,,,,,,,,,,818.9707753805576,819.2438092837331,819.2438227536645,820.1588165831531,820.1588306945096,971.0301813052747,971.0301813052747,,,,,821.3432686904916,j,1,1.1484397747621529,None,821.3438446904097,821.3438886280426,821.3438979287093,821.3444155589252,,,,,,,CIW,001,2,28,F,2024-02-15_16h49.45.708,eye_track_exp,2023.1.3,120.098912273206,
180,0,0,168,180,168,0,270,180,180,f,present,resp,freq_bottom,,,,,0,55,55,491,,,,,,,,,,,0.9640578095972347,,,,,,,,,,,,,,,,,,,,,821.3449299820145,823.7229411530775,823.7229559058592,824.688474806097,824.6884882760285,975.5596535148823,975.5596535148823,,,,,825.6218509224977,f,1,0.8903177269220919,None,825.62238747476,825.6224320538181,825.6224413544849,825.6230212029545,,,,,,,CIW,001,2,28,F,2024-02-15_16h49.45.708,eye_track_exp,2023.1.3,120.098912273206,
0,180,0,180,180,12,180,90,180,168,None,present,inhibit,freq_bottom,,,,,0,56,56,41,,,,,,,,,,,0.9798523895258509,,,,,,,,,,,,,,,,,,,,,825.6235221561126,828.119073550956,828.1190879830253,829.1013663641704,829.1013801548145,979.9725421865419,979.9725421865419,981.4629143928139,981.4629143928139,981.4629143928139,981.4629143928139,832.1330530946204,None,1,,,832.1334478918916,832.1334863774096,832.1334953573637,832.1339632771187,982.9532962204655,982.9532962204655,,,,,CIW,001,2,28,F,2024-02-15_16h49.45.708,eye_track_exp,2023.1.3,120.098912273206,
180,0,180,-12,180,180,-12,180,180,270,j,present,resp,freq_bottom,,,,,0,57,57,545,,,,,,,,,,,0.8880255064171139,,,,,,,,,,,,,,,,,,,,,832.1344594195871,832.4568484337676,832.4568622244117,833.348040253286,833.3480543646426,984.2188841380655,984.2188841380655,,,,,834.4318152079372,j,1,1.0468585331167901,None,834.4323581744522,834.432397622108,834.432406922775,834.4330954928328,,,,,,,CIW,001,2,28,F,2024-02-15_16h49.45.708,eye_track_exp,2023.1.3,120.098912273206,
-168,0,180,180,180,90,180,180,12,180,None,present,inhibit,freq_bottom,,,,,0,58,58,26,,,,,,,,,,,0.9180549475156986,,,,,,,,,,,,,,,,,,,,,834.4335762410938,834.7304143992283,834.7304275484469,835.6539792742658,835.6539924234844,986.525238481926,986.525238481926,988.0239479342256,988.0239479342256,988.0239479342256,988.0239479342256,838.6851422809596,None,1,,,838.6855393232192,838.685578770875,838.685588071542,838.68605150132,989.4976796439832,989.4976796439832,,,,,CIW,001,2,28,F,2024-02-15_16h49.45.708,eye_track_exp,2023.1.3,120.098912273206,
180,180,180,0,168,0,168,0,270,180,f,present,resp,freq_bottom,,,,,0,59,59,553,,,,,,,,,,,0.7698769040878986,,,,,,,,,,,,,,,,,,,,,838.6865344945697,839.051884571669,839.0518986830255,839.825836675159,839.8258511072283,990.7049652090918,990.7049652090918,,,,,841.0011366056285,f,1,1.1202844112921753,None,841.0016513494306,841.0016904763738,841.001699456328,841.0021587168414,,,,,,,CIW,001,2,28,F,2024-02-15_16h49.45.708,eye_track_exp,2023.1.3,120.098912273206,
0,-168,180,180,0,270,0,-168,0,0,f,present,resp,freq_bottom,,,,,0,60,60,599,,,,,,,,,,,0.7660366719847287,,,,,,,,,,,,,,,,,,,,,841.0026401065279,841.5495661399282,841.5495792891468,842.3150068504222,842.3150203203534,993.1861862006326,993.1861862006326,,,,,843.7480898354615,f,1,1.3913379138593314,None,843.7486462719078,843.7486857195638,843.7486953409432,843.7494265657833,,,,,,,CIW,001,2,28,F,2024-02-15_16h49.45.708,eye_track_exp,2023.1.3,120.098912273206,
180,180,180,0,12,0,0,0,0,168,None,abs,inhibit,freq_bottom,,,,,0,61,61,411,,,,,,,,,,,0.7336701178910792,,,,,,,,,,,,,,,,,,,,,843.7499095590329,844.2723517473707,844.2723655380146,845.0043632955919,845.0043767655231,995.8755262894572,995.8755262894572,997.3659648832477,997.3659648832477,997.3659648832477,997.3659648832477,848.035936493764,None,1,,,848.0363418745526,848.0363803600706,848.0363896607373,848.0367536695942,998.8563216953128,998.8563216953128,,,,,CIW,001,2,28,F,2024-02-15_16h49.45.708,eye_track_exp,2023.1.3,120.098912273206,
0,0,0,0,12,180,180,180,90,168,None,present,inhibit,freq_bottom,,,,,0,62,62,168,,,,,,,,,,,0.7756889881991953,,,,,,,,,,,,,,,,,,,,,848.0372514156256,848.2860144269378,848.2860275761564,849.0681671528671,849.0681892820398,999.9387195098484,999.9387195098484,1001.4291103174542,1001.4291103174542,1001.4291103174542,1001.4291103174542,852.0984703289485,None,1,,,852.0988471663113,852.0988872553924,852.0988962353467,852.0995399056335,1002.919492786531,1002.919492786531,,,,,CIW,001,2,28,F,2024-02-15_16h49.45.708,eye_track_exp,2023.1.3,120.098912273206,
0,180,168,0,0,0,0,180,168,180,f,abs,resp,freq_bottom,,,,,0,63,63,971,,,,,,,,,,,0.922170013093655,,,,,,,,,,,,,,,,,,,,,852.1000251438716,858.0937202539017,858.0937340445457,859.0173454229173,859.0173588928485,1009.8885254145532,1009.8885254145532,1011.3789072422048,1011.3789072422048,1011.3789072422048,1011.3789072422048,860.8424906416049,f,1,1.7753743134621232,None,860.8430275145795,860.8430663208101,860.843075621477,860.8435813853246,,,,,,,CIW,001,2,28,F,2024-02-15_16h49.45.708,eye_track_exp,2023.1.3,120.098912273206,
0,0,168,180,180,180,180,0,0,168,f,abs,resp,freq_bottom,,,,,0,64,64,784,,,,,,,,,,,1.076640571478721,,,,,,,,,,,,,,,,,,,,,860.8440608507351,861.3992808339556,861.3992943038868,862.481096555033,862.4811100249642,1013.3522242705069,1013.3522242705069,,,,,863.4310454975791,f,1,0.9043848251396298,None,863.4315634485076,863.431601613313,863.4316105932671,863.4320801165854,,,,,,,CIW,001,2,28,F,2024-02-15_16h49.45.708,eye_track_exp,2023.1.3,120.098912273206,
180,180,12,180,180,90,180,168,0,0,None,present,inhibit,freq_bottom,,,,,0,65,65,34,,,,,,,,,,,0.9363976826346332,,,,,,,,,,,,,,,,,,,,,863.4325698448008,865.3540006978708,865.3540154506525,866.2947888043063,866.2948025949502,1017.1656076734992,1017.1656076734992,1018.6559946325531,1018.6559946325531,1018.6559946325531,1018.6559946325531,869.3254431607386,None,1,,,869.3258209602393,869.3258600871825,869.3258693878493,869.3264332006866,1020.1463796673311,1020.1463796673311,,,,,CIW,001,2,28,F,2024-02-15_16h49.45.708,eye_track_exp,2023.1.3,120.098912273206,
0,0,168,0,0,0,270,0,0,168,f,present,resp,freq_bottom,,,,,0,66,66,645,,,,,,,,,,,0.794967351507575,,,,,,,,,,,,,,,,,,,,,869.3269200424879,869.6004860079486,869.6004994778798,870.3990172081578,870.399030678089,1021.2704233022114,1021.2704233022114,,,,,871.4493902611114,f,1,1.0013670473962861,None,871.4499072499018,871.4499457354198,871.4499547153739,871.4505509201888,,,,,,,CIW,001,2,28,F,2024-02-15_16h49.45.708,eye_track_exp,2023.1.3,120.098912273206,
180,180,168,0,168,180,270,0,180,180,f,present,resp,freq_bottom,,,,,0,67,67,556,,,,,,,,,,,0.819134108397693,,,,,,,,,,,,,,,,,,,,,871.4510425726799,873.8807446049718,873.8807593577537,874.704094794962,874.7041079441806,1025.5750502877434,1025.5750502877434,,,,,875.9702994429863,f,1,1.224612877490415,None,875.9708744807663,875.9709126455714,875.9709219462384,875.9713898659934,,,,,,,CIW,001,2,28,F,2024-02-15_16h49.45.708,eye_track_exp,2023.1.3,120.098912273206,
180,0,180,0,180,12,180,90,0,168,None,present,inhibit,freq_bottom,,,,,0,68,68,125,,,,,,,,,,,1.0140610537335633,,,,,,,,,,,,,,,,,,,,,875.9718828013351,877.3098831451391,877.3098972564958,878.3255890849939,878.325602875638,1029.1969429028857,1029.1969429028857,1030.6873346726293,1030.6873346726293,1030.6873346726293,1030.6873346726293,881.3571584346143,None,1,,,881.3575622118396,881.3576006973576,881.3576096773118,881.3579647062143,1032.1777200281201,1032.1777200281201,,,,,CIW,001,2,28,F,2024-02-15_16h49.45.708,eye_track_exp,2023.1.3,120.098912273206,
180,-168,0,180,180,180,168,180,0,180,f,abs,resp,freq_bottom,,,,,0,69,69,810,,,,,,,,,,,0.8239102315231446,,,,,,,,,,,,,,,,,,,,,881.3584579622689,881.6396838286419,881.6396969778605,882.4636828203213,882.4636962902525,1033.3350648609262,1033.3350648609262,,,,,883.5473003050618,f,1,1.0484370807759547,None,883.5478160110017,883.5478551379449,883.5478644386117,883.5485145231517,,,,,,,CIW,001,2,28,F,2024-02-15_16h49.45.708,eye_track_exp,2023.1.3,120.098912273206,
12,180,0,180,180,90,180,180,-12,0,j,present,resp,freq_bottom,,,,,0,70,70,459,,,,,,,,,,,0.9535602458307346,,,,,,,,,,,,,,,,,,,,,883.5490132313209,884.0548450701335,884.0548588607774,885.0115049248634,885.0115187155072,1035.8828734955368,1035.8828734955368,1037.3732979779709,1037.3732979779709,1037.3732979779709,1037.3732979779709,888.043400439248,None,0,,,888.0438022921974,888.5495080909386,888.5495189951687,888.5501860774791,1038.863653827898,1038.863653827898,1038.8969656093411,,,,CIW,001,2,28,F,2024-02-15_16h49.45.708,eye_track_exp,2023.1.3,120.098912273206,
180,0,180,0,180,168,180,0,180,168,f,abs,resp,freq_bottom,,,,,0,71,71,858,,,,,,,,,,,0.7214501456319963,,,,,,,,,,,,,,,,,,,,,888.5507174983386,888.551686050539,888.5516969547693,889.274327016577,889.2743401657956,1040.1458787141733,1040.1458787141733,1041.636274011756,1041.636274011756,1041.636274011756,1041.636274011756,890.8162990016856,f,1,1.5010007935508725,None,890.8168131040622,890.8175379146494,890.8175484981668,890.8181427787056,,,,,,,CIW,001,2,28,F,2024-02-15_16h49.45.708,eye_track_exp,2023.1.3,120.098912273206,
180,180,12,180,180,90,180,168,0,0,None,present,inhibit,freq_bottom,,,,,0,72,72,33,,,,,,,,,,,0.8839057789604996,,,,,,,,,,,,,,,,,,,,,890.8186110191734,891.3237401765716,891.3237539672155,892.2141042367423,892.2141180273863,1043.0850282996842,1043.0850282996842,1044.5754165415888,1044.5754165415888,1044.5754165415888,1044.5754165415888,895.2448932924874,None,1,,,895.2452835997815,895.2453224060118,895.2453317066788,895.2460594036797,1046.065806707769,1046.065806707769,,,,,CIW,001,2,28,F,2024-02-15_16h49.45.708,eye_track_exp,2023.1.3,120.098912273206,
0,0,12,0,0,0,-168,0,0,0,None,abs,inhibit,freq_bottom,,,,,0,73,73,395,,,,,,,,,,,0.7889421337394077,,,,,,,,,,,,,,,,,,,,,895.2465491318949,895.4703174028946,895.4703302314006,896.2603253437399,896.2603388136711,1047.1315521594224,1047.1315521594224,1048.6219436084534,1048.6219436084534,1048.6219436084534,1048.6219436084534,899.291579432826,None,1,,,899.2919575530395,899.2919966799827,899.2920056599369,899.2925633792338,1050.112331850358,1050.112331850358,,,,,CIW,001,2,28,F,2024-02-15_16h49.45.708,eye_track_exp,2023.1.3,120.098912273206,
0,0,-168,180,180,-168,0,0,0,0,f,abs,resp,freq_bottom,,,,,0,74,74,815,,,,,,,,,,,1.0919820426401983,,,,,,,,,,,,,,,,,,,,,899.29304476892,899.8492390771685,899.8492531885252,900.9477472502097,900.9477620029916,1051.8192001683099,1051.8192001683099,,,,,901.7487610870362,f,1,0.7545645525082705,None,901.7492767929762,901.7493155992067,901.7493245791609,901.7495946192114,,,,,,,CIW,001,2,28,F,2024-02-15_16h49.45.708,eye_track_exp,2023.1.3,120.098912273206,
180,0,180,0,180,12,180,90,0,168,None,present,inhibit,freq_bottom,,,,,0,75,75,119,,,,,,,,,,,0.8019660551424451,,,,,,,,,,,,,,,,,,,,,901.7500728017712,902.330834340371,902.330848131015,903.1378483901508,903.137861860082,1054.0089882927055,1054.0089882927055,1055.499380062449,1055.499380062449,1055.499380062449,1055.499380062449,906.1687355839665,None,1,,,906.1691274948237,906.1691659803416,906.1691752810084,906.1698029156628,1056.9897622108133,1056.9897622108133,,,,,CIW,001,2,28,F,2024-02-15_16h49.45.708,eye_track_exp,2023.1.3,120.098912273206,
180,0,180,-12,180,180,0,270,180,-12,j,present,resp,freq_bottom,,,,,0,76,76,544,,,,,,,,,,,0.7756651369549049,,,,,,,,,,,,,,,,,,,,,906.1703093209358,906.37780623568,906.377819064186,907.1597447255597,907.1597585162037,1058.0305395413038,1058.0305395413038,1059.5209207275302,1059.5209207275302,1059.5209207275302,1059.5209207275302,908.717943167153,j,1,1.518838189672067,None,908.7184511759892,908.7184890200817,908.7184980000359,908.7191092783453,,,,,,,CIW,001,2,28,F,2024-02-15_16h49.45.708,eye_track_exp,2023.1.3,120.098912273206,
0,90,180,180,180,12,0,0,-168,0,None,present,inhibit,freq_bottom,,,,,0,77,77,8,,,,,,,,,,,0.953847492130993,,,,,,,,,,,,,,,,,,,,,908.7195752738244,909.566623242174,909.5666373535305,910.5235361391842,910.5235496091154,1061.3943178057098,1061.3943178057098,1062.8847028404878,1062.8847028404878,1062.8847028404878,1062.8847028404878,913.5545561080364,None,1,,,913.5549345489626,913.5549746380436,913.5549839387106,913.5555317159153,1064.3750881959784,1064.3750881959784,,,,,CIW,001,2,28,F,2024-02-15_16h49.45.708,eye_track_exp,2023.1.3,120.098912273206,
180,180,12,0,-168,180,270,0,180,180,None,present,inhibit,freq_bottom,,,,,0,78,78,321,,,,,,,,,,,0.779445894137476,,,,,,,,,,,,,,,,,,,,,913.5560217648433,913.5567193148552,913.5567292569472,914.3364275689723,914.3364410389038,1065.207701850127,1065.207701850127,1066.6980965062846,1066.6980965062846,1066.6980965062846,1066.6980965062846,917.3675299609756,None,1,,,917.3679093640396,917.3679500945461,917.3679590745003,917.3684209007151,1068.1884828239133,1068.1884828239133,,,,,CIW,001,2,28,F,2024-02-15_16h49.45.708,eye_track_exp,2023.1.3,120.098912273206,
0,0,0,180,180,-12,0,-12,0,270,j,present,resp,freq_bottom,,,,,0,79,79,471,,,,,,,,,,,0.9576316736486896,,,,,,,,,,,,,,,,,,,,,917.368905497528,917.6260304497418,917.6260432782476,918.5829991507528,918.5830122999714,1069.4540704208007,1069.4540704208007,1070.944435892107,1070.944435892107,1070.944435892107,1070.944435892107,920.4406412200422,j,1,1.8227615316517927,None,920.4411854694079,920.4412255584889,920.4412345384433,920.4418560795573,,,,,,,CIW,001,2,28,F,2024-02-15_16h49.45.708,eye_track_exp,2023.1.3,120.098912273206,
180,180,180,180,180,-168,0,-168,0,0,f,abs,resp,freq_bottom,,,,,0,80,80,748,,,,,,,,,,,0.8515216785647811,,,,,,,,,,,,,,,,,,,,,920.4423397142323,921.3643529814731,921.3643674135424,922.22169454301,922.2217076922286,1073.092612191699,1073.092612191699,,,,,923.2878274155435,f,1,1.0167285418658025,None,923.288336065805,923.2883758341736,923.2883851348404,923.2889380434476,,,,,,,CIW,001,2,28,F,2024-02-15_16h49.45.708,eye_track_exp,2023.1.3,120.098912273206,
180,180,0,0,0,168,180,180,12,180,None,abs,inhibit,freq_bottom,,,,,0,81,81,399,,,,,,,,,,,0.891589392104719,,,,,,,,,,,,,,,,,,,,,923.2894165467201,925.8103478577677,925.8103616484116,926.7007186529042,926.7007321228355,1077.5721074284747,1077.5721074284747,1079.0624652026775,1079.0624652026775,1079.0624652026775,1079.0624652026775,929.7323957619747,None,1,,,929.7327758064639,929.7328162162578,929.7328251962119,929.7334845814187,1080.5528893643989,1080.5528893643989,,,,,CIW,001,2,28,F,2024-02-15_16h49.45.708,eye_track_exp,2023.1.3,120.098912273206,
0,0,-168,180,180,180,90,0,0,12,None,present,inhibit,freq_bottom,,,,,0,82,82,63,,,,,,,,,,,1.085304222473158,,,,,,,,,,,,,,,,,,,,,929.7339711025074,930.2157273634598,930.2157411541036,931.3053498718432,931.3053633417744,1082.17648400157,1082.17648400157,1083.666859094256,1083.666859094256,1083.666859094256,1083.666859094256,934.3370815020642,None,1,,,934.337465395105,934.3375032391978,934.3375122191519,960.7310404303194,1085.1572521468504,1085.1572521468504,,,,,CIW,001,2,28,F,2024-02-15_16h49.45.708,eye_track_exp,2023.1.3,120.098912273206,
0,0,0,180,-168,0,0,90,0,12,None,present,inhibit,freq_bottom,,,,,0,83,83,311,,,,,,,,,,,0.897244603053821,,,,,,,,,,,,,,,,,,,,,960.7315959046277,961.99622649497,961.9962402856138,962.8947719348209,962.8947857254648,1113.76603467032,1113.76603467032,1115.25641264942,1115.25641264942,1115.25641264942,1115.25641264942,965.9264092755229,None,1,,,965.9267989413916,965.9268393511854,965.9268483311396,965.9273961083445,1116.7467890249566,1116.7467890249566,,,,,CIW,001,2,28,F,2024-02-15_16h49.45.708,eye_track_exp,2023.1.3,120.098912273206,
0,270,0,0,0,-12,0,0,-168,0,None,present,inhibit,freq_bottom,,,,,0,84,84,241,,,,,,,,,,,1.0889828466207498,,,,,,,,,,,,,,,,,,,,,965.9278935336633,966.2586762392978,966.2586903506544,967.3496149523935,967.3496287430373,1118.220536449634,1118.220536449634,1119.7109256536764,1119.7109256536764,1119.7109256536764,1119.7109256536764,970.3805454424166,None,1,,,970.3809357497107,970.3809739145158,970.3809828944702,970.3814299679032,1121.2013180648455,1121.2013180648455,,,,,CIW,001,2,28,F,2024-02-15_16h49.45.708,eye_track_exp,2023.1.3,120.098912273206,
12,0,0,0,0,180,90,180,-168,180,None,present,inhibit,freq_bottom,,,,,0,85,85,263,,,,,,,,,,,1.0672218201311812,,,,,,,,,,,,,,,,,,,,,970.3819212996816,972.844797848403,972.8448116390468,973.9186929291841,973.918707681966,1124.789880938636,1124.789880938636,1126.2802820090467,1126.2802820090467,1126.2802820090467,1126.2802820090467,976.9499447732817,None,1,,,976.9503180828053,976.9503565683233,976.9503655482774,976.9508180738255,1127.7706561395946,1127.7706561395946,,,,,CIW,001,2,28,F,2024-02-15_16h49.45.708,eye_track_exp,2023.1.3,120.098912273206,
0,270,0,180,180,180,12,180,0,-12,j,present,resp,freq_bottom,,,,,0,86,86,455,,,,,,,,,,,1.0301847063837954,,,,,,,,,,,,,,,,,,,,,976.9512815036035,976.9520242740989,976.9520342161911,977.9816254101916,977.981639521548,1128.8530815354181,1128.8530815354181,,,,,979.2821559330557,j,1,1.2530950471497704,None,979.282670356145,979.2827101245134,979.2827194251802,979.2829917102194,,,,,,,CIW,001,2,28,F,2024-02-15_16h49.45.708,eye_track_exp,2023.1.3,120.098912273206,
12,0,0,180,180,12,180,180,90,0,j,present,resp,freq_bottom,,,,,0,87,87,470,,,,,,,,,,,0.9673868339488514,,,,,,,,,,,,,,,,,,,,,979.2834721377678,979.7809106058389,979.780924396483,980.7546487298496,980.7546618790682,1131.6257058885408,1131.6257058885408,,,,,981.9215767773253,j,1,1.1207087141269199,None,981.9221870934966,981.922225258302,981.9222345589687,981.9227733562193,,,,,,,CIW,001,2,28,F,2024-02-15_16h49.45.708,eye_track_exp,2023.1.3,120.098912273206,
0,180,0,168,180,180,12,0,270,180,None,present,inhibit,freq_bottom,,,,,0,88,88,75,,,,,,,,,,,1.0504959565806997,,,,,,,,,,,,,,,,,,,,,981.9232611601587,982.1204805173479,982.1204933458539,983.1773880905282,983.1774022018847,1134.0486161890612,1134.0486161890612,1135.5390041102532,1135.5390041102532,1135.5390041102532,1135.5390041102532,986.2091277385653,None,1,,,986.2095170837213,986.2095574935151,986.2095667941819,986.2100113019137,1137.0293897864567,1137.0293897864567,,,,,CIW,001,2,28,F,2024-02-15_16h49.45.708,eye_track_exp,2023.1.3,120.098912273206,
0,168,180,180,0,0,90,0,12,0,None,present,inhibit,freq_bottom,,,,,0,89,89,183,,,,,,,,,,,0.7674491193180459,,,,,,,,,,,,,,,,,,,,,986.2105161036236,986.6167759655375,986.6167891147561,987.3906334587962,987.39064724944,1138.2616678468892,1138.2616678468892,1139.7520669930238,1139.7520669930238,1139.7520669930238,1139.7520669930238,990.4216848574881,None,1,,,990.4220636191267,990.4221033874953,990.4221126881621,990.422553347342,1141.2424411235718,1141.2424411235718,,,,,CIW,001,2,28,F,2024-02-15_16h49.45.708,eye_track_exp,2023.1.3,120.098912273206,
180,0,180,0,0,12,180,180,180,168,None,abs,inhibit,freq_bottom,,,,,0,90,90,414,,,,,,,,,,,0.9058066179728431,,,,,,,,,,,,,,,,,,,,,990.423029605626,990.8379092614116,990.8379224106302,991.7450908514793,991.7451046421231,1142.616262825299,1142.616262825299,1144.1066501050655,1144.1066501050655,1144.1066501050655,1144.1066501050655,994.7761990163101,None,1,,,994.7765829093512,994.7766210741565,994.7766297333981,994.777105991682,1145.5970412333838,1145.5970412333838,,,,,CIW,001,2,28,F,2024-02-15_16h49.45.708,eye_track_exp,2023.1.3,120.098912273206,
0,168,0,0,0,0,168,0,0,0,f,abs,resp,freq_bottom,,,,,0,91,91,994,,,,,,,,,,,0.7474822460816207,,,,,,,,,,,,,,,,,,,,,994.7775925127708,995.025749377176,995.0257618849694,995.7751948650057,995.7752083349369,1146.6461445849593,1146.6461445849593,,,,,997.041601561999,f,1,1.2190331188202777,None,997.0421243236169,997.0421621677096,997.0421714683764,997.0429071831936,,,,,,,CIW,001,2,28,F,2024-02-15_16h49.45.708,eye_track_exp,2023.1.3,120.098912273206,
0,0,168,0,0,0,0,0,0,168,f,abs,resp,freq_bottom,,,,,0,92,92,984,,,,,,,,,,,1.0811031775904412,,,,,,,,,,,,,,,,,,,,,997.0433741408108,998.431235038755,998.4312488293988,999.513326251998,999.5133397219292,1150.392929761364,1150.392929761364,,,,,1000.454839810446,f,1,0.8964965768208799,None,1000.455350705696,1000.455389191214,1000.4553984918807,1000.4560633292026,,,,,,,CIW,001,2,28,F,2024-02-15_16h49.45.708,eye_track_exp,2023.1.3,120.098912273206,
0,180,180,0,0,0,-168,0,-168,180,f,abs,resp,freq_bottom,,,,,0,93,93,957,,,,,,,,,,,1.0423478274635691,,,,,,,,,,,,,,,,,,,,,1000.4565495295788,1002.7022455658268,1002.7022593564709,1003.7515974697055,1003.7516112603494,1154.6226337820744,1154.6226337820744,,,,,1004.5023235631431,f,1,0.7140739391260809,None,1004.5028527390143,1004.5028921866701,1004.5029011666243,1004.5033636342644,,,,,,,CIW,001,2,28,F,2024-02-15_16h49.45.708,eye_track_exp,2023.1.3,120.098912273206,
180,12,0,180,180,180,-168,180,270,0,None,present,inhibit,freq_bottom,,,,,0,94,94,47,,,,,,,,,,,0.8491772697229067,,,,,,,,,,,,,,,,,,,,,1004.5038495139279,1005.5165962381689,1005.5166103495255,1006.3659777117537,1006.3659911816849,1157.2370332668816,1157.2370332668816,1158.7274330544417,1158.7274330544417,1158.7274330544417,1158.7274330544417,1009.3973174311172,None,1,,,1009.3977237740437,1009.3977632216997,1009.3977722016539,1009.3984723173669,1160.2178286727371,1160.2178286727371,,,,,CIW,001,2,28,F,2024-02-15_16h49.45.708,eye_track_exp,2023.1.3,120.098912273206,
180,180,180,12,0,180,-168,180,270,0,None,present,inhibit,freq_bottom,,,,,0,95,95,212,,,,,,,,,,,0.7579070707945427,,,,,,,,,,,,,,,,,,,,,1009.398964931996,1009.3998029541483,1009.3998125755279,1010.1541251985211,1010.1541466862686,1161.0254620186424,1161.0254620186424,1162.5158592405012,1162.5158592405012,1162.5158592405012,1162.5158592405012,1013.1854767842528,None,1,,,1013.1858597151559,1013.1858991628117,1013.1859081427658,1013.1864562406834,1164.0062551795093,1164.0062551795093,,,,,CIW,001,2,28,F,2024-02-15_16h49.45.708,eye_track_exp,2023.1.3,120.098912273206,
0,0,12,0,0,0,-168,0,90,0,None,present,inhibit,freq_bottom,,,,,0,96,96,228,,,,,,,,,,,1.002666784729626,,,,,,,,,,,,,,,,,,,,,1013.186948213887,1013.5269918179788,1013.5270049671974,1014.5339968236619,1014.5340102935932,1165.4050334567435,1165.4050334567435,1166.8954374135678,1166.8954374135678,1166.8954374135678,1166.8954374135678,1017.5653782356699,None,1,,,1017.565773032941,1017.5658118391716,1017.5658204984131,1017.5663843112504,1168.385813147679,1168.385813147679,,,,,CIW,001,2,28,F,2024-02-15_16h49.45.708,eye_track_exp,2023.1.3,120.098912273206,
180,168,0,180,180,180,168,0,180,0,f,abs,resp,freq_bottom,,,,,0,97,97,801,,,,,,,,,,,1.0986704467374895,,,,,,,,,,,,,,,,,,,,,1017.5668945650752,1018.0064848097661,1018.0064982796973,1019.1050677088544,1019.1050824616364,1169.9844415879638,1169.9844415879638,,,,,1019.9804160027916,f,1,0.8241245604107803,None,1019.9809323501565,1019.9809714770997,1019.9809804570539,1019.9814413211309,,,,,,,CIW,001,2,28,F,2024-02-15_16h49.45.708,eye_track_exp,2023.1.3,120.098912273206,
-168,180,180,180,180,270,0,-168,0,0,f,present,resp,freq_bottom,,,,,0,98,98,424,,,,,,,,,,,0.7084401084442582,,,,,,,,,,,,,,,,,,,,,1019.98192303153,1021.7529290686248,1021.7529431799815,1022.4605199521752,1022.4605331013938,1173.3482307565996,1173.3482307565996,,,,,1023.6435538681794,f,1,1.124104740368864,None,1023.6440766297976,1023.644115436028,1023.6441244159823,1023.6446911152334,,,,,,,CIW,001,2,28,F,2024-02-15_16h49.45.708,eye_track_exp,2023.1.3,120.098912273206,
168,180,180,180,180,0,180,168,180,90,f,present,resp,freq_bottom,,,,,0,99,99,421,,,,,,,,,,,0.8320119857214395,,,,,,,,,,,,,,,,,,,,,1023.6451696185059,1024.0179656811808,1024.0179785096868,1024.850017446768,1024.850030275274,1175.721188137737,1175.721188137737,,,,,1025.7831616879234,f,1,0.8947656906534007,None,1025.7837614205773,1025.7837999060953,1025.7838088860494,1025.784305669943,,,,,,,CIW,001,2,28,F,2024-02-15_16h49.45.708,eye_track_exp,2023.1.3,120.098912273206,
180,180,168,0,0,168,180,0,180,0,f,abs,resp,freq_bottom,,,,,0,100,100,963,,,,,,,,,,,0.851405500432847,,,,,,,,,,,,,,,,,,,,,1025.7848114337908,1026.2410832262153,1026.2410966961465,1027.0980469882516,1027.0980601374702,1177.9692555233132,1177.9692555233132,,,,,1028.0983115761871,f,1,0.9506181192177223,None,1028.0988259992764,1028.0988651262196,1028.0988744268864,1028.0993317631242,,,,,,,CIW,001,2,28,F,2024-02-15_16h49.45.708,eye_track_exp,2023.1.3,120.098912273206,
0,180,-168,0,0,0,12,180,90,180,None,present,inhibit,freq_bottom,,,,,0,101,101,284,,,,,,,,,,,0.9064692052683574,,,,,,,,,,,,,,,,,,,,,1028.0998170013625,1028.4139062928953,1028.4139194421139,1029.3211177092394,1029.3211311791706,1180.1923339414045,1180.1923339414045,1181.6827292389873,1181.6827292389873,1181.6827292389873,1181.6827292389873,1032.3525590945128,None,1,,,1032.3529397804273,1032.3529782659452,1032.352987566612,1032.3535343816789,1183.1731184430298,1183.1731184430298,,,,,CIW,001,2,28,F,2024-02-15_16h49.45.708,eye_track_exp,2023.1.3,120.098912273206,
180,180,168,0,168,180,180,0,0,180,f,abs,resp,freq_bottom,,,,,0,102,102,909,,,,,,,,,,,0.8015198860532347,,,,,,,,,,,,,,,,,,,,,1032.354020582055,1032.6937104400947,1032.693723910026,1033.5005490600554,1033.5005618885614,1184.3720904948468,1184.3720904948468,,,,,1034.3844344040003,f,1,0.8356410309294802,None,1034.384944978538,1034.3849841054812,1034.3849930854353,1034.3855661989394,,,,,,,CIW,001,2,28,F,2024-02-15_16h49.45.708,eye_track_exp,2023.1.3,120.098912273206,
180,180,180,12,180,180,270,180,12,180,j,present,resp,freq_bottom,,,,,0,103,103,492,,,,,,,,,,,0.8527899259648488,,,,,,,,,,,,,,,,,,,,,1034.3860488714763,1035.0083856736376,1035.0084004264195,1035.866014914421,1035.8660280636395,1186.7367192891982,1186.7367192891982,1188.2271184353328,1188.2271184353328,1188.2271184353328,1188.2271184353328,1038.8969171817312,None,0,,,1038.8972827941511,1039.4033955772443,1039.4034064814743,1039.4038984546783,1189.717497697283,1189.717497697283,1189.7508210243818,,,,CIW,001,2,28,F,2024-02-15_16h49.45.708,eye_track_exp,2023.1.3,120.098912273206,
0,168,0,0,0,270,0,168,0,0,f,present,resp,freq_bottom,,,,,0,104,104,660,,,,,,,,,,,0.9167392454346748,,,,,,,,,,,,,,,,,,,,,1039.4044154434687,1039.42999356009,1039.4300051057453,1040.345423879494,1040.3454710242536,1191.2245495270129,1191.2245495270129,1192.7066248970511,1192.7066248970511,1192.7066248970511,1192.7066248970511,1042.2525535141126,f,1,1.8548594157179537,None,1042.2530881420987,1042.2538222533526,1042.25383283687,1042.2544668857774,,,,,,,CIW,001,2,28,F,2024-02-15_16h49.45.708,eye_track_exp,2023.1.3,120.098912273206,
0,12,180,180,180,0,12,0,0,270,j,present,resp,freq_bottom,,,,,0,105,105,433,,,,,,,,,,,0.7811868280215664,,,,,,,,,,,,,,,,,,,,,1042.2549518033031,1042.5769745636383,1042.5769877128569,1043.3592379354316,1043.3592514053628,1194.2302947734102,1194.2302947734102,,,,,1044.8262815036035,j,1,1.4251512898858323,None,1044.8268421093142,1044.826882519108,1044.8268914990622,1044.8273613430933,,,,,,,CIW,001,2,28,F,2024-02-15_16h49.45.708,eye_track_exp,2023.1.3,120.098912273206,
-168,0,0,0,0,90,0,12,180,180,None,present,inhibit,freq_bottom,,,,,0,106,106,277,,,,,,,,,,,0.8133205273422165,,,,,,,,,,,,,,,,,,,,,1044.8278417706417,1044.8285932003787,1044.828603142471,1045.6490633907792,1045.649077502136,1196.5199836051693,1196.5199836051693,1198.0103734506372,1198.0103734506372,1198.0103734506372,1198.0103734506372,1048.679923003307,None,1,,,1048.680357248234,1048.6804018272924,1048.6804114486717,1048.681007332774,1199.5007767660363,1199.5007767660363,,,,,CIW,001,2,28,F,2024-02-15_16h49.45.708,eye_track_exp,2023.1.3,120.098912273206,
0,-12,0,-12,0,0,270,180,180,180,j,present,resp,freq_bottom,,,,,0,107,107,716,,,,,,,,,,,0.7437270411978021,,,,,,,,,,,,,,,,,,,,,1048.6815111723458,1048.8218794017812,1048.821892230287,1049.5704448541014,1049.5704586447453,1200.441628694289,1200.441628694289,,,,,1050.737607021811,j,1,1.1325417280303895,None,1050.7381403669465,1050.7381798146025,1050.7381887945567,1050.7387336853476,,,,,,,CIW,001,2,28,F,2024-02-15_16h49.45.708,eye_track_exp,2023.1.3,120.098912273206,
0,0,0,0,-12,0,270,0,12,0,j,present,resp,freq_bottom,,,,,0,108,108,742,,,,,,,,,,,0.8773053809412681,,,,,,,,,,,,,,,,,,,,,1050.7392118679074,1060.1952691035697,1060.1952832149261,1061.0776009154422,1061.077614706086,1211.9567467678578,1211.9567467678578,1213.4471314819234,1213.4471314819234,1213.4471314819234,1213.4471314819234,1062.6269201066305,j,1,1.5059625389462212,None,1062.6274265119036,1062.6274656388468,1062.6274749395136,1062.62783285483,,,,,,,CIW,001,2,28,F,2024-02-15_16h49.45.708,eye_track_exp,2023.1.3,120.098912273206,
180,12,0,0,180,180,12,180,180,270,j,present,resp,freq_bottom,,,,,0,109,109,530,,,,,,,,,,,1.04737940841187,,,,,,,,,,,,,,,,,,,,,1062.6283180930682,1065.3072462457378,1065.3072603570943,1066.3563961006473,1066.3564098912912,1217.2272319676106,1217.2272319676106,,,,,1067.523066295153,j,1,1.130764338528877,None,1067.523593867461,1067.5236336358296,1067.5236429364963,1067.5241153462284,,,,,,,CIW,001,2,28,F,2024-02-15_16h49.45.708,eye_track_exp,2023.1.3,120.098912273206,
168,180,0,0,168,0,180,0,0,180,f,abs,resp,freq_bottom,,,,,0,110,110,917,,,,,,,,,,,0.8219793852264241,,,,,,,,,,,,,,,,,,,,,1067.5245941702137,1069.7956816683215,1069.7956964211035,1070.6191784239923,1070.6191918939237,1221.490231413419,1221.490231413419,1222.9806254281514,1222.9806254281514,1222.9806254281514,1222.9806254281514,1072.3778463247613,f,1,1.7159068119159997,None,1072.3783581821494,1072.3783976298052,1072.378406930472,1072.3789017900897,,,,,,,CIW,001,2,28,F,2024-02-15_16h49.45.708,eye_track_exp,2023.1.3,120.098912273206,
0,0,0,0,12,0,180,180,180,168,None,abs,inhibit,freq_bottom,,,,,0,111,111,345,,,,,,,,,,,0.7352944075528071,,,,,,,,,,,,,,,,,,,,,1072.379382217638,1072.8423713364994,1072.842384485718,1073.5829318010965,1073.5829455917406,1224.4543593828976,1224.4543593828976,1225.9447360791467,1225.9447360791467,1225.9447360791467,1225.9447360791467,1076.6143889012897,None,1,,,1076.6147833778482,1076.6148218633662,1076.6148308433203,1076.6154899078144,1227.4351313767295,1227.4351313767295,,,,,CIW,001,2,28,F,2024-02-15_16h49.45.708,eye_track_exp,2023.1.3,120.098912273206,
0,0,168,0,180,180,180,168,0,0,f,abs,resp,freq_bottom,,,,,0,112,112,875,,,,,,,,,,,0.7992396621785358,,,,,,,,,,,,,,,,,,,,,1076.6159751460525,1080.502351144431,1080.5023655765,1081.301509658582,1081.3015237699387,1232.1727284564486,1232.1727284564486,,,,,1082.435027786544,f,1,1.09665815185366,None,1082.4355800537257,1082.4356207842322,1082.435630084899,1082.4361464322642,,,,,,,CIW,001,2,28,F,2024-02-15_16h49.45.708,eye_track_exp,2023.1.3,120.098912273206,
90,0,0,180,180,12,0,168,0,0,None,present,inhibit,freq_bottom,,,,,0,113,113,56,,,,,,,,,,,0.7576876889500141,,,,,,,,,,,,,,,,,,,,,1082.4366396883186,1084.2326427107146,1084.2326571427839,1084.9903138365698,1084.9903273065013,1235.8612308438335,1235.8612308438335,1237.351630952106,1237.351630952106,1237.351630952106,1237.351630952106,1088.021443809861,None,1,,,1088.0218514356382,1088.0218915247192,1088.0219005046733,1088.022507934431,1238.8419993098264,1238.8419993098264,,,,,CIW,001,2,28,F,2024-02-15_16h49.45.708,eye_track_exp,2023.1.3,120.098912273206,
0,180,0,180,180,12,180,90,180,168,None,present,inhibit,freq_bottom,,,,,0,114,114,43,,,,,,,,,,,0.9111088919188299,,,,,,,,,,,,,,,,,,,,,1088.0229931726692,1088.5211112308439,1088.5211259836258,1089.4364123030502,1089.4364254522688,1240.3074110920393,1240.3074110920393,1241.7978086346109,1241.7978086346109,1241.7978086346109,1241.7978086346109,1092.4672558799457,None,1,,,1092.4676436215386,1092.4676821070564,1092.4676910870105,1092.468454062403,1243.2881862929978,1243.2881862929978,,,,,CIW,001,2,28,F,2024-02-15_16h49.45.708,eye_track_exp,2023.1.3,120.098912273206,
180,180,180,-12,180,180,12,0,270,180,j,present,resp,freq_bottom,,,,,0,115,115,541,,,,,,,,,,,0.8773526026247138,,,,,,,,,,,,,,,,,,,,,1092.4689469977448,1092.7503826101904,1092.7503964008342,1093.6323635624249,1093.632377032356,1244.5038254604792,1244.5038254604792,,,,,1094.8328612443138,j,1,1.1643945876327848,None,1094.8334824647152,1094.8335215916584,1094.8335308923251,1094.8340337697591,,,,,,,CIW,001,2,28,F,2024-02-15_16h49.45.708,eye_track_exp,2023.1.3,120.098912273206,
0,0,12,0,0,0,90,0,0,168,None,present,inhibit,freq_bottom,,,,,0,116,116,233,,,,,,,,,,,0.9345887156702902,,,,,,,,,,,,,,,,,,,,,1094.8350244511323,1100.111299797053,1100.1113145498348,1101.0511828523927,1101.0511966430365,1251.922442701478,1251.922442701478,1253.4128408854747,1253.4128408854747,1253.4128408854747,1253.4128408854747,1104.0824035873634,None,1,,,1104.0827845939905,1104.082823720934,1104.082832700888,1104.0832932442522,1254.9032182231492,1254.9032182231492,,,,,CIW,001,2,28,F,2024-02-15_16h49.45.708,eye_track_exp,2023.1.3,120.098912273206,
180,168,180,0,180,180,180,180,168,180,f,abs,resp,freq_bottom,,,,,0,117,117,853,,,,,,,,,,,0.7799625458560763,,,,,,,,,,,,,,,,,,,,,1104.0837784824903,1106.1226145393155,1106.12262961281,1106.9047563610147,1106.9047711137964,1257.7757580364175,1257.7757580364175,,,,,1108.1549648242367,f,1,1.2035805419581607,None,1108.155480850889,1108.1555283163611,1108.1555372963153,1108.156096298463,,,,,,,CIW,001,2,28,F,2024-02-15_16h49.45.708,eye_track_exp,2023.1.3,120.098912273206,
-12,0,0,0,-12,0,90,0,0,0,j,present,resp,freq_bottom,,,,,0,118,118,743,,,,,,,,,,,0.8652508844644714,,,,,,,,,,,,,,,,,,,,,1108.1565821781264,1108.6284967300137,1108.6285101999451,1109.4940777202205,1109.494090869439,1260.3652060771199,1260.3652060771199,,,,,1110.5613699689807,j,1,1.0298017515837614,None,1110.561871563564,1110.561910049082,1110.5619193497487,1110.5622670022603,,,,,,,CIW,001,2,28,F,2024-02-15_16h49.45.708,eye_track_exp,2023.1.3,120.098912273206,
0,-12,0,180,12,0,0,90,0,0,j,present,resp,freq_bottom,,,,,0,119,119,570,,,,,,,,,,,0.8077978950235164,,,,,,,,,,,,,,,,,,,,,1110.5627570511883,1112.0007350733918,1112.0007491847484,1112.8079947890608,1112.80800922113,1263.6790185936366,1263.6790185936366,1265.169409721955,1265.169409721955,1265.169409721955,1265.169409721955,1115.8389961565797,None,0,,,1115.839411800173,1116.3456730732225,1116.3456842981652,1116.3470158970845,1266.6597886631928,1266.6597886631928,1266.6930850504289,,,,CIW,001,2,28,F,2024-02-15_16h49.45.708,eye_track_exp,2023.1.3,120.098912273206,
12,180,0,0,-168,180,270,0,180,180,None,present,inhibit,freq_bottom,,,,,0,120,120,325,,,,,,,,,,,0.8197872948083516,,,,,,,,,,,,,,,,,,,,,1116.3475534114846,1116.5382453041254,1116.538258453344,1117.3618899083274,1117.3619033782588,1268.2334486616019,1268.2334486616019,1269.7238333756675,1269.7238333756675,1269.7238333756675,1269.7238333756675,1120.3932738860367,None,1,,,1120.3936597033537,1120.3946600061063,1120.3946709103363,1120.3953184291752,1271.2142036576636,1271.2142036576636,,,,,CIW,001,2,28,F,2024-02-15_16h49.45.708,eye_track_exp,2023.1.3,120.098912273206,
180,0,0,180,180,168,0,168,180,90,f,present,resp,freq_bottom,,,,,0,121,121,467,,,,,,,,,,,1.026101455142932,,,,,,,,,,,,,,,,,,,,,1120.3958142509307,1120.7267492950737,1120.72676340643,1121.7581082571962,1121.7581217271274,1272.62966572762,1272.62966572762,1274.1200501209728,1274.1200501209728,1274.1200501209728,1274.1200501209728,1124.789706470955,None,0,,,1124.7900906847087,1125.288607709419,1125.288617651511,1125.2888668452395,1275.6104681891538,1275.6104681891538,1275.6354324617646,1276.1349889161709,,,CIW,001,2,28,F,2024-02-15_16h49.45.708,eye_track_exp,2023.1.3,120.098912273206,
12,0,12,0,180,0,90,180,180,180,j,present,resp,freq_bottom,,,,,0,122,122,523,,,,,,,,,,,0.945720552913263,,,,,,,,,,,,,,,,,,,,,1125.2893969832485,1125.3307467858178,1125.3307586521858,1126.279921528029,1126.2799349979603,1277.1507939562343,1277.1507939562343,,,,,1127.3294283361172,j,1,1.0120926405222122,None,1127.3299453249076,1127.3307006031964,1127.330710866001,1127.331280451666,,,,,,,CIW,001,2,28,F,2024-02-15_16h49.45.708,eye_track_exp,2023.1.3,120.098912273206,
0,168,180,0,180,168,0,0,180,180,f,abs,resp,freq_bottom,,,,,0,123,123,857,,,,,,,,,,,1.053339301678279,,,,,,,,,,,,,,,,,,,,,1127.3317849326631,1133.5244261167857,1133.5244405488547,1134.58081605975,1134.580829850394,1285.4520075970413,1285.4520075970413,1286.942368257658,1286.942368257658,1286.942368257658,1286.942368257658,1136.7552417275379,j,0,2.133693086441042,None,1136.7557542263512,1137.2610469472004,1137.261058172143,1137.2620562299073,,,1287.6084855435565,,,,CIW,001,2,28,F,2024-02-15_16h49.45.708,eye_track_exp,2023.1.3,120.098912273206,
180,0,180,0,180,-12,180,270,0,-12,j,present,resp,freq_bottom,,,,,0,124,124,511,,,,,,,,,,,0.7150600871079746,,,,,,,,,,,,,,,,,,,,,1137.26258316079,1137.3208037315558,1137.3208159186365,1138.0359316830743,1138.0359454737181,1288.907364075565,1288.907364075565,1290.3977712395158,1290.3977712395158,1290.3977712395158,1290.3977712395158,1140.0602163655817,j,1,1.974267149254672,None,1140.0607952519133,1140.0615466816503,1140.0615572651677,1168.0447647508577,,,,,,,CIW,001,2,28,F,2024-02-15_16h49.45.708,eye_track_exp,2023.1.3,120.098912273206,
180,180,168,0,0,0,90,0,168,180,f,present,resp,freq_bottom,,,,,0,125,125,639,,,,,,,,,,,0.900868639015553,,,,,,,,,,,,,,,,,,,,,1168.0453394679248,1168.951398884433,1168.9514133165023,1169.8590496771064,1169.8590631470377,1320.730035958302,1320.730035958302,,,,,1171.1588085653368,f,1,1.253977327647533,None,1171.1592970107015,1171.1593351755068,1171.1593438347484,1171.1598117545034,,,,,,,CIW,001,2,28,F,2024-02-15_16h49.45.708,eye_track_exp,2023.1.3,120.098912273206,
0,180,-168,0,180,0,180,-168,180,90,f,present,resp,freq_bottom,,,,,0,126,126,534,,,,,,,,,,,0.8745981183786553,,,,,,,,,,,,,,,,,,,,,1171.1602947477531,1171.4828428354076,1171.482856305339,1172.3571366261542,1172.357150416798,1323.2278987292082,1323.2278987292082,,,,,1173.490580669494,f,1,1.0923173061470948,None,1173.4910889990429,1173.4911281259863,1173.491137426653,1173.4916152885003,,,,,,,CIW,001,2,28,F,2024-02-15_16h49.45.708,eye_track_exp,2023.1.3,120.098912273206,
12,0,0,0,0,270,0,-12,180,180,j,present,resp,freq_bottom,,,,,0,127,127,668,,,,,,,,,,,0.9206051250589058,,,,,,,,,,,,,,,,,,,,,1173.4920986024626,1173.8138301557124,1173.8138439463562,1174.7379293380234,1174.7379431286674,1325.6091898285342,1325.6091898285342,1327.0995597898177,1327.0995597898177,1327.0995597898177,1327.0995597898177,1176.5791473918364,j,1,1.7993167955725653,None,1176.579759311571,1176.5797990799394,1176.579807739181,1176.580321520845,,,,,,,CIW,001,2,28,F,2024-02-15_16h49.45.708,eye_track_exp,2023.1.3,120.098912273206,
180,180,168,180,180,180,180,-168,0,0,f,abs,resp,freq_bottom,,,,,0,128,128,776,,,,,,,,,,,0.8036632580602869,,,,,,,,,,,,,,,,,,,,,1176.580796816991,1176.9116712464433,1176.9116847163746,1177.7184197461495,1177.7184332160807,1328.589970160895,1328.589970160895,,,,,1178.7854567076408,f,1,1.0256777076280628,None,1178.7859701685923,1178.7860099369607,1178.7860189169148,1178.786573749798,,,,,,,CIW,001,2,28,F,2024-02-15_16h49.45.708,eye_track_exp,2023.1.3,120.098912273206,
-168,0,180,180,180,90,180,180,12,180,None,present,inhibit,freq_bottom,,,,,0,129,129,25,,,,,,,,,,,0.8556345430304011,,,,,,,,,,,,,,,,,,,,,1178.7870599501741,1189.8006216052565,1189.8006357166132,1190.6575029441422,1190.6575164140734,1341.528845537091,1341.528845537091,1343.019259115295,1343.019259115295,1343.019259115295,1343.019259115295,1193.6892169351672,None,1,,,1193.6895713226445,1193.6896197502547,1193.6896373894504,1193.6900857457338,1344.50964864005,1344.50964864005,,,,,CIW,001,2,28,F,2024-02-15_16h49.45.708,eye_track_exp,2023.1.3,120.098912273206,
180,0,0,180,-168,90,0,12,0,180,None,present,inhibit,freq_bottom,,,,,0,130,130,310,,,,,,,,,,,0.7983033122912582,,,,,,,,,,,,,,,,,,,,,1193.6905741910984,1193.6912518569263,1193.691262119731,1194.4876265852827,1194.4876480730302,1345.3589210713342,1345.3589210713342,1346.849275317698,1346.849275317698,1346.849275317698,1346.849275317698,1197.5189448168987,None,1,,,1197.5193261442387,1197.519365912607,1197.5193752132739,1197.5200538412396,1348.3396690117174,1348.3396690117174,,,,,CIW,001,2,28,F,2024-02-15_16h49.45.708,eye_track_exp,2023.1.3,120.098912273206,
180,180,0,168,0,90,0,12,0,0,None,present,inhibit,freq_bottom,,,,,0,131,131,192,,,,,,,,,,,1.0388765555495434,,,,,,,,,,,,,,,,,,,,,1197.5205426073169,1197.8102952608933,1197.810308410112,1198.8503692685442,1198.8503820970502,1349.7218279594722,1349.7218279594722,1351.2122171635147,1351.2122171635147,1351.2122171635147,1351.2122171635147,1201.8816717852405,None,1,,,1201.8820585646954,1201.8820970502134,1201.8821060301675,1201.8828686848472,1352.7026021982927,1352.7026021982927,,,,,CIW,001,2,28,F,2024-02-15_16h49.45.708,eye_track_exp,2023.1.3,120.098912273206,
180,12,0,0,0,270,0,168,180,180,None,present,inhibit,freq_bottom,,,,,0,132,132,253,,,,,,,,,,,1.0969999807672286,,,,,,,,,,,,,,,,,,,,,1201.8833529609474,1202.2569626716133,1202.2569764622572,1203.3550988179813,1203.355112929338,1354.2262974109508,1354.2262974109508,1355.7166773143265,1355.7166773143265,1355.7166773143265,1355.7166773143265,1206.3862230184448,None,1,,,1206.3865979315317,1206.3866380206127,1206.386647000567,1206.3871643100701,1357.2070771018866,1357.2070771018866,,,,,CIW,001,2,28,F,2024-02-15_16h49.45.708,eye_track_exp,2023.1.3,120.098912273206,
0,168,0,0,168,0,0,0,0,0,f,abs,resp,freq_bottom,,,,,0,133,133,924,,,,,,,,,,,1.0775355588902895,,,,,,,,,,,,,,,,,,,,,1206.3876450583311,1206.4440212106517,1206.4440330770199,1207.5266688603413,1207.5266823302725,1358.3977176805035,1358.3977176805035,1359.8880870003618,1359.8880870003618,1359.8880870003618,1359.8880870003618,1209.1846961696647,f,1,1.6169422647753322,None,1209.1852301562255,1209.1852683210307,1209.185277300985,1209.1857522764183,,,,,,,CIW,001,2,28,F,2024-02-15_16h49.45.708,eye_track_exp,2023.1.3,120.098912273206,
-168,180,0,180,180,180,90,180,-168,180,f,present,resp,freq_bottom,,,,,0,134,134,462,,,,,,,,,,,0.9624709334798375,,,,,,,,,,,,,,,,,,,,,1209.1862375146566,1209.5006090333206,1209.5006221825392,1210.4657001028845,1210.4657132521031,1361.3368537960832,1361.3368537960832,,,,,1211.599667549268,f,1,1.0935020186731776,None,1211.6001832552076,1211.6002227028634,1211.6002316828178,1211.6007089032396,,,,,,,CIW,001,2,28,F,2024-02-15_16h49.45.708,eye_track_exp,2023.1.3,120.098912273206,
180,180,0,270,0,168,180,180,12,180,None,present,inhibit,freq_bottom,,,,,0,135,135,180,,,,,,,,,,,0.8016904490139964,,,,,,,,,,,,,,,,,,,,,1211.6011893307882,1211.9315191901621,1211.931532980806,1212.7386724292314,1212.7386942376916,1363.609889302822,1363.609889302822,1365.1003201995088,1365.1003201995088,1365.1003201995088,1365.1003201995088,1215.7702167632654,None,1,,,1215.7705894313635,1215.770628237594,1215.7706368968356,1215.7709723622668,1366.5906580895276,1366.5906580895276,,,,,CIW,001,2,28,F,2024-02-15_16h49.45.708,eye_track_exp,2023.1.3,120.098912273206,
180,168,180,180,180,180,0,168,180,0,f,abs,resp,freq_bottom,,,,,0,136,136,760,,,,,,,,,,,1.0929079110983522,,,,,,,,,,,,,,,,,,,,,1215.7714701082982,1215.772208068104,1215.7722180101962,1216.8683426468288,1216.8683557960474,1367.7396945404444,1367.7396945404444,,,,,1217.8523365199342,f,1,0.9461428949115884,None,1217.8528480566097,1217.852887824978,1217.8528968049322,1217.853379798182,,,,,,,CIW,001,2,28,F,2024-02-15_16h49.45.708,eye_track_exp,2023.1.3,120.098912273206,
-168,180,0,12,180,90,180,180,0,180,None,present,inhibit,freq_bottom,,,,,0,137,137,92,,,,,,,,,,,0.702424612489591,,,,,,,,,,,,,,,,,,,,,1217.8538506043508,1218.3010795829196,1218.3010930528508,1219.0083006847856,1219.0083138340042,1369.8795072955713,1369.8795072955713,1371.3699349851317,1371.3699349851317,1371.3699349851317,1371.3699349851317,1222.0394053217774,None,1,,,1222.0398504709344,1222.0398899185902,1222.039899219257,1222.0403469341154,1372.8602908350588,1372.8602908350588,,,,,CIW,001,2,28,F,2024-02-15_16h49.45.708,eye_track_exp,2023.1.3,120.098912273206,
-168,0,180,0,180,180,180,180,-168,180,f,abs,resp,freq_bottom,,,,,0,138,138,870,,,,,,,,,,,0.7312316357964856,,,,,,,,,,,,,,,,,,,,,1222.040847245848,1222.3474520662874,1222.347466177644,1223.080361609926,1223.0803750798575,1373.9510422519672,1373.9510422519672,,,,,1224.1805567315018,f,1,1.0548657658284242,None,1224.181159991995,1224.1811994396508,1224.1812087403177,1224.181694940694,,,,,,,CIW,001,2,28,F,2024-02-15_16h49.45.708,eye_track_exp,2023.1.3,120.098912273206,
168,180,0,180,180,180,0,180,168,180,f,abs,resp,freq_bottom,,,,,0,139,139,793,,,,,,,,,,,0.7982648261958907,,,,,,,,,,,,,,,,,,,,,1224.1821715196904,1224.6871820134083,1224.6871954833396,1225.4858270666082,1225.4858405365394,1376.3572998688926,1376.3572998688926,,,,,1226.436722432182,f,1,0.9038232572910943,None,1226.4372397416853,1226.4372779064904,1226.4372868864446,1226.4377220935096,,,,,,,CIW,001,2,28,F,2024-02-15_16h49.45.708,eye_track_exp,2023.1.3,120.098912273206,
12,0,180,0,180,90,180,168,180,180,None,present,inhibit,freq_bottom,,,,,0,140,140,130,,,,,,,,,,,0.7022528035441329,,,,,,,,,,,,,,,,,,,,,1226.4382018796327,1227.2098025179791,1227.209816308623,1227.9177561275358,1227.9177692767544,1378.7885522261306,1378.7885522261306,1380.2872552641775,1380.2872552641775,1380.2872552641775,1380.2872552641775,1230.9487815485033,None,1,,,1230.9492529960976,1230.9492911609027,1230.949300140857,1230.9497484971405,1381.760987936073,1381.760987936073,,,,,CIW,001,2,28,F,2024-02-15_16h49.45.708,eye_track_exp,2023.1.3,120.098912273206,
0,0,0,0,168,0,270,180,180,168,f,present,resp,freq_bottom,,,,,0,141,141,563,,,,,,,,,,,0.9671131726745736,,,,,,,,,,,,,,,,,,,,,1230.9502372632178,1230.9509434724712,1230.9509527731382,1231.9225001090422,1231.922513258261,1382.7934373212026,1382.7934373212026,,,,,1233.1722214097501,f,1,1.2040349917819526,None,1233.1727476992073,1233.1727861847253,1233.172795485392,1233.1732714229636,,,,,,,CIW,001,2,28,F,2024-02-15_16h49.45.708,eye_track_exp,2023.1.3,120.098912273206,
180,-12,0,180,0,90,180,12,180,180,j,present,resp,freq_bottom,,,,,0,142,142,610,,,,,,,,,,,0.9538926194886652,,,,,,,,,,,,,,,,,,,,,1233.1737598683283,1233.746114886968,1233.746128677612,1234.7034427861463,1234.7034556146523,1385.5743809604446,1385.5743809604446,1387.0647736923263,1387.0647736923263,1387.0647736923263,1387.0647736923263,1237.7345288218044,None,0,,,1237.7349156012592,1238.233462452246,1238.2334727150505,1238.2338482695627,1388.555152633564,1388.555152633564,1388.5801428838995,1389.0797028661448,,,CIW,001,2,28,F,2024-02-15_16h49.45.708,eye_track_exp,2023.1.3,120.098912273206,
180,0,180,90,0,180,-12,0,-12,180,j,present,resp,freq_bottom,,,,,0,143,143,588,,,,,,,,,,,0.7758333245240251,,,,,,,,,,,,,,,,,,,,,1238.23440117817,1238.2351606257232,1238.2351712092407,1239.0160612894701,1239.0160747594014,1389.887378225407,1389.887378225407,,,,,1240.0660616743253,j,1,1.005887812898834,None,1240.066599509438,1240.0673265650137,1240.0673368278183,1240.0678348945626,,,,,,,CIW,001,2,28,F,2024-02-15_16h49.45.708,eye_track_exp,2023.1.3,120.098912273206,
0,0,168,0,0,0,168,0,0,0,f,abs,resp,freq_bottom,,,,,0,144,144,981,,,,,,,,,,,0.8610944764386735,,,,,,,,,,,,,,,,,,,,,1240.0683191706628,1240.632058885408,1240.6320746003278,1241.4976126150395,1241.4976260849708,1392.3685514307633,1392.3685514307633,,,,,1242.8147688816364,f,1,1.2764114981695798,None,1242.8153092824502,1242.8153484093934,1242.8153577100604,1242.8157586008717,,,,,,,CIW,001,2,28,F,2024-02-15_16h49.45.708,eye_track_exp,2023.1.3,120.098912273206,
0,180,0,0,168,180,90,0,168,180,f,present,resp,freq_bottom,,,,,0,145,145,559,,,,,,,,,,,0.7227117495739734,,,,,,,,,,,,,,,,,,,,,1242.8162951531338,1244.6951276692914,1244.6951414599353,1245.4191868266637,1245.4192006173078,1396.2901904263426,1396.2901904263426,1397.7805738575573,1397.7805738575573,1397.7805738575573,1397.7805738575573,1248.450175044964,None,0,,,1248.4505319981424,1248.949366849088,1248.9493764704675,1248.9496240606327,1399.270955685209,1399.270955685209,1399.2959369555902,1399.7954905235827,,,CIW,001,2,28,F,2024-02-15_16h49.45.708,eye_track_exp,2023.1.3,120.098912273206,
