ori10,ori11,ori12,ori13,ori14,ori16,ori17,ori18,ori19,ori20,corrAns,distractor,responses,dist_freq,practice_trials.thisRepN,practice_trials.thisTrialN,practice_trials.thisN,practice_trials.thisIndex,trials.thisRepN,trials.thisTrialN,trials.thisN,trials.thisIndex,intro_2.started,intro_2.stopped,key_resp.keys,key_resp.rt,key_resp.duration,start_et_record_2.started,start_et_record_2.stopped,fix_check_3.started,fix_check_3.stopped,fix_practice_2.started,fixdur,fix_practice_2.stopped,practice_search_2.started,int14_2.started,per15_2.started,practice_search_2.stopped,response_2.keys,response_2.corr,feedback_4.started,text_feedback.started,feedback_4.stopped,pause_pract_2.started,pause_pract_2.stopped,response_2.rt,response_2.duration,text_feedback.stopped,stop_et_record_2.started,stop_et_record_2.stopped,break_3.started,break_3.stopped,key_resp_2.keys,key_resp_2.rt,key_resp_2.duration,fix_check_2.started,fix_check_2.stopped,fixation_2.started,fixation_2.stopped,search_displays_2.started,int14.started,per15.started,search_displays_2.stopped,response.keys,response.corr,response.rt,response.duration,feedback_6.started,feedback_6.stopped,pause_4.started,pause_4.stopped,int14.stopped,int14_3.started,per15.stopped,per15_3.started,int14_3.stopped,per15_3.stopped,text_feedback_2.started,text_feedback_2.stopped,end_2.started,end_2.stopped,participant,session,group,age,gender,date,expName,psychopyVersion,frameRate,
,,,,,,,,,,,,,,,,,,,,,,1.026302925311029e-05,21.61790808688238,space,21.60211567577062,None,,,,,,,,,,,,,,,,,,,,,,,,,,,,,,,,,,,,,,,,,,,,,,,,,,,,,,,cml,001,1,26,m,2024-02-08_14h57.30.496,eye_track_exp,2023.1.3,120.09860603181868,
180,12,180,12,180,90,180,180,0,180,j,present,resp,freq_top,0,0,0,37,,,,,,,,,,80.95642542562928,81.45831157785142,81.56180010956086,81.66832008333586,81.66833355356357,0.7186218636545858,82.39259997152112,82.39261280030769,237.0478497672193,237.0478497672193,85.39776002986764,None,0,85.39831359196978,240.03704568458852,85.89709678164218,85.897107365392,85.89777702800711,,,,,,,,,,,,,,,,,,,,,,,,,,,,,,,,,,,,,cml,001,1,26,m,2024-02-08_14h57.30.496,eye_track_exp,2023.1.3,120.09860603181868,
180,270,180,12,180,0,12,180,0,180,j,present,resp,freq_top,0,1,1,33,,,,,,,,,,,,85.89830140462436,85.89913944505315,85.89914938736183,0.9426734449849348,86.8474827356622,86.84749524372819,241.5024602403828,241.5024602403828,88.47985303343012,j,1,88.48052045100849,,88.48126355842396,88.48127382145321,88.48184374026096,1.5960893536648655,None,,,,,,,,,,,,,,,,,,,,,,,,,,,,,,,,,,,cml,001,1,26,m,2024-02-08_14h57.30.496,eye_track_exp,2023.1.3,120.09860603181868,
180,0,180,12,180,180,12,180,180,180,j,abs,resp,freq_top,0,2,2,1,,,,,,,,,,,,88.48233123411774,88.48345856366359,88.48346850597227,0.9931235461727195,89.48658461802916,89.48659744681572,244.14193768545374,244.14193768545374,90.65307275076339,j,1,90.65359776881814,,90.65363433085804,90.65364299028806,90.65399802693355,1.1317925058247056,None,,,,,,,,,,,,,,,,,,,,,,,,,,,,,,,,,,,cml,001,1,26,m,2024-02-08_14h57.30.496,eye_track_exp,2023.1.3,120.09860603181868,
0,0,180,0,168,0,0,0,180,168,f,abs,resp,freq_top,0,3,3,17,,,,,,,,,,,,90.65448969014687,91.31896434495866,91.31897749446216,0.7728381271795332,92.0923236394774,92.0923367889809,246.74807921005413,246.74807921005413,93.42618477043652,f,1,93.42669086603564,,93.42673704966364,93.42674602981424,93.42720562106115,1.2934461106524395,None,,,,,,,,,,,,,,,,,,,,,,,,,,,,,,,,,,,cml,001,1,26,m,2024-02-08_14h57.30.496,eye_track_exp,2023.1.3,120.09860603181868,
90,0,0,12,0,0,0,12,0,0,j,present,resp,freq_top,0,4,4,34,,,,,,,,,,,,93.4277078680243,93.95833915974072,93.95835262996479,0.708034183835563,94.66590795089724,94.66593745710634,249.32094863738894,249.32094863738894,95.85756744413447,j,1,95.85808957571498,,95.85812677919239,95.85813511790548,95.85848855095173,1.1523301089218876,None,,,,,,,,,,,,,,,,,,,,,,,,,,,,,,,,,,,cml,001,1,26,m,2024-02-08_14h57.30.496,eye_track_exp,2023.1.3,120.09860603181868,
168,0,270,180,180,180,180,168,180,180,f,present,resp,freq_top,0,5,5,49,,,,,,,,,,,,95.85898726999585,96.46445528334516,96.46446843284866,0.8369822514915427,97.30522792262491,97.30524010997033,251.96039433121405,251.96039433121405,98.32138994762136,f,1,98.32192105935246,252.95954666919715,98.82793487338859,98.82794449497669,98.82912185679015,0.9771334757097065,None,,,,,,,,,,,,,,,,,,,,,,,,,,,,,,,,,,,cml,001,1,26,m,2024-02-08_14h57.30.496,eye_track_exp,2023.1.3,120.09860603181868,
180,0,180,0,12,0,12,180,180,180,j,abs,resp,freq_top,0,6,6,7,,,,,,,,,,,,98.82965104420146,98.8305214773136,98.83053141962228,1.0026594173035814,99.8359464500827,99.83595863743176,254.49161735067537,254.49161735067537,101.44437823365661,f,0,101.44489972379597,256.08195990491004,101.95030898130426,101.95031924433351,101.95106555894381,1.5657582555322733,None,,,,,,,,,,,,,,,,,,,,,,,,,,,,,,,,,,,cml,001,1,26,m,2024-02-08_14h57.30.496,eye_track_exp,2023.1.3,120.09860603181868,
0,0,168,0,0,0,0,0,180,168,f,abs,resp,freq_top,0,7,7,19,,,,,,,,,,,,101.95158961484412,101.95258384573754,101.95259378804622,1.0966387846374859,103.050302631058,103.0503157805615,257.70558834735493,257.70558834735493,104.0755926578313,f,1,104.07619881795836,,104.07697784597258,104.0769881089982,104.07756315932056,0.975194725462643,None,,,,,,,,,,,,,,,,,,,,,,,,,,,,,,,,,,,cml,001,1,26,m,2024-02-08_14h57.30.496,eye_track_exp,2023.1.3,120.09860603181868,
180,270,180,12,180,180,180,180,12,180,j,present,resp,freq_top,0,8,8,35,,,,,,,,,,,,104.07806155764774,104.39109932430802,104.39111151165707,0.9833857367580053,105.37320829971213,105.37322080777813,260.02866784605794,260.02866784605794,106.656684053949,j,1,106.65721131704413,,106.65724787908403,106.65725653851405,106.65771196040805,1.2442300777474884,None,,,,,,,,,,,,,,,,,,,,,,,,,,,,,,,,,,,cml,001,1,26,m,2024-02-08_14h57.30.496,eye_track_exp,2023.1.3,120.09860603181868,
0,0,0,-168,180,180,180,180,0,12,None,abs,inhibit,freq_top,0,9,9,25,,,,,,,,,,,,106.65820073714349,106.88917372356809,106.88918655235466,0.7460497267169246,107.63805954352574,107.63807205159173,262.29345334234677,262.29345334234677,108.77077685995027,f,0,108.7712835969869,263.40917283837916,109.27753249852321,109.2775424408319,109.27904052228769,1.0911560441054462,None,,,,,,,,,,,,,,,,,,,,,,,,,,,,,,,,,,,cml,001,1,26,m,2024-02-08_14h57.30.496,eye_track_exp,2023.1.3,120.09860603181868,
0,180,180,180,12,0,180,12,0,0,j,abs,resp,freq_top,0,10,10,8,,,,,,,,,,,,109.27957291689381,109.28077240836137,109.28078331282813,0.9417284624937067,110.21876062384035,110.21877505622251,264.8746136931877,264.8746136931877,111.40251501930106,j,1,111.40302785001404,,111.40377769253973,111.40378795556899,111.40420713614003,1.1347700669975893,None,,,,,,,,,,,,,,,,,,,,,,,,,,,,,,,,,,,cml,001,1,26,m,2024-02-08_14h57.30.496,eye_track_exp,2023.1.3,120.09860603181868,
180,12,180,12,0,180,0,180,180,180,j,abs,resp,freq_top,0,11,11,5,,,,,,,,,,,,111.40469463000045,111.40552529387787,111.40553523618655,0.789135124017832,112.20051520403649,112.20052771210248,266.8562993186606,266.8562993186606,113.10136023615269,j,1,113.10186472815258,,113.10190161091305,113.1019099496225,113.10228679520515,0.8647831395319372,None,,,,,,,,,,,,,,,,,,,,,,,,,,,,,,,,,,,cml,001,1,26,m,2024-02-08_14h57.30.496,eye_track_exp,2023.1.3,120.09860603181868,
180,0,180,0,168,180,0,180,12,180,None,abs,inhibit,freq_top,0,12,12,30,,,,,,,,,,,,113.10276947826787,113.19243787981395,113.19245038787994,0.9868312283027563,114.18266811803187,114.1826822296971,268.83797403966673,268.83797403966673,115.78221853323339,f,0,115.7827255909906,270.419989108359,116.2883510135398,116.28836095584847,116.28953446902597,1.5548945190457744,None,,,,,,,,,,,,,,,,,,,,,,,,,,,,,,,,,,,cml,001,1,26,m,2024-02-08_14h57.30.496,eye_track_exp,2023.1.3,120.09860603181868,
180,270,0,0,0,0,0,168,0,168,f,present,resp,freq_top,0,13,13,43,,,,,,,,,,,,116.29007616450326,116.29083851509495,116.2908487781242,0.889941771355298,117.18007958978706,117.1800927392942,271.8354570319061,271.8354570319061,118.59627009469114,f,1,118.59681756312057,,118.59753822016137,118.59754848319062,118.59816875497927,1.3737087672125199,None,,,,,,,,,,,,,,,,,,,,,,,,,,,,,,,,,,,cml,001,1,26,m,2024-02-08_14h57.30.496,eye_track_exp,2023.1.3,120.09860603181868,
180,0,180,12,0,180,180,0,12,180,j,abs,resp,freq_top,0,14,14,3,,,,,,,,,,,,118.5986533623618,118.86217201605905,118.86218484484198,0.7815127786136732,119.64428439108815,119.64429721987472,274.30007588226727,274.30007588226727,120.66099452595881,j,1,120.6615006215543,,120.66153718359419,120.66154552230728,120.66199998203956,0.9728127406706335,None,,,,,,,,,,,,,,,,,,,,,,,,,,,,,,,,,,,cml,001,1,26,m,2024-02-08_14h57.30.496,eye_track_exp,2023.1.3,120.09860603181868,
90,0,180,180,180,168,0,168,0,0,f,present,resp,freq_top,0,15,15,44,,,,,,,,,,,,120.66247304351418,121.05210796193205,121.05212111143555,1.0745626697208215,122.12593826531884,122.1259510941054,276.7813404028493,276.7813404028493,123.19286058830403,f,1,123.19337053253548,,123.19340869817461,123.19341703688406,123.19388624972271,1.0193344078470545,None,,,,,,,,,,,,,,,,,,,,,,,,,,,,,,,,,,,cml,001,1,26,m,2024-02-08_14h57.30.496,eye_track_exp,2023.1.3,120.09860603181868,
0,0,180,0,0,0,168,0,180,168,f,abs,resp,freq_top,0,16,16,15,,,,,,,,,,,,123.1943775922191,123.450206351019,123.45021950052615,0.8238767378225771,124.27430509675105,124.27431792553398,278.92953949790535,278.92953949790535,125.42442305743316,f,1,125.42493011519036,,125.42496796010892,125.42497694025951,125.42527296449043,1.1108286663256877,None,,,,,,,,,,,,,,,,,,,,,,,,,,,,,,,,,,,cml,001,1,26,m,2024-02-08_14h57.30.496,eye_track_exp,2023.1.3,120.09860603181868,
0,180,0,-168,180,0,180,0,12,180,None,abs,inhibit,freq_top,0,17,17,24,,,,,,,,,,,,125.42577168353455,125.63179107809265,125.63180358615864,1.0279669620518308,126.66366323411421,126.6636757421802,281.3192042432456,281.3192042432456,129.67747502556085,None,1,129.67791729795135,,129.67795418071182,129.67796316085878,129.67917034959828,,,,,,,,,,,,,,,,,,,,,,,,,,,,,,,,,,,,,cml,001,1,26,m,2024-02-08_14h57.30.496,eye_track_exp,2023.1.3,120.09860603181868,
0,0,0,-168,0,12,0,0,0,0,None,abs,inhibit,freq_top,0,18,18,21,,,,,,,,,,,,129.6801389229222,129.6867704429933,129.6867807060189,1.079976606872286,130.768672939088,130.76868544715398,285.42410811074296,285.42410811074296,133.7823583669997,None,1,133.78275798367395,,133.78279743219173,133.78280705377983,133.78345907681796,,,,,,,,,,,,,,,,,,,,,,,,,,,,,,,,,,,,,cml,001,1,26,m,2024-02-08_14h57.30.496,eye_track_exp,2023.1.3,120.09860603181868,
180,0,90,180,12,0,180,180,12,180,j,present,resp,freq_top,0,19,19,41,,,,,,,,,,,,133.78395234362688,133.9917863699302,133.9917988779962,1.069169685850654,135.06510127685033,135.06511378491632,289.7205249025974,289.7205249025974,135.99892526847543,j,1,135.99949871519857,290.6364158553515,136.50479507939235,136.5048053424216,136.50562670542786,0.8959532402477635,None,,,,,,,,,,,,,,,,,,,,,,,,,,,,,,,,,,,cml,001,1,26,m,2024-02-08_14h57.30.496,eye_track_exp,2023.1.3,120.09860603181868,
0,180,0,0,180,0,180,168,0,168,f,abs,resp,freq_top,0,20,20,14,,,,,,,,,,,,136.50615621355973,136.50707154742122,136.50708213117105,0.8041382772817094,137.31365002046368,137.31366316996719,291.9686612007463,291.9686612007463,138.3466822194314,f,1,138.34724861032373,,138.3479843411842,138.34799492493403,138.34846670353,0.9991139964804461,None,,,,,,,,,,,,,,,,,,,,,,,,,,,,,,,,,,,cml,001,1,26,m,2024-02-08_14h57.30.496,eye_track_exp,2023.1.3,120.09860603181868,
12,0,0,12,0,0,90,180,180,0,j,present,resp,freq_top,0,21,21,38,,,,,,,,,,,,138.34897215768797,138.34973835691562,138.34974861994488,0.7251420529832405,139.0782174273918,139.07822993546142,293.7338325227647,293.7338325227647,140.0452160175082,j,1,140.04572981037927,,140.04576669313974,140.0457750318492,140.04623783029456,0.9300624157804123,None,,,,,,,,,,,,,,,,,,,,,,,,,,,,,,,,,,,cml,001,1,26,m,2024-02-08_14h57.30.496,eye_track_exp,2023.1.3,120.09860603181868,
180,180,180,-168,180,180,12,180,0,180,None,abs,inhibit,freq_top,0,22,22,22,,,,,,,,,,,,140.04671826832055,140.32023888482217,140.32025203432568,0.8770797255689935,141.20194433076904,141.2019571595556,295.8570411431974,295.8570411431974,144.21528049498738,None,1,144.21566760359565,,144.21570576923477,144.21571507010594,144.21634624636135,,,,,,,,,,,,,,,,,,,,,,,,,,,,,,,,,,,,,cml,001,1,26,m,2024-02-08_14h57.30.496,eye_track_exp,2023.1.3,120.09860603181868,
0,180,180,180,168,0,0,0,0,12,None,abs,inhibit,freq_top,0,23,23,31,,,,,,,,,,,,144.21683213662254,144.50722998292622,144.50724313243336,0.7651380697433092,145.273060063093,145.273072571159,299.92867740350266,299.92867740350266,148.286899115712,None,1,148.28728846936065,,148.2873269557167,148.28733625658788,148.2881884086819,,,,,,,,,,,,,,,,,,,,,,,,,,,,,,,,,,,,,cml,001,1,26,m,2024-02-08_14h57.30.496,eye_track_exp,2023.1.3,120.09860603181868,
180,180,0,168,180,180,180,180,168,180,f,abs,resp,freq_top,0,24,24,10,,,,,,,,,,,,148.28867077102404,148.28945364767424,148.28946358998292,1.0035306527640797,149.29506175135975,149.2950749008669,303.95029551107655,303.95029551107655,150.528600174217,f,1,150.5291389832164,305.16594836156946,151.0342974379637,151.0343080217135,151.03521341326632,1.1936333467820077,None,,,,,,,,,,,,,,,,,,,,,,,,,,,,,,,,,,,cml,001,1,26,m,2024-02-08_14h57.30.496,eye_track_exp,2023.1.3,120.09860603181868,
0,0,0,0,168,0,0,12,0,0,None,abs,inhibit,freq_top,0,25,25,29,,,,,,,,,,,,151.0357393934828,151.03672304063002,151.03673330365564,0.7234174994700261,151.7597495564478,151.75976238523072,306.41490313625036,306.41490313625036,154.77314858171667,None,1,154.77354146327707,,154.7742637239171,154.77427462838386,154.77491542623102,,,,,,,,,,,,,,,,,,,,,,,,,,,,,,,,,,,,,cml,001,1,26,m,2024-02-08_14h57.30.496,eye_track_exp,2023.1.3,120.09860603181868,
180,180,90,180,12,180,12,0,0,180,j,present,resp,freq_top,0,26,26,39,,,,,,,,,,,,154.77540741016492,155.0909971430301,155.09100997181667,0.8182223839490007,155.91464110830566,155.91465361637165,310.5697526738368,310.5697526738368,157.04741936146092,j,1,157.04792609849756,,157.04796266053745,157.0479709992469,157.04845753094924,1.0854902108840179,None,,,,,,,,,,,,,,,,,,,,,,,,,,,,,,,,,,,cml,001,1,26,m,2024-02-08_14h57.30.496,eye_track_exp,2023.1.3,120.09860603181868,
180,180,168,0,270,0,0,168,0,180,f,present,resp,freq_top,0,27,27,47,,,,,,,,,,,,157.04893508249734,157.2550320912087,157.25504491999527,0.9598661024020836,158.22059385732064,158.2206066861072,312.87618425728215,312.87618425728215,159.7706896242089,f,1,159.77121432154308,,159.77125152502413,159.77125986373358,159.77170983339238,1.5157641567784594,None,,,,,,,,,,,,,,,,,,,,,,,,,,,,,,,,,,,cml,001,1,26,m,2024-02-08_14h57.30.496,eye_track_exp,2023.1.3,120.09860603181868,
0,168,180,90,0,180,0,168,0,0,f,present,resp,freq_top,0,28,28,48,,,,,,,,,,,,159.77219668581165,159.7729462076204,159.7729558292085,1.0175215145599206,160.7937849664595,160.7937974745255,315.4490142361028,315.4490142361028,161.77726245258236,f,1,161.77778298056364,316.41489447682034,162.28325766487978,162.28326792790904,162.28395619226285,0.9428575259626086,None,,,,,,,,,,,,,,,,,,,,,,,,,,,,,,,,,,,cml,001,1,26,m,2024-02-08_14h57.30.496,eye_track_exp,2023.1.3,120.09860603181868,
0,270,0,0,12,0,0,12,0,0,j,present,resp,freq_top,0,29,29,40,,,,,,,,,,,,162.284470947292,162.28525125818487,162.28526120049355,1.0207254074546734,163.30782831749457,163.3078411462775,317.9635967168542,317.9635967168542,164.2081739891255,j,1,164.20868393335695,318.83784511037084,164.70661304661917,164.7066217060492,164.70698091205122,0.8594117269421986,None,319.33742272260133,,,,,,,,,,,,,,,,,,,,,,,,,,,,,,,,,,cml,001,1,26,m,2024-02-08_14h57.30.496,eye_track_exp,2023.1.3,120.09860603181868,
90,0,0,12,0,12,180,180,180,0,j,present,resp,freq_top,0,30,30,32,,,,,,,,,,,,164.70750368506924,164.70824807536337,164.70825865910956,0.8229521690158019,165.53096580230704,165.5309786310936,320.1867396539019,320.1867396539019,167.29751525663596,j,1,167.29803482245552,,167.29878274066505,167.29879332441487,202.87511978878683,1.7244939530392003,None,,,,,,,,,,,,,,,,,,,,,,,,,,,,,,,,,,,cml,001,1,26,m,2024-02-08_14h57.30.496,eye_track_exp,2023.1.3,120.09860603181868,
0,0,0,-168,0,0,0,12,0,0,None,abs,inhibit,freq_top,0,31,31,23,,,,,,,,,,,,202.87567591664993,202.87650946700523,202.876520371472,0.7789056125554212,203.65742972712178,203.6574425559047,358.31321929397745,358.31321929397745,206.67143619539274,None,1,206.67207378604508,,206.6721125931217,206.6721215732723,206.67270464158355,,,,,,,,,,,,,,,,,,,,,,,,,,,,,,,,,,,,,cml,001,1,26,m,2024-02-08_14h57.30.496,eye_track_exp,2023.1.3,120.09860603181868,
0,180,0,180,168,180,12,180,0,180,None,abs,inhibit,freq_top,0,32,32,28,,,,,,,,,,,,206.67318315529337,206.96374905869015,206.96376220819366,1.0165697972960157,207.97883025848932,207.9788430872759,362.6346076379996,362.6346076379996,210.99282197365756,None,1,210.9932148552216,,210.99325270014015,210.99326168029074,210.99393519154182,,,,,,,,,,,,,,,,,,,,,,,,,,,,,,,,,,,,,cml,001,1,26,m,2024-02-08_14h57.30.496,eye_track_exp,2023.1.3,120.09860603181868,
0,180,0,12,0,180,180,180,0,12,j,abs,resp,freq_top,0,33,33,4,,,,,,,,,,,,210.99441242236935,211.25272162689726,211.25273381424267,0.8936236978483044,212.15063816794645,212.15065067601245,366.80613363489465,366.80613363489465,213.05119775958156,j,1,213.05170738309607,,213.05174490729405,213.0517532460035,213.05222181740464,0.8634543980479066,None,,,,,,,,,,,,,,,,,,,,,,,,,,,,,,,,,,,cml,001,1,26,m,2024-02-08_14h57.30.496,eye_track_exp,2023.1.3,120.09860603181868,
180,270,0,0,168,0,0,168,180,0,f,present,resp,freq_top,0,34,34,45,,,,,,,,,,,,213.05269487887927,214.03305304574678,214.03306619525392,1.0299619768449946,215.06501853118243,215.0650320014065,369.7203513932691,369.7203513932691,216.4975317416247,f,1,216.4980448930546,,216.4980824172526,216.49809075596204,216.49855964808376,1.3899561036341765,None,,,,,,,,,,,,,,,,,,,,,,,,,,,,,,,,,,,cml,001,1,26,m,2024-02-08_14h57.30.496,eye_track_exp,2023.1.3,120.09860603181868,
180,168,0,180,0,180,180,180,168,180,f,abs,resp,freq_top,0,35,35,12,,,,,,,,,,,,216.49904233114648,216.7227138141643,216.72272632223394,0.7166951219811406,217.43830957656246,217.43832208462845,372.093374637745,372.093374637745,218.77061553797103,f,1,218.77113029299653,,218.77116845863566,218.77117711806568,218.7716447273051,1.2883643078966998,None,,,,,,,,,,,,,,,,,,,,,,,,,,,,,,,,,,,cml,001,1,26,m,2024-02-08_14h57.30.496,eye_track_exp,2023.1.3,120.09860603181868,
12,0,0,12,0,0,180,0,180,180,j,abs,resp,freq_top,0,36,36,6,,,,,,,,,,,,218.77213093828686,219.02087852807745,219.020891356864,0.8043632221925817,219.82733769341212,219.82735052219869,374.48304772179836,374.48304772179836,221.26068124701123,j,1,221.2611895876471,,221.2612267911245,221.26123512983395,221.26186470249377,1.394399995013373,None,,,,,,,,,,,,,,,,,,,,,,,,,,,,,,,,,,,cml,001,1,26,m,2024-02-08_14h57.30.496,eye_track_exp,2023.1.3,120.09860603181868,
12,0,0,-168,0,0,180,180,180,180,None,abs,inhibit,freq_top,0,37,37,27,,,,,,,,,,,,221.2623512341961,221.55979048027075,221.55980330905732,1.0725076930043949,222.63329525322115,222.63330776128714,377.28901394104105,377.28901394104105,225.64725585858832,None,1,225.6476650968507,,225.6477032624898,225.64771256336098,225.6492295672724,,,,,,,,,,,,,,,,,,,,,,,,,,,,,,,,,,,,,cml,001,1,26,m,2024-02-08_14h57.30.496,eye_track_exp,2023.1.3,120.09860603181868,
0,180,0,12,0,12,0,180,180,180,j,abs,resp,freq_top,0,38,38,0,,,,,,,,,,,,225.64971481609246,225.65044413256328,225.65045407487196,1.0718327148098141,226.72198161121923,226.7219944400058,381.3772573852111,381.3772573852111,227.84698048870268,j,1,227.84748722573931,,227.84752410849615,227.84753340936732,227.847940081876,1.0762935751045006,None,,,,,,,,,,,,,,,,,,,,,,,,,,,,,,,,,,,cml,001,1,26,m,2024-02-08_14h57.30.496,eye_track_exp,2023.1.3,120.09860603181868,
0,270,0,0,12,0,180,180,180,12,j,present,resp,freq_top,0,39,39,42,,,,,,,,,,,,227.8484176334241,228.13807686238943,228.1380903326135,1.0226941427145617,229.1618120403291,229.16182518983624,383.81690821131997,383.81690821131997,230.21168618994125,j,1,230.21221826383044,,230.2122551465909,230.21226348530035,230.2127140964003,1.0044241516188777,None,,,,,,,,,,,,,,,,,,,,,,,,,,,,,,,,,,,cml,001,1,26,m,2024-02-08_14h57.30.496,eye_track_exp,2023.1.3,120.09860603181868,
0,0,168,0,0,0,0,0,168,0,f,abs,resp,freq_top,0,40,40,11,,,,,,,,,,,,230.21319485514687,230.55239628889103,230.55240879695702,1.0456547670076761,231.60146382859966,231.6014766573826,386.25653915281146,386.25653915281146,232.81801790128884,f,1,232.8186160434234,,232.81865260546328,232.81866094417273,232.8191452308347,1.1730287132777448,None,,,,,,,,,,,,,,,,,,,,,,,,,,,,,,,,,,,cml,001,1,26,m,2024-02-08_14h57.30.496,eye_track_exp,2023.1.3,120.09860603181868,
90,0,180,168,180,180,0,168,0,0,f,present,resp,freq_top,0,41,41,46,,,,,,,,,,,,232.8196240652651,233.09995067332056,233.09996318138656,0.8031186601041099,233.90766930469545,233.90769143434954,388.5629736227311,388.5629736227311,235.02400233740627,f,1,235.02452190322947,,235.02455974814802,235.02456840757804,235.02503056458227,1.0739529631464393,None,,,,,,,,,,,,,,,,,,,,,,,,,,,,,,,,,,,cml,001,1,26,m,2024-02-08_14h57.30.496,eye_track_exp,2023.1.3,120.09860603181868,
180,180,0,168,180,180,180,0,0,168,f,abs,resp,freq_top,0,42,42,18,,,,,,,,,,,,235.02553152866676,235.34000515717344,235.3400186273975,0.7000499966359806,236.03934043363915,236.03935390386323,390.6945081251106,390.6945081251106,237.07296115315694,f,1,237.0735900843756,,237.0736276085736,237.07363594728668,237.0741256861802,0.9905161442766257,None,,,,,,,,,,,,,,,,,,,,,,,,,,,,,,,,,,,cml,001,1,26,m,2024-02-08_14h57.30.496,eye_track_exp,2023.1.3,120.09860603181868,
0,180,0,12,0,180,180,12,0,0,j,abs,resp,freq_top,0,43,43,2,,,,,,,,,,,,237.07460836924292,237.44632596405427,237.4463387928372,0.9506951645261696,238.40371451076862,238.4037273395552,393.0592170335476,393.0592170335476,239.27056646786514,j,1,239.27107512921793,,239.27111137053726,239.27112002997092,239.27159886439767,0.8180020101608534,None,,,,,,,,,,,,,,,,,,,,,,,,,,,,,,,,,,,cml,001,1,26,m,2024-02-08_14h57.30.496,eye_track_exp,2023.1.3,120.09860603181868,
90,0,0,12,0,180,180,180,0,12,j,present,resp,freq_top,0,44,44,36,,,,,,,,,,,,239.27207994386117,239.66172704962446,239.66173987841103,1.0553018339721811,240.71878114989522,240.7187939786818,395.37392125947736,395.37392125947736,241.33511803124566,j,1,241.33564112498425,,241.335677045583,241.3356850635755,241.33613888187028,0.5670751303914585,None,,,,,,,,,,,,,,,,,,,,,,,,,,,,,,,,,,,cml,001,1,26,m,2024-02-08_14h57.30.496,eye_track_exp,2023.1.3,120.09860603181868,
168,0,180,0,0,180,180,0,168,0,f,abs,resp,freq_top,0,45,45,13,,,,,,,,,,,,241.33661643341838,241.61834073768114,241.6183535664677,0.762096806521373,242.3840268147287,242.38403964351528,397.03919707195746,397.03919707195746,243.1013788378914,f,1,243.10189968659324,,243.10193721079122,243.10194619094182,243.10241187586507,0.6774610587526695,None,,,,,,,,,,,,,,,,,,,,,,,,,,,,,,,,,,,cml,001,1,26,m,2024-02-08_14h57.30.496,eye_track_exp,2023.1.3,120.09860603181868,
180,0,180,0,12,180,180,180,12,180,j,abs,resp,freq_top,0,46,46,9,,,,,,,,,,,,243.10289776612626,243.10364472217407,243.10365466448275,0.8945086878900643,244.0072219649337,244.00723543516142,398.6628348152699,398.6628348152699,244.77452831762275,j,1,244.77505301495694,,244.7750898977174,244.77509855714743,244.7755517340047,0.7179932865874434,None,,,,,,,,,,,,,,,,,,,,,,,,,,,,,,,,,,,cml,001,1,26,m,2024-02-08_14h57.30.496,eye_track_exp,2023.1.3,120.09860603181868,
180,12,180,-168,180,180,0,180,180,180,None,abs,inhibit,freq_top,0,47,47,26,,,,,,,,,,,,244.77605526384286,244.7833795383449,244.78339012209108,1.0767250573535492,245.86415406345623,245.86416689223915,400.51963381513633,400.51963381513633,247.03068292758326,j,0,247.03118196734795,401.6686590839963,247.53703253508502,247.53704279811427,247.53817333485858,1.1174329252244206,None,,,,,,,,,,,,,,,,,,,,,,,,,,,,,,,,,,,cml,001,1,26,m,2024-02-08_14h57.30.496,eye_track_exp,2023.1.3,120.09860603181868,
180,168,180,0,180,0,180,0,0,168,f,abs,resp,freq_top,0,48,48,20,,,,,,,,,,,,247.5387201618505,247.5394680800564,247.5394780223687,0.8050627526779482,248.34540415165247,248.34541698043904,403.0008768475054,403.0008768475054,249.09584546188125,f,1,249.09634097373055,,249.09706547940732,249.09707574243657,249.09764534052374,0.7000881503226992,None,,,,,,,,,,,,,,,,,,,,,,,,,,,,,,,,,,,cml,001,1,26,m,2024-02-08_14h57.30.496,eye_track_exp,2023.1.3,120.09860603181868,
0,180,0,0,180,168,180,0,0,168,f,abs,resp,freq_top,0,49,49,16,,,,,,,,,,,,249.09813283438052,249.41132101855692,249.411334488781,0.8229527181167577,250.23517826239186,250.23519109117842,404.89096109414095,404.89096109414095,251.18560687212448,f,1,251.18611874067574,,251.18615594415678,251.18616428286623,251.18664279657241,0.9055273630510783,None,,,,,,,,,,,,,,,,,,,,,,,,,,,,,,,,,,,cml,001,1,26,m,2024-02-08_14h57.30.496,eye_track_exp,2023.1.3,120.09860603181868,
,,,,,,,,,,,,,,,,,,,,,,,,,,,,,,,,,,,,,,,,,,,,,,,,251.18669250811945,251.68908186946283,251.68909758472728,253.08284412897046,space,1.377809809291648,None,,,,,,,,,,,,,,,,,,,,,,,,,,,cml,001,1,26,m,2024-02-08_14h57.30.496,eye_track_exp,2023.1.3,120.09860603181868,
270,180,12,180,180,180,180,12,180,180,j,present,resp,freq_top,,,,,0,0,0,451,,,,,,253.0828688243855,253.58444387855343,,,,1.082626472514616,,,,,,,,,,,,,,,,,,,,,,,253.7307491241154,253.73295086446888,253.73296369325544,254.81513848032773,254.8151532334341,409.47048160544364,409.47048160544364,255.94915182483237,j,1,1.093991205758357,None,255.95054406880445,255.9505880073957,255.95059730826688,255.95098698263246,,,,,,,,,,,cml,001,1,26,m,2024-02-08_14h57.30.496,eye_track_exp,2023.1.3,120.09860603181868,
0,0,168,0,0,0,0,0,180,168,f,abs,resp,freq_top,,,,,0,1,1,899,,,,,,,,,,,1.0787838150811608,,,,,,,,,,,,,,,,,,,,,,,255.9514687035371,255.95235260687332,255.95236383206066,257.0381720519799,257.0381861636415,411.69359760204316,411.69359760204316,257.9889595469904,f,1,0.9026424898547702,None,257.9894691705049,257.98950669470287,257.98951567485346,257.9899938678427,,,,,,,,,,,cml,001,1,26,m,2024-02-08_14h57.30.496,eye_track_exp,2023.1.3,120.09860603181868,
0,90,0,-168,0,0,180,180,180,12,None,present,inhibit,freq_top,,,,,0,2,2,158,,,,,,,,,,,0.8529528019612186,,,,,,,,,,,,,,,,,,,,,,,257.99047270226947,257.9913941298073,257.991404072116,258.853522527992,258.8535369603742,413.5087489111538,413.5087489111538,261.8850816616359,None,1,,,261.88558743651447,261.8856262435911,261.8856352237417,261.8860810240476,414.99918986217745,414.99918986217745,414.99918986217745,414.99918986217745,416.48959809979715,416.48959809979715,,,,,cml,001,1,26,m,2024-02-08_14h57.30.496,eye_track_exp,2023.1.3,120.09860603181868,
180,270,0,12,180,0,180,180,0,12,j,present,resp,freq_top,,,,,0,3,3,576,,,,,,,,,,,0.8846421119440053,,,,,,,,,,,,,,,,,,,,,,,261.8865553684009,262.07670651715307,262.07671998737715,262.9667509945539,262.9667657476566,417.63032506859963,417.63032506859963,263.99155192387116,j,1,0.9670343348516326,None,263.9920586609078,263.9920955436646,263.9921045238152,263.99257726456926,,,,,,,,,,,cml,001,1,26,m,2024-02-08_14h57.30.496,eye_track_exp,2023.1.3,120.09860603181868,
270,180,180,180,168,180,12,180,0,180,None,present,inhibit,freq_top,,,,,0,4,4,116,,,,,,,,,,,0.777215731208011,,,,,,,,,,,,,,,,,,,,,,,263.9930528918012,264.25789515546785,264.25790926712943,265.04025672966236,265.0402708413276,419.69525219468414,419.69525219468414,268.0714775040833,None,1,,,268.07186974420983,268.07190694768724,268.07191592783784,268.07247173498035,421.1856739025279,421.1856739025279,421.1856739025279,421.1856739025279,422.67610940131635,422.67610940131635,,,,,cml,001,1,26,m,2024-02-08_14h57.30.496,eye_track_exp,2023.1.3,120.09860603181868,
180,90,180,-168,180,12,0,0,0,0,None,present,inhibit,freq_top,,,,,0,5,5,265,,,,,,,,,,,0.8230233779046343,,,,,,,,,,,,,,,,,,,,,,,268.0729675675466,268.2629336610662,268.2629471312939,269.08681271384194,269.08682682550716,423.7418748885466,423.7418748885466,272.1182316930026,None,1,,,272.11862714032395,272.11866434380136,272.11867428611004,272.119384359401,425.2322956342359,425.2322956342359,425.2322956342359,425.2322956342359,426.72271253128565,426.72271253128565,,,,,cml,001,1,26,m,2024-02-08_14h57.30.496,eye_track_exp,2023.1.3,120.09860603181868,
180,0,0,180,0,168,180,180,-168,180,f,abs,resp,freq_top,,,,,0,6,6,879,,,,,,,,,,,0.7570075601427477,,,,,,,,,,,,,,,,,,,,,,,272.1198731361401,272.1205062367153,272.12051649974455,272.8746281255735,272.8746425579593,427.5303817718341,427.5303817718341,274.4502124446917,f,1,1.5295464420196367,None,274.4507172574122,274.45075478161016,274.45076376176075,274.4511204020055,429.0207983481632,429.0207983481632,429.0207983481632,429.0207983481632,,,,,,,cml,001,1,26,m,2024-02-08_14h57.30.496,eye_track_exp,2023.1.3,120.09860603181868,
-12,0,90,180,12,180,180,180,0,180,j,present,resp,freq_top,,,,,0,7,7,505,,,,,,,,,,,0.942639498682591,,,,,,,,,,,,,,,,,,,,,,,274.45161976249074,274.7153658064126,274.7153799180778,275.6642976175681,275.66431204995024,430.31971354603957,430.31971354603957,277.50607410932935,j,1,1.7971561954873323,None,277.50658020492847,277.506618049847,277.5066270299976,277.5071029779465,431.81013653676564,431.81013653676564,431.81013653676564,431.81013653676564,,,,,,,cml,001,1,26,m,2024-02-08_14h57.30.496,eye_track_exp,2023.1.3,120.09860603181868,
180,180,0,270,180,0,180,12,0,12,j,present,resp,freq_top,,,,,0,8,8,579,,,,,,,,,,,1.0664015959870883,,,,,,,,,,,,,,,,,,,,,,,277.50757828445785,277.7220079102299,277.7220217011745,278.7869542794906,278.7869693533139,433.44213512046554,433.44213512046554,281.8023218819326,j,1,2.978051375328505,None,281.80283342976327,281.80287191612297,281.8028808962699,281.80326159048855,434.9325253977877,434.9325253977877,434.9325253977877,434.9325253977877,436.4229580100982,436.4229580100982,,,,,cml,001,1,26,m,2024-02-08_14h57.30.496,eye_track_exp,2023.1.3,120.09860603181868,
180,-12,180,-168,0,180,0,90,180,180,None,present,inhibit,freq_top,,,,,0,9,9,4,,,,,,,,,,,0.9026940780190243,,,,,,,,,,,,,,,,,,,,,,,281.803737859158,281.8043969380269,281.80440720105616,282.7170133432228,282.71702713416744,437.37216916806574,437.37216916806574,285.7483723478108,None,1,,,285.7487488726729,285.74878639687086,285.74879537702145,285.7491985216111,438.8625854236743,438.8625854236743,438.8625854236743,438.8625854236743,440.35300616936,440.35300616936,,,,,cml,001,1,26,m,2024-02-08_14h57.30.496,eye_track_exp,2023.1.3,120.09860603181868,
180,0,180,168,180,0,180,180,168,180,f,abs,resp,freq_top,,,,,0,10,10,831,,,,,,,,,,,0.9098090825711147,,,,,,,,,,,,,,,,,,,,,,,285.7496773560415,285.7504246328099,285.75043521655607,286.6638409127954,286.66385502446064,441.3188649218646,441.3188649218646,287.6805917790589,f,1,0.9729525744369312,None,287.68111230704017,287.68114983123814,287.68115881138874,287.6816164783195,,,,,,,,,,,cml,001,1,26,m,2024-02-08_14h57.30.496,eye_track_exp,2023.1.3,120.09860603181868,
0,0,0,-168,0,0,0,12,0,0,None,abs,inhibit,freq_top,,,,,0,11,11,337,,,,,,,,,,,0.795481355692244,,,,,,,,,,,,,,,,,,,,,,,287.6821116694482,287.71340749226874,287.71342000033474,288.5120779810568,288.5120924134426,443.16732168308226,443.16732168308226,289.9284266007453,j,0,1.3807283580499643,None,289.92896861694317,290.4345138595818,290.4345266883647,290.43538461341086,,,,,,,444.5661346355373,,,,cml,001,1,26,m,2024-02-08_14h57.30.496,eye_track_exp,2023.1.3,120.09860603181868,
0,168,0,168,0,180,0,180,90,0,f,present,resp,freq_top,,,,,0,12,12,589,,,,,,,,,,,1.0342686101357013,,,,,,,,,,,,,,,,,,,,,,,290.43590065131866,290.4365699932132,290.4365815391211,291.47603582823285,291.47605026061865,446.13151397631736,446.13151397631736,292.76021043057335,f,1,1.2477993666616385,None,292.76071716761,292.76144263544484,292.7614535399116,292.7620103092122,,,,,,,,,,,cml,001,1,26,m,2024-02-08_14h57.30.496,eye_track_exp,2023.1.3,120.09860603181868,
0,168,0,-168,180,0,0,180,0,0,f,abs,resp,freq_top,,,,,0,13,13,960,,,,,,,,,,,0.9763661524678322,,,,,,,,,,,,,,,,,,,,,,,292.76250453818284,293.0252550683326,293.025269821439,294.0073002205281,294.00731433219335,448.6627155075621,448.6627155075621,295.1079096519934,f,1,1.0524410137732048,None,295.1084211998277,295.1084584033051,295.10846706273514,295.10909759755305,,,,,,,,,,,cml,001,1,26,m,2024-02-08_14h57.30.496,eye_track_exp,2023.1.3,120.09860603181868,
0,-12,0,-12,180,270,180,0,0,0,j,present,resp,freq_top,,,,,0,14,14,657,,,,,,,,,,,0.7993559898947901,,,,,,,,,,,,,,,,,,,,,,,295.1095809220569,295.37323491944335,295.37324903110857,296.1717161836423,296.1717302953075,450.8275824024968,450.8275824024968,297.1724612153739,j,1,0.952206824291352,None,297.1729682731311,297.17300611804967,297.17301509820027,297.1734782173662,,,,,,,,,,,cml,001,1,26,m,2024-02-08_14h57.30.496,eye_track_exp,2023.1.3,120.09860603181868,
-168,0,0,180,168,180,180,0,180,0,f,abs,resp,freq_top,,,,,0,15,15,940,,,,,,,,,,,0.7094086270271956,,,,,,,,,,,,,,,,,,,,,,,297.1739586553922,297.39682128346976,297.3968350744144,298.11205623626665,298.1120700272113,452.767624827291,452.767624827291,299.01291570076864,f,1,0.8518565342928923,None,299.0135481599027,299.0135866462624,299.013595626413,299.0140641978105,,,,,,,,,,,cml,001,1,26,m,2024-02-08_14h57.30.496,eye_track_exp,2023.1.3,120.09860603181868,
0,0,180,180,-168,0,0,0,180,168,f,abs,resp,freq_top,,,,,0,16,16,900,,,,,,,,,,,0.9375545596823849,,,,,,,,,,,,,,,,,,,,,,,299.0145443151159,299.2541754490412,299.25418956070644,300.19363512624477,300.1936498793475,454.849224243324,454.849224243324,301.1446859320822,f,1,0.9144898734884919,None,301.14528984717253,301.1453283335286,301.1453379551167,301.1457071034274,,,,,,,,,,,cml,001,1,26,m,2024-02-08_14h57.30.496,eye_track_exp,2023.1.3,120.09860603181868,
90,180,180,180,-12,180,0,180,12,180,j,present,resp,freq_top,,,,,0,17,17,498,,,,,,,,,,,1.0762975853035417,,,,,,,,,,,,,,,,,,,,,,,301.1462026152767,301.4017087301181,301.4017222003422,302.4834486213549,302.48346273302013,457.13897648098646,457.13897648098646,305.5153268710492,None,0,,,305.51570403734877,306.0214856503626,306.02149687554993,306.02227494140607,458.6293975473927,458.6293975473927,458.6293975473927,458.6293975473927,460.1198227831519,460.1198227831519,460.1531025776858,,,,cml,001,1,26,m,2024-02-08_14h57.30.496,eye_track_exp,2023.1.3,120.09860603181868,
0,180,168,0,180,180,180,180,0,12,None,abs,inhibit,freq_top,,,,,0,18,18,389,,,,,,,,,,,1.0626983057235804,,,,,,,,,,,,,,,,,,,,,,,306.02279546938735,306.0238426190226,306.0238612207613,307.0881898839907,307.08820431637287,461.74345603639085,461.74345603639085,310.11950238423015,None,1,,,310.1198914171582,310.1206531263124,310.1206653136578,310.12131156374016,463.23386170825324,463.23386170825324,463.23386170825324,463.23386170825324,464.724295924163,464.724295924163,,,,,cml,001,1,26,m,2024-02-08_14h57.30.496,eye_track_exp,2023.1.3,120.09860603181868,
-12,180,180,270,0,12,180,180,180,0,j,present,resp,freq_top,,,,,0,19,19,595,,,,,,,,,,,0.7471493354918787,,,,,,,,,,,,,,,,,,,,,,,310.1218147728614,310.1225415235749,310.1225514658836,310.8765489155194,310.8765630271846,465.5319549016858,465.5319549016858,311.9519908351176,j,1,1.0313841655770375,None,311.9525164946135,311.95255626384824,311.95256524399883,311.95304247482636,,,,,,,,,,,cml,001,1,26,m,2024-02-08_14h57.30.496,eye_track_exp,2023.1.3,120.09860603181868,
0,270,0,12,0,-12,180,180,180,180,j,present,resp,freq_top,,,,,0,20,20,426,,,,,,,,,,,0.8299462060009839,,,,,,,,,,,,,,,,,,,,,,,311.9535306101243,312.20905051591035,312.209064306855,313.0416326169325,313.0416464078771,467.6968214758999,467.6968214758999,314.02456231390534,j,1,0.9457651702505245,None,314.0250703338206,314.025107537298,314.02511619672805,314.02568547409464,,,,,,,,,,,cml,001,1,26,m,2024-02-08_14h57.30.496,eye_track_exp,2023.1.3,120.09860603181868,
90,0,12,180,180,-168,0,0,0,0,None,present,inhibit,freq_top,,,,,0,21,21,275,,,,,,,,,,,1.0396950956457054,,,,,,,,,,,,,,,,,,,,,,,314.0261627049258,314.2329652968547,314.2329790877993,315.27291798428996,315.2729317752346,469.9282822769019,469.9282822769019,318.3045595428848,None,1,,,318.30493446414766,318.3049735919449,318.30498257209547,318.3055621124913,471.41871328561683,471.41871328561683,471.41871328561683,471.41871328561683,472.90910837373303,472.90910837373303,,,,,cml,001,1,26,m,2024-02-08_14h57.30.496,eye_track_exp,2023.1.3,120.09860603181868,
0,0,0,0,168,0,0,12,0,0,None,abs,inhibit,freq_top,,,,,0,22,22,343,,,,,,,,,,,0.7862782489264039,,,,,,,,,,,,,,,,,,,,,,,318.3060415883592,318.595909926531,318.5959230760345,319.38575036209295,319.3857641530376,474.04151074346373,474.04151074346373,322.4174053909119,None,1,,,322.4177896130459,322.41782649580637,322.4178351552364,322.41854907716333,475.5319343756273,475.5319343756273,475.5319343756273,475.5319343756273,477.02235127267704,477.02235127267704,,,,,cml,001,1,26,m,2024-02-08_14h57.30.496,eye_track_exp,2023.1.3,120.09860603181868,
180,-168,180,270,0,180,12,0,180,180,None,present,inhibit,freq_top,,,,,0,23,23,51,,,,,,,,,,,0.7790726300452356,,,,,,,,,,,,,,,,,,,,,,,322.41903721246126,322.4199201536394,322.41993137882673,323.1994719030372,323.1994866561399,477.85497731229043,477.85497731229043,326.2310836347024,None,1,,,326.23146304604234,326.2315005702403,326.23150922967034,326.23205092514763,479.34541120748327,479.34541120748327,479.34541120748327,479.34541120748327,480.8358341982057,480.8358341982057,,,,,cml,001,1,26,m,2024-02-08_14h57.30.496,eye_track_exp,2023.1.3,120.09860603181868,
0,0,180,0,168,0,0,0,168,0,f,abs,resp,freq_top,,,,,0,24,24,949,,,,,,,,,,,0.923473169041034,,,,,,,,,,,,,,,,,,,,,,,326.2325502856329,326.2331740853406,326.23318402764926,327.1547857143778,327.1548001467636,481.8100335857598,481.8100335857598,328.2133414240234,f,1,1.0084934424558014,None,328.213852009696,328.2138898546109,328.21389851404456,328.2141746536545,,,,,,,,,,,cml,001,1,26,m,2024-02-08_14h57.30.496,eye_track_exp,2023.1.3,120.09860603181868,
12,0,270,180,0,180,168,180,0,0,None,present,inhibit,freq_top,,,,,0,25,25,216,,,,,,,,,,,0.8475788572353666,,,,,,,,,,,,,,,,,,,,,,,328.21465445024296,328.7368039902685,328.7368181019301,329.5860426659783,329.58605709836047,484.2413200435658,484.2413200435658,332.617754782892,None,1,,,332.6181332320739,332.6181704355513,332.6181794157019,332.61862104665124,485.7400904044516,485.7400904044516,485.7400904044516,485.7400904044516,487.21384206738367,487.21384206738367,,,,,cml,001,1,26,m,2024-02-08_14h57.30.496,eye_track_exp,2023.1.3,120.09860603181868,
180,12,0,270,180,-168,180,180,0,180,None,present,inhibit,freq_top,,,,,0,26,26,108,,,,,,,,,,,0.9973760777455347,,,,,,,,,,,,,,,,,,,,,,,332.6191043711551,332.61983881913693,332.6198490821662,333.61584393525845,333.6158583676406,488.2712922564133,488.2712922564133,336.6475663152014,None,1,,,336.6479585553243,336.64799543808476,336.64800441823536,336.64846336804476,489.7616963246801,489.7616963246801,489.7616963246801,489.7616963246801,491.25216646119225,491.25216646119225,,,,,cml,001,1,26,m,2024-02-08_14h57.30.496,eye_track_exp,2023.1.3,120.09860603181868,
168,0,270,180,180,180,180,168,180,180,f,present,resp,freq_top,,,,,0,27,27,448,,,,,,,,,,,0.7359255412556898,,,,,,,,,,,,,,,,,,,,,,,336.6489434853502,336.6496910828391,336.6497013458684,337.3878385676944,337.38785235863907,492.0431194731973,492.0431194731973,338.321541006575,f,1,0.8869730902297306,None,338.3220487057697,338.3220868714052,338.3220958515558,338.3225467833763,,,,,,,,,,,cml,001,1,26,m,2024-02-08_14h57.30.496,eye_track_exp,2023.1.3,120.09860603181868,
0,12,0,270,180,168,0,0,0,0,None,present,inhibit,freq_top,,,,,0,28,28,257,,,,,,,,,,,0.8423140516899525,,,,,,,,,,,,,,,,,,,,,,,338.32302657996115,338.61243276112873,338.6124465520734,339.46087669355984,339.46089016378755,494.11639781807753,494.11639781807753,342.4922241522436,None,1,,,342.4926000356645,342.492636918425,342.4926458985756,342.49310292406517,495.6068278646344,495.6068278646344,495.6068278646344,495.6068278646344,497.09724989319875,497.09724989319875,,,,,cml,001,1,26,m,2024-02-08_14h57.30.496,eye_track_exp,2023.1.3,120.09860603181868,
180,180,-168,180,0,180,0,0,0,168,f,abs,resp,freq_top,,,,,0,29,29,926,,,,,,,,,,,0.8039192413566394,,,,,,,,,,,,,,,,,,,,,,,342.4935849656904,342.88351687049726,342.88353098215885,343.6908657121203,343.6908801445061,498.34618959405634,498.34618959405634,344.9076080472405,f,1,1.1760790778062074,None,344.9081208779535,344.9081587228684,344.90816738230205,344.9087238308821,,,,,,,,,,,cml,001,1,26,m,2024-02-08_14h57.30.496,eye_track_exp,2023.1.3,120.09860603181868,
0,0,12,0,0,-168,0,0,0,0,None,abs,inhibit,freq_top,,,,,0,30,30,353,,,,,,,,,,,0.9319510466032199,,,,,,,,,,,,,,,,,,,,,,,344.9092029860294,345.1818929386536,345.1819073710358,346.11383270237275,346.1138471347549,500.7774831076931,500.7774831076931,349.15394382531304,None,1,,,349.15432548168974,349.1543630058877,349.15437166531774,349.15529437573423,502.2679157200073,502.2679157200073,502.2679157200073,502.2679157200073,503.75002373325333,503.75002373325333,,,,,cml,001,1,26,m,2024-02-08_14h57.30.496,eye_track_exp,2023.1.3,120.09860603181868,
180,12,180,-168,180,270,180,180,0,180,None,present,inhibit,freq_top,,,,,0,31,31,106,,,,,,,,,,,0.7565735486432561,,,,,,,,,,,,,,,,,,,,,,,349.15577353088156,349.1565397301092,349.15654999313847,349.9191860263745,349.91919981731917,504.5743434548167,504.5743434548167,352.94993213572525,None,1,,,352.95031379210195,352.950352278458,352.9503612586086,352.9508054553153,506.0647497681166,506.0647497681166,506.0647497681166,506.0647497681166,507.5551547985415,507.5551547985415,,,,,cml,001,1,26,m,2024-02-08_14h57.30.496,eye_track_exp,2023.1.3,120.09860603181868,
90,0,180,168,180,180,0,168,0,0,f,present,resp,freq_top,,,,,0,32,32,640,,,,,,,,,,,0.8386385151212725,,,,,,,,,,,,,,,,,,,,,,,352.95131347523056,352.9521252166487,352.9521354796743,353.7908939995941,353.7909084319763,508.4544215692913,508.4544215692913,354.9827683749936,f,1,1.1474096281526727,None,354.98337293152144,354.9834104557194,354.98341911514945,354.9839155891568,,,,,,,,,,,cml,001,1,26,m,2024-02-08_14h57.30.496,eye_track_exp,2023.1.3,120.09860603181868,
90,0,180,0,180,12,0,180,-12,0,j,present,resp,freq_top,,,,,0,33,33,709,,,,,,,,,,,0.9932291316898807,,,,,,,,,,,,,,,,,,,,,,,354.984401479418,355.2073654549022,355.20737988728797,356.2051726946993,356.20518648564394,510.8607541145102,510.8607541145102,357.2721306175663,j,1,1.0292536249835393,None,357.272638316761,357.272675840959,357.272684500389,357.2732531363181,,,,,,,,,,,cml,001,1,26,m,2024-02-08_14h57.30.496,eye_track_exp,2023.1.3,120.09860603181868,
180,180,0,0,180,180,180,168,0,168,f,abs,resp,freq_top,,,,,0,34,34,911,,,,,,,,,,,0.9698763421146289,,,,,,,,,,,,,,,,,,,,,,,357.273732612186,357.5625672709466,357.56258106189125,358.536359985992,358.53637377693667,513.192134479028,513.192134479028,359.2701120081292,f,1,0.697646511678613,None,359.2706386297832,359.27067647470176,359.27068545485236,359.2711440839412,,,,,,,,,,,cml,001,1,26,m,2024-02-08_14h57.30.496,eye_track_exp,2023.1.3,120.09860603181868,
12,0,90,0,0,-168,0,0,0,0,None,present,inhibit,freq_top,,,,,0,35,35,274,,,,,,,,,,,0.9294205852138578,,,,,,,,,,,,,,,,,,,,,,,359.2716261255664,359.51950424440656,359.51951739391006,360.4519366334971,360.45195042444175,515.107188674232,515.107188674232,363.48308364240074,None,1,,,363.4834665816561,363.48350442657465,363.48351404816276,363.4841753720684,516.5975914596202,516.5975914596202,516.5975914596202,516.5975914596202,518.0880314484821,518.0880314484821,,,,,cml,001,1,26,m,2024-02-08_14h57.30.496,eye_track_exp,2023.1.3,120.09860603181868,
0,0,0,0,0,168,0,0,0,168,f,abs,resp,freq_top,,,,,0,36,36,929,,,,,,,,,,,1.0305644939017833,,,,,,,,,,,,,,,,,,,,,,,363.4846721667964,363.79910634678527,363.7991201377299,364.83169242473014,364.8317062156748,519.4868678134735,519.4868678134735,365.6317747213907,f,1,0.7545665511424886,None,365.63228755210366,365.6323253970186,365.63233405645224,365.6328084008019,,,,,,,,,,,cml,001,1,26,m,2024-02-08_14h57.30.496,eye_track_exp,2023.1.3,120.09860603181868,
180,0,180,0,-168,180,-168,180,180,180,f,abs,resp,freq_top,,,,,0,37,37,773,,,,,,,,,,,0.7602191546214672,,,,,,,,,,,,,,,,,,,,,,,365.6332878766698,365.6340175138612,365.63402745616986,366.3968350744144,366.39684982751714,521.0605380777597,521.0605380777597,367.33856159805873,f,1,0.893072536407999,None,367.3391501186052,367.33918668064143,367.33919566079203,367.339676098818,,,,,,,,,,,cml,001,1,26,m,2024-02-08_14h57.30.496,eye_track_exp,2023.1.3,120.09860603181868,
0,12,180,0,270,0,180,180,12,180,j,present,resp,freq_top,,,,,0,38,38,496,,,,,,,,,,,1.0161867406589504,,,,,,,,,,,,,,,,,,,,,,,367.34016070620055,367.5134355873088,367.5134487368159,368.5280305761298,368.528045008512,523.1837636963319,523.1837636963319,369.62825546474414,j,1,1.05716874204154,None,369.62878016208197,369.62881768627994,369.6288266664269,369.6294273743224,,,,,,,,,,,cml,001,1,26,m,2024-02-08_14h57.30.496,eye_track_exp,2023.1.3,120.09860603181868,
270,180,0,0,0,12,180,180,168,180,None,present,inhibit,freq_top,,,,,0,39,39,69,,,,,,,,,,,0.9572449906121074,,,,,,,,,,,,,,,,,,,,,,,369.629909415944,369.86114859967347,369.8611623906181,370.8182577995831,370.81827159052773,525.4818716428636,525.4818716428636,373.85747251112116,None,1,,,373.85786571340213,373.85790323760375,373.8579118970338,373.8583734126005,526.9639328310404,526.9639328310404,526.9639328310404,526.9639328310404,528.4543612739981,528.4543612739981,,,,,cml,001,1,26,m,2024-02-08_14h57.30.496,eye_track_exp,2023.1.3,120.09860603181868,
180,180,0,-168,180,180,-12,0,180,0,None,abs,inhibit,freq_top,,,,,0,40,40,406,,,,,,,,,,,0.8631133877107652,,,,,,,,,,,,,,,,,,,,,,,373.8588625100565,373.8596245399276,373.85963480295686,374.72314774784536,374.72316153879,529.3785758636659,529.3785758636659,376.3811066623748,f,0,1.6150005874515045,None,376.38161147509527,376.88723882196064,376.8872503678649,376.88789854226707,530.8689978922303,530.8689978922303,530.8689978922303,530.8689978922303,,,531.0188775582174,,,,cml,001,1,26,m,2024-02-08_14h57.30.496,eye_track_exp,2023.1.3,120.09860603181868,
180,270,0,180,180,180,180,12,0,-168,None,present,inhibit,freq_top,,,,,0,41,41,319,,,,,,,,,,,0.7921319597409248,,,,,,,,,,,,,,,,,,,,,,,376.88842869183645,377.4385847540143,377.4385998278376,378.2369159214213,378.23693003308654,532.8923340949332,532.8923340949332,381.2687300271864,None,1,,,381.2691132871587,381.26984741442357,381.26985831889033,383.3661620891435,534.3827102605901,534.3827102605901,534.3827102605901,534.3827102605901,535.8731617953599,535.8731617953599,,,,,cml,001,1,26,m,2024-02-08_14h57.30.496,eye_track_exp,2023.1.3,120.09860603181868,
180,180,0,0,0,168,180,180,168,180,f,abs,resp,freq_top,,,,,0,42,42,825,,,,,,,,,,,0.995808825534588,,,,,,,,,,,,,,,,,,,,,,,383.36671212333385,383.3675059044508,383.3675174503587,384.3652955046673,384.3653096163325,539.020533433737,539.020533433737,385.132462344307,f,1,0.7244448829369503,None,385.1330341874309,385.13307235307,385.1330813332206,385.13337543313173,,,,,,,,,,,cml,001,1,26,m,2024-02-08_14h57.30.496,eye_track_exp,2023.1.3,120.09860603181868,
168,0,180,180,180,180,0,168,180,180,f,abs,resp,freq_top,,,,,0,43,43,781,,,,,,,,,,,0.9456106639030715,,,,,,,,,,,,,,,,,,,,,,,385.1338645305914,385.3397864263752,385.33980021731986,386.2881553745574,386.28816980693955,540.943935319825,540.943935319825,386.9893283745805,f,1,0.6572252528421814,None,386.98986622142183,386.9899040663404,386.989913046491,386.9903905980391,,,,,,,,,,,cml,001,1,26,m,2024-02-08_14h57.30.496,eye_track_exp,2023.1.3,120.09860603181868,
0,168,0,168,180,0,180,0,0,0,f,abs,resp,freq_top,,,,,0,44,44,990,,,,,,,,,,,0.8689886869873278,,,,,,,,,,,,,,,,,,,,,,,386.9908601315983,387.2128067843769,387.21282025460096,388.0869268900351,388.0869410017003,542.7424191497848,542.7424191497848,388.70447577091545,f,1,0.5704202362758224,None,388.704990205224,388.7050283708595,388.7050373510101,388.70529488888496,,,,,,,,,,,cml,001,1,26,m,2024-02-08_14h57.30.496,eye_track_exp,2023.1.3,120.09860603181868,
0,0,0,0,270,-168,0,0,0,-168,f,present,resp,freq_top,,,,,0,45,45,725,,,,,,,,,,,0.8757412774936143,,,,,,,,,,,,,,,,,,,,,,,388.7057881556975,389.0034852603676,389.0034987305917,389.88556017534574,389.88557428701097,544.5409077905351,544.5409077905351,390.50346088567676,f,1,0.5801354757168156,None,390.5039676227134,390.50400610906945,390.50401508922005,390.50458148010875,,,,,,,,,,,cml,001,1,26,m,2024-02-08_14h57.30.496,eye_track_exp,2023.1.3,120.09860603181868,
180,90,180,0,12,0,-12,0,180,180,j,present,resp,freq_top,,,,,0,46,46,476,,,,,,,,,,,0.8742684584699507,,,,,,,,,,,,,,,,,,,,,,,390.5050564659032,390.8765441047253,390.8765585371075,391.7506314969796,391.75064721224044,546.4059887337571,546.4059887337571,392.95143085861855,j,1,1.1627926251348981,None,392.95195363163657,392.9519924387132,392.9520017395844,392.95246999026494,,,,,,,,,,,cml,001,1,26,m,2024-02-08_14h57.30.496,eye_track_exp,2023.1.3,120.09860603181868,
90,180,12,0,180,180,180,-168,180,180,None,present,inhibit,freq_top,,,,,0,47,47,62,,,,,,,,,,,1.0028212520442863,,,,,,,,,,,,,,,,,,,,,,,392.9529648606731,393.15040468404914,393.1504181542732,394.15665871709643,394.1566725080411,548.8123459743911,548.8123459743911,397.1884462031303,None,1,,,397.1888233694299,397.18886121434844,397.18887019449903,397.1894102863771,550.3027564570475,550.3027564570475,550.3027564570475,550.3027564570475,551.7931919558359,551.7931919558359,,,,,cml,001,1,26,m,2024-02-08_14h57.30.496,eye_track_exp,2023.1.3,120.09860603181868,
180,180,90,180,180,168,180,0,168,180,f,present,resp,freq_top,,,,,0,48,48,489,,,,,,,,,,,0.9453442767376294,,,,,,,,,,,,,,,,,,,,,,,397.18989745951694,397.1906174751166,397.1906274174253,398.1368709565286,398.1368850681938,552.7923362758265,552.7923362758265,398.83803273136436,f,1,0.6645158517821983,None,398.8385410720002,398.8385779547607,398.83858693490765,398.8390468468788,,,,,,,,,,,cml,001,1,26,m,2024-02-08_14h57.30.496,eye_track_exp,2023.1.3,120.09860603181868,
0,0,180,0,168,0,0,0,180,168,f,abs,resp,freq_top,,,,,0,49,49,901,,,,,,,,,,,1.0589921609375414,,,,,,,,,,,,,,,,,,,,,,,398.839528888504,399.1863458101834,399.1863602425692,400.2519785194818,400.25199231042643,554.907249482676,554.907249482676,400.90221482571724,f,1,0.6145826897518418,None,400.90274657888585,400.9027844238044,400.9027930832344,400.9033755101045,,,,,,,,,,,cml,001,1,26,m,2024-02-08_14h57.30.496,eye_track_exp,2023.1.3,120.09860603181868,
0,0,180,0,168,0,0,0,180,168,f,abs,resp,freq_top,,,,,0,50,50,898,,,,,,,,,,,0.7930737484863731,,,,,,,,,,,,,,,,,,,,,,,400.9038431193476,401.12663775486,401.12665154580463,401.9252617393031,401.9252758509683,556.5808508563823,556.5808508563823,402.5591249870122,f,1,0.5879417918367835,None,402.55963076189073,402.5596682860887,402.5596772662393,402.56023179050317,,,,,,,,,,,cml,001,1,26,m,2024-02-08_14h57.30.496,eye_track_exp,2023.1.3,120.09860603181868,
0,90,180,180,180,180,168,0,168,0,f,present,resp,freq_top,,,,,0,51,51,615,,,,,,,,,,,0.9287910141030419,,,,,,,,,,,,,,,,,,,,,,,402.5607090213307,402.5614935015801,402.56150376460937,403.4904281222407,403.49044255462286,558.146222820611,558.146222820611,404.1416429441051,f,1,0.6056785502914863,None,404.14215930272985,404.14219778908955,404.14220676924015,404.1426769442369,,,,,,,,,,,cml,001,1,26,m,2024-02-08_14h57.30.496,eye_track_exp,2023.1.3,120.09860603181868,
168,180,180,12,180,180,180,0,270,0,None,present,inhibit,freq_top,,,,,0,52,52,181,,,,,,,,,,,1.0904911538925393,,,,,,,,,,,,,,,,,,,,,,,404.1431650795348,404.4155105792597,404.4155250116419,405.50595736737887,405.5059711583235,560.1612049180403,560.1612049180403,408.5369048886678,None,1,,,408.5372782063314,408.53731605124995,408.53732503140054,408.5379674328469,561.6516189286158,561.6516189286158,561.6516189286158,561.6516189286158,563.142031335592,563.142031335592,,,,,cml,001,1,26,m,2024-02-08_14h57.30.496,eye_track_exp,2023.1.3,120.09860603181868,
180,180,180,168,180,180,168,180,0,180,f,abs,resp,freq_top,,,,,0,53,53,853,,,,,,,,,,,0.8150214887759006,,,,,,,,,,,,,,,,,,,,,,,408.53844402223694,408.72834084031274,408.7283543105368,409.5444453282071,409.54445976058923,564.1994789588643,564.1994789588643,410.4118412258176,f,1,0.8251293627981795,None,410.4123511700491,410.4123902978463,410.4123992779969,410.41287458450824,,,,,,,,,,,cml,001,1,26,m,2024-02-08_14h57.30.496,eye_track_exp,2023.1.3,120.09860603181868,
0,270,180,180,180,12,0,0,0,12,j,present,resp,freq_top,,,,,0,54,54,585,,,,,,,,,,,0.9405495850338119,,,,,,,,,,,,,,,,,,,,,,,410.4133527774975,410.7015325267457,410.70154663841095,411.6423652047415,411.64237931640673,566.2977179514455,566.2977179514455,412.3265169718434,j,1,0.6466187335099676,None,412.3270265953579,412.3270647609934,412.3270734204234,412.327546481898,,,,,,,,,,,cml,001,1,26,m,2024-02-08_14h57.30.496,eye_track_exp,2023.1.3,120.09860603181868,
0,270,0,-168,0,-12,0,0,0,0,None,present,inhibit,freq_top,,,,,0,55,55,282,,,,,,,,,,,1.0425084881828888,,,,,,,,,,,,,,,,,,,,,,,412.3280217884094,412.5170613228802,412.51707479310426,413.5653552868098,413.56536907775444,568.2211195168165,568.2211195168165,416.5970449533488,None,1,,,416.5974230818101,416.5974615681662,416.5974705483168,416.59815303971845,569.7115328859472,569.7115328859472,569.7115328859472,569.7115328859472,571.201965818982,571.201965818982,,,,,cml,001,1,26,m,2024-02-08_14h57.30.496,eye_track_exp,2023.1.3,120.09860603181868,
0,-168,0,90,0,180,180,180,180,12,None,present,inhibit,freq_top,,,,,0,56,56,149,,,,,,,,,,,1.0158593707096144,,,,,,,,,,,,,,,,,,,,,,,416.5986357227812,416.59940448776615,416.5994147507954,417.61265309552255,417.6126668864672,572.2677502286715,572.2677502286715,420.64343769122934,None,1,,,420.64381485753256,420.6438517402894,420.64386072044,420.6444168483031,573.758153014056,573.758153014056,573.758153014056,573.758153014056,575.248583702054,575.248583702054,,,,,cml,001,1,26,m,2024-02-08_14h57.30.496,eye_track_exp,2023.1.3,120.09860603181868,
270,0,-168,0,-168,0,180,180,180,0,f,present,resp,freq_top,,,,,0,57,57,596,,,,,,,,,,,0.7229929900942692,,,,,,,,,,,,,,,,,,,,,,,420.6448995313658,420.9264573821347,420.92647117307934,421.6506519588911,421.65066574983575,576.306032608205,576.306032608205,422.51860911587937,f,1,0.8292855686595431,None,422.5191219465887,422.51916011222784,422.51916909237843,422.5196597934337,,,,,,,,,,,cml,001,1,26,m,2024-02-08_14h57.30.496,eye_track_exp,2023.1.3,120.09860603181868,
270,180,180,-168,180,180,180,180,12,180,None,present,inhibit,freq_top,,,,,0,58,58,79,,,,,,,,,,,0.8335041177381453,,,,,,,,,,,,,,,,,,,,,,,422.52013766570235,422.7170771664314,422.717091278093,423.54963425132155,423.5496480422662,578.204431190883,578.204431190883,426.5800160231556,None,1,,,426.58039735881175,426.58043456228916,426.58044354243975,426.58101634772174,579.6948731040648,579.6948731040648,579.6948731040648,579.6948731040648,581.1852697957765,581.1852697957765,,,,,cml,001,1,26,m,2024-02-08_14h57.30.496,eye_track_exp,2023.1.3,120.09860603181868,
90,180,12,180,168,180,0,180,0,180,None,present,inhibit,freq_top,,,,,0,59,59,120,,,,,,,,,,,1.010564304311788,,,,,,,,,,,,,,,,,,,,,,,426.5814996722256,427.16281525137674,427.1628293630383,428.1786985710023,428.17872134209756,582.8338967308373,582.8338967308373,431.21007104581804,None,1,,,431.21044789139705,431.2104847741575,431.2104937543081,431.21095238339694,584.3243351161036,584.3243351161036,584.3243351161036,584.3243351161036,585.8147289213412,585.8147289213412,,,,,cml,001,1,26,m,2024-02-08_14h57.30.496,eye_track_exp,2023.1.3,120.09860603181868,
0,0,180,0,180,180,168,0,168,0,f,abs,resp,freq_top,,,,,0,60,60,947,,,,,,,,,,,1.0735658943976922,,,,,,,,,,,,,,,,,,,,,,,431.2114418015735,431.3598750219717,431.3598878507546,432.4327922365337,432.43280602747836,587.0886863579944,587.0886863579944,433.2997965354589,f,1,0.8308131563208008,None,433.300302631058,433.3003407966935,433.3003494561235,433.30081000953214,,,,,,,,,,,cml,001,1,26,m,2024-02-08_14h57.30.496,eye_track_exp,2023.1.3,120.09860603181868,
-168,180,180,168,180,180,180,180,0,0,f,abs,resp,freq_top,,,,,0,61,61,956,,,,,,,,,,,1.032856520544633,,,,,,,,,,,,,,,,,,,,,,,433.3012936547566,434.79055018813597,434.7905652619593,435.82254357617785,435.8225573671225,590.4775226844977,590.4775226844977,436.671855696688,f,1,0.8018396644438326,None,436.672378469706,436.672415993904,436.6724249740546,436.6730144567591,,,,,,,,,,,cml,001,1,26,m,2024-02-08_14h57.30.496,eye_track_exp,2023.1.3,120.09860603181868,
90,180,168,0,0,180,180,12,180,180,None,present,inhibit,freq_top,,,,,0,62,62,33,,,,,,,,,,,0.7786104264931245,,,,,,,,,,,,,,,,,,,,,,,436.6734878389543,436.9048553105422,436.90486910148684,437.6871049535803,437.687119706683,592.3426215880208,592.3426215880208,440.7186990456685,None,1,,,440.71907300477324,440.7191105289712,440.71911918840124,440.7195823075672,593.8330343157177,593.8330343157177,593.8330343157177,593.8330343157177,595.3234678901899,595.3234678901899,,,,,cml,001,1,26,m,2024-02-08_14h57.30.496,eye_track_exp,2023.1.3,120.09860603181868,
0,0,0,168,0,0,0,168,0,0,f,abs,resp,freq_top,,,,,0,63,63,979,,,,,,,,,,,0.755965079922073,,,,,,,,,,,,,,,,,,,,,,,440.7200633870307,441.18457351343386,441.1845876250991,441.94232530722,441.9423397396022,596.5973945377591,596.5973945377591,442.7095537250316,f,1,0.7300975666548766,None,442.71006014134764,442.7100979862662,442.7101066456962,442.7108850322729,,,,,,,,,,,cml,001,1,26,m,2024-02-08_14h57.30.496,eye_track_exp,2023.1.3,120.09860603181868,
0,0,180,0,12,0,0,0,180,-168,None,abs,inhibit,freq_top,,,,,0,64,64,380,,,,,,,,,,,0.829268449222043,,,,,,,,,,,,,,,,,,,,,,,442.7113699603724,444.61491192397443,444.6149263563566,445.447160476564,445.44717458822925,600.1027832692089,600.1027832692089,448.478673105863,None,1,,,448.47907528829455,448.4791131332131,448.4791217926431,448.47956566863286,601.5932136364827,601.5932136364827,601.5932136364827,601.5932136364827,603.0753315920374,603.0753315920374,,,,,cml,001,1,26,m,2024-02-08_14h57.30.496,eye_track_exp,2023.1.3,120.09860603181868,
0,270,0,0,-12,0,0,12,0,0,j,present,resp,freq_top,,,,,0,65,65,655,,,,,,,,,,,0.7686215337933864,,,,,,,,,,,,,,,,,,,,,,,448.48005220033156,448.62000046183675,448.6200136113439,449.39399542269166,449.3940092136363,604.049506604897,604.049506604897,450.3943171044921,j,1,0.957275156819378,None,450.39483057664256,450.3948684215611,450.3948774017117,450.395340520874,,,,,,,,,,,cml,001,1,26,m,2024-02-08_14h57.30.496,eye_track_exp,2023.1.3,120.09860603181868,
270,0,168,0,180,180,180,180,12,0,None,present,inhibit,freq_top,,,,,0,66,66,211,,,,,,,,,,,0.7000791156402446,,,,,,,,,,,,,,,,,,,,,,,450.3958193553044,450.6101113923469,450.6101248625746,451.3095929169722,451.30960734935434,605.9645717045714,605.9645717045714,454.34046763489823,None,1,,,454.3408563471057,454.3408938713037,454.3409031721749,454.3414580171593,607.4549722449192,607.4549722449192,607.4549722449192,607.4549722449192,608.9454029329136,608.9454029329136,,,,,cml,001,1,26,m,2024-02-08_14h57.30.496,eye_track_exp,2023.1.3,120.09860603181868,
180,180,0,0,180,180,180,-168,0,12,None,abs,inhibit,freq_top,,,,,0,67,67,363,,,,,,,,,,,1.0741566286716875,,,,,,,,,,,,,,,,,,,,,,,454.3419448695786,454.3426863733948,454.34269759858216,455.4140705480604,455.41408465972563,610.0694649883189,610.0694649883189,458.44523102718813,None,1,,,458.44560723132963,458.44566143295015,458.44567009238017,458.44625123637525,611.5598908655193,611.5598908655193,611.5598908655193,611.5598908655193,613.0503061589698,613.0503061589698,,,,,cml,001,1,26,m,2024-02-08_14h57.30.496,eye_track_exp,2023.1.3,120.09860603181868,
180,90,0,180,180,180,180,-12,0,-12,j,present,resp,freq_top,,,,,0,68,68,745,,,,,,,,,,,0.7283074373419923,,,,,,,,,,,,,,,,,,,,,,,458.44673776807394,458.447473819655,458.44748408268424,459.1774339734475,459.1774480851127,613.8329942257624,613.8329942257624,460.07779279458555,j,1,0.8533000934112351,None,460.0783001730633,460.0783386594194,460.07834763957,460.0789355186753,,,,,,,,,,,cml,001,1,26,m,2024-02-08_14h57.30.496,eye_track_exp,2023.1.3,120.09860603181868,
0,12,0,0,-12,180,180,180,270,0,j,present,resp,freq_top,,,,,0,69,69,590,,,,,,,,,,,0.9109267656739752,,,,,,,,,,,,,,,,,,,,,,,460.07940986302856,460.3445106267245,460.3445250591103,461.258824280274,461.2588383919392,615.9145673427847,615.9145673427847,462.27586956716914,j,1,0.9799779382265115,None,462.27637854924615,462.2764170356022,462.2764260157528,462.2770921504525,,,,,,,,,,,cml,001,1,26,m,2024-02-08_14h57.30.496,eye_track_exp,2023.1.3,120.09860603181868,
0,0,270,0,168,0,0,-12,0,0,None,present,inhibit,freq_top,,,,,0,70,70,299,,,,,,,,,,,0.7336670800116454,,,,,,,,,,,,,,,,,,,,,,,462.27756232544925,462.48431135719875,462.4843248274228,463.21594085673496,463.2159546476796,617.8712913583986,617.8712913583986,466.24687843571155,None,1,,,466.24725463985305,466.2472915226099,466.24730082348105,466.2477463030664,619.3617050482535,619.3617050482535,619.3617050482535,619.3617050482535,620.8521001363697,620.8521001363697,,,,,cml,001,1,26,m,2024-02-08_14h57.30.496,eye_track_exp,2023.1.3,120.09860603181868,
180,180,180,-168,180,-168,0,180,0,180,f,abs,resp,freq_top,,,,,0,71,71,870,,,,,,,,,,,0.8534306880011095,,,,,,,,,,,,,,,,,,,,,,,466.2482299482872,466.31426034994365,466.31427285800964,467.1708720495408,467.170886161206,621.8263072211921,621.8263072211921,467.90504613873054,f,1,0.6839145794183423,None,467.90568821945635,467.90572574365433,467.9057347238049,467.9062744949624,,,,,,,,,,,cml,001,1,26,m,2024-02-08_14h57.30.496,eye_track_exp,2023.1.3,120.09860603181868,
0,0,180,0,180,180,168,0,168,0,f,abs,resp,freq_top,,,,,0,72,72,948,,,,,,,,,,,0.7551549055085105,,,,,,,,,,,,,,,,,,,,,,,467.9067539708303,468.0786750943262,468.0786882438297,468.8361218837272,468.8361356746718,623.4915891273449,623.4915891273449,469.5454982507981,f,1,0.6676079098615446,None,469.5460184580588,469.5460569444149,469.54606624528606,469.54653577884164,,,,,,,,,,,cml,001,1,26,m,2024-02-08_14h57.30.496,eye_track_exp,2023.1.3,120.09860603181868,
180,0,168,180,0,180,168,180,180,180,f,abs,resp,freq_top,,,,,0,73,73,757,,,,,,,,,,,0.7380232983916759,,,,,,,,,,,,,,,,,,,,,,,469.5470344978894,469.9275885603165,469.9276020305406,470.6681151434859,470.66812893443057,625.3233713535774,625.3233713535774,471.43471078144285,f,1,0.7231074820228969,None,471.4352175184795,471.4352544012363,471.43526306066633,471.43573708429903,,,,,,,,,,,cml,001,1,26,m,2024-02-08_14h57.30.496,eye_track_exp,2023.1.3,120.09860603181868,
0,90,0,0,168,0,0,12,0,0,None,present,inhibit,freq_top,,,,,0,74,74,229,,,,,,,,,,,0.995345080526974,,,,,,,,,,,,,,,,,,,,,,,471.4362146358508,471.98447139629934,471.9844858286815,472.982976522042,472.98299095442417,627.6381111793853,627.6381111793853,476.0138987064747,None,1,,,476.01428100428893,476.0143185284869,476.0143275086375,476.0148756185081,629.1368244521764,629.1368244521764,629.1368244521764,629.1368244521764,630.6106235816151,630.6106235816151,,,,,cml,001,1,26,m,2024-02-08_14h57.30.496,eye_track_exp,2023.1.3,120.09860603181868,
0,180,0,180,180,180,168,180,168,180,f,abs,resp,freq_top,,,,,0,75,75,835,,,,,,,,,,,0.8335321923059934,,,,,,,,,,,,,,,,,,,,,,,476.0153720925191,476.01622360317197,476.0162338662012,476.84608664305415,476.8461013961569,631.5015291912605,631.5015291912605,477.5385001481736,f,1,0.6565385920875997,None,477.5390030365743,477.53904056077226,477.53904954092286,477.53965987040647,,,,,,,,,,,cml,001,1,26,m,2024-02-08_14h57.30.496,eye_track_exp,2023.1.3,120.09860603181868,
-168,180,180,-168,0,180,180,180,180,0,f,abs,resp,freq_top,,,,,0,76,76,938,,,,,,,,,,,1.0622779950419257,,,,,,,,,,,,,,,,,,,,,,,477.54016500384387,477.920514447138,477.9205285588032,478.9860567134965,478.9860711458823,633.6414248547444,633.6414248547444,479.70365023855265,f,1,0.6769058930512983,None,479.7041675593391,479.70420636641575,479.7042156672833,479.70467942789037,,,,,,,,,,,cml,001,1,26,m,2024-02-08_14h57.30.496,eye_track_exp,2023.1.3,120.09860603181868,
270,180,0,12,0,180,0,180,168,180,None,present,inhibit,freq_top,,,,,0,77,77,72,,,,,,,,,,,1.0166152619688038,,,,,,,,,,,,,,,,,,,,,,,479.705166280306,480.18563926480783,480.18565369719363,481.20073906634934,481.200752857294,635.8562406269666,635.8562406269666,484.2321590076681,None,1,,,484.23253745684997,484.23257594320603,484.2325849233566,484.2332930723278,637.3466546375384,637.3466546375384,637.3466546375384,637.3466546375384,638.8370776282645,638.8370776282645,,,,,cml,001,1,26,m,2024-02-08_14h57.30.496,eye_track_exp,2023.1.3,120.09860603181868,
0,12,180,90,180,0,180,-168,0,0,None,present,inhibit,freq_top,,,,,0,78,78,290,,,,,,,,,,,0.7193687991599531,,,,,,,,,,,,,,,,,,,,,,,484.2337760761111,484.2344325892227,484.23444285225196,484.95620028043777,484.9562140713824,639.6197570356235,639.6197570356235,487.9956468722776,None,1,,,487.9960301322535,487.9960676564515,487.9960763158815,487.9966664400272,641.1101803470665,641.1101803470665,641.1101803470665,641.1101803470665,642.5839467631049,642.5839467631049,,,,,cml,001,1,26,m,2024-02-08_14h57.30.496,eye_track_exp,2023.1.3,120.09860603181868,
12,180,90,180,-12,180,0,180,180,180,j,present,resp,freq_top,,,,,0,79,79,437,,,,,,,,,,,0.9564896974905113,,,,,,,,,,,,,,,,,,,,,,,487.99716996986535,487.99797241041597,487.99798235272465,488.95299019752565,488.9530043091909,643.6081052909758,643.6081052909758,490.05248320391183,j,1,1.0618435515643796,None,490.05299122383076,490.05302938946625,490.05303804889627,490.05358808308665,,,,,,,,,,,cml,001,1,26,m,2024-02-08_14h57.30.496,eye_track_exp,2023.1.3,120.09860603181868,
0,12,0,90,180,180,168,0,0,0,None,present,inhibit,freq_top,,,,,0,80,80,248,,,,,,,,,,,0.8409266070628854,,,,,,,,,,,,,,,,,,,,,,,490.05406820039207,490.81026578678575,490.8102795777304,491.65047556308855,491.65048999547435,646.3058417800166,646.3058417800166,494.68165496467554,None,1,,,494.68203309313685,494.68207029661426,494.6820789560443,494.6826373289441,647.7962403960482,647.7962403960482,647.7962403960482,647.7962403960482,649.286707004645,649.286707004645,,,,,cml,001,1,26,m,2024-02-08_14h57.30.496,eye_track_exp,2023.1.3,120.09860603181868,
90,180,12,180,180,180,-12,0,180,0,j,present,resp,freq_top,,,,,0,81,81,610,,,,,,,,,,,0.7864223036245552,,,,,,,,,,,,,,,,,,,,,,,494.6831161633745,494.95659797279586,494.95661240518166,495.7471696491484,495.7471840815306,650.4024107854166,650.4024107854166,496.63060377397414,j,1,0.8432022354354558,None,496.6311643919107,496.63120223682927,496.63121121697986,496.631684919892,,,,,,,,,,,cml,001,1,26,m,2024-02-08_14h57.30.496,eye_track_exp,2023.1.3,120.09860603181868,
168,0,0,90,0,180,180,180,12,180,None,present,inhibit,freq_top,,,,,0,82,82,90,,,,,,,,,,,0.9445935466628304,,,,,,,,,,,,,,,,,,,,,,,496.6321733759105,497.4290330815893,497.42904783469567,498.3783821490033,498.37839658138546,653.0335434260778,653.0335434260778,501.40943839424654,None,1,,,501.40981620198727,501.40985372618525,501.40986238561527,503.348909617358,654.5239526258592,654.5239526258592,654.5239526258592,654.5239526258592,656.0143849174528,656.0143849174528,,,,,cml,001,1,26,m,2024-02-08_14h57.30.496,eye_track_exp,2023.1.3,120.09860603181868,
180,-12,180,180,270,180,-12,0,180,180,j,present,resp,freq_top,,,,,0,83,83,474,,,,,,,,,,,1.0662731375966976,,,,,,,,,,,,,,,,,,,,,,,503.3494493885155,503.4662766502006,503.4662897997041,504.5316646504107,504.5316794035134,659.1867342016703,659.1867342016703,505.4646586195995,f,0,0.8907999170151015,None,505.4651736953456,505.9709928325574,505.97100501990644,505.9721525547902,,,,,,,660.1026219472296,,,,cml,001,1,26,m,2024-02-08_14h57.30.496,eye_track_exp,2023.1.3,120.09860603181868,
0,0,-168,0,0,0,168,0,0,0,f,abs,resp,freq_top,,,,,0,84,84,996,,,,,,,,,,,0.9506380005788575,,,,,,,,,,,,,,,,,,,,,,,505.9727006646608,506.1885004047508,506.1885138749749,507.14618882433206,507.14621223686845,661.8095332631165,661.8095332631165,508.20423458974255,f,1,1.003270843779319,None,508.2047368367057,508.20545524870613,508.2054655117354,508.2060155459221,,,,,,,,,,,cml,001,1,26,m,2024-02-08_14h57.30.496,eye_track_exp,2023.1.3,120.09860603181868,
270,180,180,168,0,180,0,180,168,180,f,present,resp,freq_top,,,,,0,85,85,487,,,,,,,,,,,0.9256039711582849,,,,,,,,,,,,,,,,,,,,,,,508.20649662538926,508.42069244653976,508.420706558205,509.35273580270587,509.35274991436745,664.0077007993605,664.0077007993605,510.2188109768249,f,1,0.8212752748440835,None,510.2193164309829,510.2193536344603,510.2193626146109,510.2199241947055,,,,,,,,,,,cml,001,1,26,m,2024-02-08_14h57.30.496,eye_track_exp,2023.1.3,120.09860603181868,
0,180,0,180,0,180,-168,180,-168,180,f,abs,resp,freq_top,,,,,0,86,86,887,,,,,,,,,,,0.7685868081155555,,,,,,,,,,,,,,,,,,,,,,,510.22041874439674,510.49401665433106,510.4940307659963,511.26752123484766,511.2675350257923,665.922763974715,665.922763974715,511.9684729383189,f,1,0.6670668558217585,None,511.96899186270093,511.96903002834006,511.9690393292112,511.9695123906822,,,,,,,,,,,cml,001,1,26,m,2024-02-08_14h57.30.496,eye_track_exp,2023.1.3,120.09860603181868,
90,180,168,180,180,12,0,180,0,180,None,present,inhibit,freq_top,,,,,0,87,87,130,,,,,,,,,,,0.9315741650230539,,,,,,,,,,,,,,,,,,,,,,,511.9700123926086,512.2754535937929,512.2754673847376,513.2075652632411,513.2075790541858,667.8627974193587,667.8627974193587,516.2389261921489,None,1,,,516.2393139421984,516.2393511456758,516.2393601258264,516.2397023336853,669.3532342010294,669.3532342010294,669.3532342010294,669.3532342010294,670.8436520602372,670.8436520602372,,,,,cml,001,1,26,m,2024-02-08_14h57.30.496,eye_track_exp,2023.1.3,120.09860603181868,
0,0,0,0,0,168,0,0,0,168,f,abs,resp,freq_top,,,,,0,88,88,928,,,,,,,,,,,0.9898852006103869,,,,,,,,,,,,,,,,,,,,,,,516.2401824509907,516.2409547438947,516.240965006924,517.2291012665883,517.2291156989704,671.8844498439357,671.8844498439357,517.9626316714493,f,1,0.6883315303493873,None,517.9631396913646,517.9631772155662,517.9631858749963,517.963663747265,,,,,,,,,,,cml,001,1,26,m,2024-02-08_14h57.30.496,eye_track_exp,2023.1.3,120.09860603181868,
0,180,0,-168,180,0,180,0,-168,180,f,abs,resp,freq_top,,,,,0,89,89,891,,,,,,,,,,,0.7450047479465167,,,,,,,,,,,,,,,,,,,,,,,517.9641445060079,518.3037279168493,518.3037423492351,519.0523475395057,519.0523616511673,673.7079068296589,673.7079068296589,520.6772604641228,f,1,1.5847095792742039,None,520.6777707290748,520.6778082532728,520.6778169127028,520.6782864462621,675.1983660617007,675.1983660617007,675.1983660617007,675.1983660617007,,,,,,,cml,001,1,26,m,2024-02-08_14h57.30.496,eye_track_exp,2023.1.3,120.09860603181868,
-12,180,180,180,270,180,180,-12,0,0,j,present,resp,freq_top,,,,,0,90,90,685,,,,,,,,,,,1.0569969492371458,,,,,,,,,,,,,,,,,,,,,,,520.678758224858,520.9517188648606,520.9517332972428,522.0082575686647,522.0082720010469,676.6637706751899,676.6637706751899,522.8252235095206,j,1,0.773106070853828,None,522.82574499966,522.8257831652991,522.8257921454497,522.8262584718104,,,,,,,,,,,cml,001,1,26,m,2024-02-08_14h57.30.496,eye_track_exp,2023.1.3,120.09860603181868,
0,168,0,0,0,0,0,168,0,0,f,abs,resp,freq_top,,,,,0,91,91,981,,,,,,,,,,,0.7923825052397805,,,,,,,,,,,,,,,,,,,,,,,522.8267324954431,523.1997993577934,523.1998137901755,523.9984396989348,523.9984627907506,678.6537558835989,678.6537558835989,525.0817187237408,f,1,1.0393206938751973,None,525.0822238571818,525.0822613813798,525.0822703615304,525.0827533653137,,,,,,,,,,,cml,001,1,26,m,2024-02-08_14h57.30.496,eye_track_exp,2023.1.3,120.09860603181868,
-12,0,0,-168,0,0,270,0,0,0,None,present,inhibit,freq_top,,,,,0,92,92,241,,,,,,,,,,,1.0627480565983332,,,,,,,,,,,,,,,,,,,,,,,525.0832293132626,525.3065986783804,525.3066131107626,526.3714513975065,526.371465509168,681.0267942019018,681.0267942019018,529.4029447836256,None,1,,,529.4033174598517,529.4033546633291,529.4033633227591,529.4040852626786,682.5172377186791,682.5172377186791,682.5172377186791,682.5172377186791,684.0076292788799,684.0076292788799,,,,,cml,001,1,26,m,2024-02-08_14h57.30.496,eye_track_exp,2023.1.3,120.09860603181868,
270,180,0,0,0,12,180,180,168,180,None,present,inhibit,freq_top,,,,,0,93,93,67,,,,,,,,,,,1.0023281560463964,,,,,,,,,,,,,,,,,,,,,,,529.4045669835832,529.4054592256289,529.4054694886581,530.4093553278617,530.4093697602439,685.0650817129499,685.0650817129499,533.4414426867588,None,1,,,533.4418615466129,533.4418993915315,533.4419086924026,533.4423548134255,686.5555156081391,686.5555156081391,686.5555156081391,686.5555156081391,688.0459248079205,688.0459248079205,,,,,cml,001,1,26,m,2024-02-08_14h57.30.496,eye_track_exp,2023.1.3,120.09860603181868,
180,270,0,180,180,12,180,0,0,-168,None,present,inhibit,freq_top,,,,,0,94,94,324,,,,,,,,,,,0.7503398617870077,,,,,,,,,,,,,,,,,,,,,,,533.4428317235361,533.4435559084923,533.4435661715179,534.1900100321109,534.1900247852136,688.8452553377356,688.8452553377356,537.2209886632045,None,1,,,537.2213616601475,537.2213988636286,537.2214075230586,537.2219668581165,690.3356937230019,690.3356937230019,690.3356937230019,690.3356937230019,691.8261167137243,691.8261167137243,,,,,cml,001,1,26,m,2024-02-08_14h57.30.496,eye_track_exp,2023.1.3,120.09860603181868,
0,-168,0,90,0,180,180,180,180,12,None,present,inhibit,freq_top,,,,,0,95,95,147,,,,,,,,,,,1.0928220107395672,,,,,,,,,,,,,,,,,,,,,,,537.2224399195911,537.2231887999587,537.2231987422674,538.3202738432628,538.3202889170861,692.9751525663341,692.9751525663341,541.3510645326423,None,1,,,541.3514506790925,541.3514882032905,541.3514968627205,541.3520552356204,694.4655601625127,694.4655601625127,694.4655601625127,694.4655601625127,695.955982191077,695.955982191077,,,,,cml,001,1,26,m,2024-02-08_14h57.30.496,eye_track_exp,2023.1.3,120.09860603181868,
90,0,0,12,0,0,0,12,0,0,j,present,resp,freq_top,,,,,0,96,96,653,,,,,,,,,,,0.7535334726544417,,,,,,,,,,,,,,,,,,,,,,,541.3525452952381,541.650671202071,541.650684672295,542.4080471124325,542.4080612240978,697.0633972933792,697.0633972933792,543.4084675758859,j,1,0.9651193178615358,None,543.409041022609,543.4090782260864,543.409087206237,543.4095506461235,,,,,,,,,,,cml,001,1,26,m,2024-02-08_14h57.30.496,eye_track_exp,2023.1.3,120.09860603181868,
0,0,12,0,180,180,180,180,168,0,None,abs,inhibit,freq_top,,,,,0,97,97,374,,,,,,,,,,,0.7119245288198692,,,,,,,,,,,,,,,,,,,,,,,543.4100352535061,543.6156627286582,543.6156765196029,544.3317992243719,544.3318133360372,698.9951186470244,698.9951186470244,547.3709597342931,None,1,,,547.3713638410409,547.3714064967535,547.3714154769041,547.3720857809603,700.48552207385,700.48552207385,700.48552207385,700.48552207385,701.9592753403776,701.9592753403776,,,,,cml,001,1,26,m,2024-02-08_14h57.30.496,eye_track_exp,2023.1.3,120.09860603181868,
-12,0,270,0,0,12,0,0,0,0,j,present,resp,freq_top,,,,,0,98,98,669,,,,,,,,,,,0.8713477961749987,,,,,,,,,,,,,,,,,,,,,,,547.3725864243243,547.412704603099,547.4127183940436,548.286760564828,548.2867743557726,702.9418198530584,702.9418198530584,549.3198104033763,j,1,0.9898063917062245,None,549.320317140413,549.3203559474896,549.3203649276402,549.3208299711223,,,,,,,,,,,cml,001,1,26,m,2024-02-08_14h57.30.496,eye_track_exp,2023.1.3,120.09860603181868,
90,180,180,0,168,0,-12,180,180,180,None,present,inhibit,freq_top,,,,,0,99,99,29,,,,,,,,,,,1.0237478934223856,,,,,,,,,,,,,,,,,,,,,,,549.3213225964973,549.5773931779113,549.5774066481354,550.6009516393278,550.60096607171,705.256555830234,705.256555830234,553.6323953139035,None,1,,,553.6327692730083,553.6328067972063,553.6328157773569,553.633264464137,706.7469480318687,706.7469480318687,706.7469480318687,706.7469480318687,708.2373819270615,708.2373819270615,,,,,cml,001,1,26,m,2024-02-08_14h57.30.496,eye_track_exp,2023.1.3,120.09860603181868,
0,180,0,180,168,180,168,180,180,180,f,abs,resp,freq_top,,,,,0,100,100,759,,,,,,,,,,,0.810387487965778,,,,,,,,,,,,,,,,,,,,,,,553.6337458643211,553.6575243394145,553.6575365267599,554.4728780226251,554.4728921342867,709.1283051762839,709.1283051762839,555.156257496823,j,0,0.6439182741087279,None,555.1567738554477,555.6627911974028,555.6628030640277,555.6640006311791,,,,,,,709.7944142183987,,,,cml,001,1,26,m,2024-02-08_14h57.30.496,eye_track_exp,2023.1.3,120.09860603181868,
0,270,180,180,180,-168,0,-168,0,0,f,present,resp,freq_top,,,,,0,101,101,683,,,,,,,,,,,0.9210366127152778,,,,,,,,,,,,,,,,,,,,,,,555.664531101469,555.9473041589663,555.9473179499109,556.8711159247578,556.8711303571436,711.5263121602766,711.5263121602766,557.7547476128857,f,1,0.8371945150720421,None,557.7552549913598,557.7559974573342,557.7560083618046,557.7564644251361,,,,,,,,,,,cml,001,1,26,m,2024-02-08_14h57.30.496,eye_track_exp,2023.1.3,120.09860603181868,
0,0,180,0,0,0,168,0,180,168,f,abs,resp,freq_top,,,,,0,102,102,895,,,,,,,,,,,0.8391280285318515,,,,,,,,,,,,,,,,,,,,,,,557.7569625027427,557.9787497578582,557.9787635488028,558.8193886570443,558.8194034101507,713.4746673175105,713.4746673175105,559.4870862235548,f,1,0.6338226611696882,None,559.4875929605914,559.9924874630706,559.9924993296954,559.993497729949,,,,,,,714.1241380659558,,,,cml,001,1,26,m,2024-02-08_14h57.30.496,eye_track_exp,2023.1.3,120.09860603181868,
0,0,0,0,168,180,180,180,0,12,None,abs,inhibit,freq_top,,,,,0,103,103,411,,,,,,,,,,,1.0224397257363513,,,,,,,,,,,,,,,,,,,,,,,559.9940500091725,559.9948502046864,559.9948607884326,561.0173653651036,561.0173884569158,715.6728348537581,715.6728348537581,564.0491108368624,None,1,,,564.0494847959671,564.0503475318073,564.0503587569947,564.050925468604,717.163262334554,717.163262334554,717.163262334554,717.163262334554,718.6536930225484,718.6536930225484,,,,,cml,001,1,26,m,2024-02-08_14h57.30.496,eye_track_exp,2023.1.3,120.09860603181868,
180,-168,180,-168,0,180,0,180,0,180,f,abs,resp,freq_top,,,,,0,104,104,866,,,,,,,,,,,0.9409335857979169,,,,,,,,,,,,,,,,,,,,,,,564.0514251498098,564.0522888478081,564.0522991108373,564.9970541900766,564.9970683017382,719.6528405497374,719.6528405497374,565.8144149368127,f,1,0.7749931852413283,None,565.8149444449446,565.8149819691425,565.8149909492931,565.8157343774255,,,,,,,,,,,cml,001,1,26,m,2024-02-08_14h57.30.496,eye_track_exp,2023.1.3,120.09860603181868,
180,90,0,-12,180,0,180,0,-12,0,j,present,resp,freq_top,,,,,0,105,105,710,,,,,,,,,,,1.017386300605425,,,,,,,,,,,,,,,,,,,,,,,565.8162340586314,565.8170881350416,565.8170980773502,566.8460593818854,566.8460731728301,721.5013014803117,721.5013014803117,567.9631291076184,j,1,1.0697897014542832,None,567.963631033861,567.9636682373384,567.9636768967684,567.9643981952468,,,,,,,,,,,cml,001,1,26,m,2024-02-08_14h57.30.496,eye_track_exp,2023.1.3,120.09860603181868,
270,0,0,0,168,180,180,180,180,12,None,present,inhibit,freq_top,,,,,0,106,106,152,,,,,,,,,,,0.9162535662317728,,,,,,,,,,,,,,,,,,,,,,,567.9648808783095,568.1869712134903,568.1869846837144,569.1021963522653,569.10221014321,723.7577248533344,723.7577248533344,572.1338462495696,None,1,,,572.1342263023471,572.1342635058245,572.1342724859751,572.1349783899132,725.248165804358,725.248165804358,725.248165804358,725.248165804358,726.7385689104631,726.7385689104631,,,,,cml,001,1,26,m,2024-02-08_14h57.30.496,eye_track_exp,2023.1.3,120.09860603181868,
0,180,0,180,90,180,12,0,12,180,j,present,resp,freq_top,,,,,0,107,107,500,,,,,,,,,,,0.7158253000027014,,,,,,,,,,,,,,,,,,,,,,,572.1354681288067,572.1362208578103,572.1362311208395,572.8492598432094,572.8492742755916,727.5046026476048,727.5046026476048,573.8164595245398,j,1,0.9230710482697759,None,573.8169678651757,573.8170060308148,573.8170150109618,573.817288584818,,,,,,,,,,,cml,001,1,26,m,2024-02-08_14h57.30.496,eye_track_exp,2023.1.3,120.09860603181868,
180,180,0,168,180,180,0,0,-168,180,f,abs,resp,freq_top,,,,,0,108,108,894,,,,,,,,,,,0.7023181219072766,,,,,,,,,,,,,,,,,,,,,,,573.8177677399653,573.8187023170067,573.8187125800359,574.5227733397332,574.5227877721154,729.1781889474878,729.1781889474878,575.672841588872,f,1,1.1046714906078705,None,575.673414394154,575.6734522390725,575.6734612192231,575.6739333185396,,,,,,,,,,,cml,001,1,26,m,2024-02-08_14h57.30.496,eye_track_exp,2023.1.3,120.09860603181868,
180,180,0,0,0,168,180,180,168,180,f,abs,resp,freq_top,,,,,0,109,109,827,,,,,,,,,,,1.0145872756006342,,,,,,,,,,,,,,,,,,,,,,,575.674413435845,575.9889781487291,575.9889925811149,577.0040295216022,577.0040433125469,731.6594518644706,731.6594518644706,577.6714204801319,f,1,0.6241340414562728,None,577.6719487053851,578.177279707299,578.1772912532069,578.1781199927646,,,,,,,732.3089309516254,,,,cml,001,1,26,m,2024-02-08_14h57.30.496,eye_track_exp,2023.1.3,120.09860603181868,
12,0,270,180,180,0,0,-168,180,0,None,present,inhibit,freq_top,,,,,0,110,110,188,,,,,,,,,,,0.9874356010437247,,,,,,,,,,,,,,,,,,,,,,,578.1786719512711,578.1794538657632,578.179464449513,579.169226757771,579.1692415108737,733.824329663872,733.824329663872,582.2003705594761,None,1,,,582.200752857294,582.2014824944818,582.2014933989485,582.2019452929271,735.3147420708447,735.3147420708447,735.3147420708447,735.3147420708447,736.8051624958134,736.8051624958134,,,,,cml,001,1,26,m,2024-02-08_14h57.30.496,eye_track_exp,2023.1.3,120.09860603181868,
180,180,270,180,168,180,180,180,12,180,None,present,inhibit,freq_top,,,,,0,111,111,86,,,,,,,,,,,0.9559746435645742,,,,,,,,,,,,,,,,,,,,,,,582.2024353525412,582.2032002688939,582.2032105319195,583.1571786036402,583.1571927153018,737.8126368671074,737.8126368671074,586.1890119525815,None,1,,,586.1893855909657,586.1894224737262,586.1894311331562,586.1899962411662,739.3030736487744,739.3030736487744,739.3030736487744,739.3030736487744,740.7934767548795,740.7934767548795,,,,,cml,001,1,26,m,2024-02-08_14h57.30.496,eye_track_exp,2023.1.3,120.09860603181868,
0,0,180,180,12,0,0,0,168,0,None,abs,inhibit,freq_top,,,,,0,112,112,372,,,,,,,,,,,0.9528877536470011,,,,,,,,,,,,,,,,,,,,,,,586.1904821314274,586.4634786920287,586.4634931244145,587.420413420452,587.4204275321135,742.0757600734833,742.0757600734833,590.4520476024954,None,1,,,590.4524430498132,590.4524805740111,590.4524895541617,590.453117523226,743.5745105497517,743.5745105497517,743.5745105497517,743.5745105497517,745.0482734378675,745.0482734378675,,,,,cml,001,1,26,m,2024-02-08_14h57.30.496,eye_track_exp,2023.1.3,120.09860603181868,
168,0,180,180,180,180,0,168,180,180,f,abs,resp,freq_top,,,,,0,113,113,780,,,,,,,,,,,1.072771883127302,,,,,,,,,,,,,,,,,,,,,,,590.4536002062887,590.6681914747605,590.668204624264,591.7418527588961,591.7418668705614,746.4054672436177,746.4054672436177,592.500137268009,f,1,0.709165478398063,None,592.5006622860637,592.5007001309823,592.5007091111329,592.5012799920987,,,,,,,,,,,cml,001,1,26,m,2024-02-08_14h57.30.496,eye_track_exp,2023.1.3,120.09860603181868,
180,270,0,180,180,180,180,168,0,168,f,present,resp,freq_top,,,,,0,114,114,556,,,,,,,,,,,0.8210401513854312,,,,,,,,,,,,,,,,,,,,,,,592.501754336452,592.916231877738,592.9162463101202,593.7401776401966,593.7401920725824,748.4037921249183,748.4037921249183,594.3825931979227,f,1,0.5985204085627629,None,594.3831034628747,594.3831413077933,594.3831502879439,594.3836111620694,,,,,,,,,,,cml,001,1,26,m,2024-02-08_14h57.30.496,eye_track_exp,2023.1.3,120.09860603181868,
180,180,168,0,180,0,-168,180,0,180,f,abs,resp,freq_top,,,,,0,115,115,872,,,,,,,,,,,0.854695876106944,,,,,,,,,,,,,,,,,,,,,,,594.3840925622571,594.8231090049121,594.8231231165737,595.6797444377589,595.6797588701447,750.3355041776922,750.3355041776922,596.9300340476002,f,1,1.2110750431529596,None,596.9306427734809,596.9306802976789,596.9306889571126,596.9313483566984,,,,,,,,,,,cml,001,1,26,m,2024-02-08_14h57.30.496,eye_track_exp,2023.1.3,120.09860603181868,
0,0,0,0,0,168,0,168,0,0,f,abs,resp,freq_top,,,,,0,116,116,977,,,,,,,,,,,1.0376706499161399,,,,,,,,,,,,,,,,,,,,,,,596.9318268704046,597.2208860329156,597.2209001445808,598.2608586049719,598.2608730373577,752.9166821681138,752.9166821681138,598.9459449491151,f,1,0.6456193710982916,None,598.9464638735008,599.4511678685121,599.45117941442,599.4519667811437,,,,,,,753.5828107741254,,,,cml,001,1,26,m,2024-02-08_14h57.30.496,eye_track_exp,2023.1.3,120.09860603181868,
168,180,0,180,0,0,180,12,0,0,None,abs,inhibit,freq_top,,,,,0,117,117,403,,,,,,,,,,,0.7613941562666732,,,,,,,,,,,,,,,,,,,,,,,599.4525043072645,599.4534565238864,599.4534674283568,600.2180457397553,600.2180598514169,754.8733808468787,754.8733808468787,603.2495763293518,None,1,,,603.2499541370926,603.2506969237875,603.2507078282542,603.2510740900871,756.3638022340019,756.3638022340019,756.3638022340019,756.3638022340019,757.8542120752209,757.8542120752209,,,,,cml,001,1,26,m,2024-02-08_14h57.30.496,eye_track_exp,2023.1.3,120.09860603181868,
0,180,0,0,-168,180,0,180,168,180,f,abs,resp,freq_top,,,,,0,118,118,837,,,,,,,,,,,0.7001883737295779,,,,,,,,,,,,,,,,,,,,,,,603.2515676776202,603.2523505542704,603.2523604965791,603.9483599680316,603.9483740796968,758.6036142538069,758.6036142538069,604.8313755537238,f,1,0.8472426615044242,None,604.8318989681829,604.8319387374177,604.8319480382888,604.8325115426996,,,,,,,,,,,cml,001,1,26,m,2024-02-08_14h57.30.496,eye_track_exp,2023.1.3,120.09860603181868,
-168,0,0,180,0,0,0,168,180,180,f,abs,resp,freq_top,,,,,0,119,119,783,,,,,,,,,,,0.7726139514182434,,,,,,,,,,,,,,,,,,,,,,,604.8330003194387,604.8337594628356,604.8337777438537,605.6051562738539,605.6051703855192,760.2605459033184,760.2605459033184,606.505644665729,f,1,0.8540425593855616,None,606.5061267073506,606.5061648729898,606.5061738531404,606.5066318407917,,,,,,,,,,,cml,001,1,26,m,2024-02-08_14h57.30.496,eye_track_exp,2023.1.3,120.09860603181868,
12,180,90,0,168,180,0,180,0,180,None,present,inhibit,freq_top,,,,,0,120,120,119,,,,,,,,,,,1.0826646336561738,,,,,,,,,,,,,,,,,,,,,,,606.5071077887405,606.5077675090506,606.5077774513593,607.5871238118962,607.5871379235614,762.2422360188684,762.2422360188684,610.6184622904257,None,1,,,610.6188542098316,610.6188917340296,610.6189007141802,610.6197153420762,763.7326548402343,763.7326548402343,763.7326548402343,763.7326548402343,765.2230476833101,765.2230476833101,,,,,cml,001,1,26,m,2024-02-08_14h57.30.496,eye_track_exp,2023.1.3,120.09860603181868,
180,0,-168,0,90,180,-168,0,180,0,f,present,resp,freq_top,,,,,0,121,121,606,,,,,,,,,,,0.9322852353331506,,,,,,,,,,,,,,,,,,,,,,,610.6201938557824,610.6209414532714,610.6209517163006,611.550331495826,611.55034496605,766.2055716699324,766.2055716699324,612.7339053261276,f,1,1.148673584262724,None,612.7344152703627,612.7344534359981,612.7344624161487,612.7349213659581,,,,,,,,,,,cml,001,1,26,m,2024-02-08_14h57.30.496,eye_track_exp,2023.1.3,120.09860603181868,
180,180,180,180,-168,0,0,168,0,0,f,abs,resp,freq_top,,,,,0,122,122,982,,,,,,,,,,,0.7517434936975107,,,,,,,,,,,,,,,,,,,,,,,612.7353982760687,612.9990118627793,612.999025653724,613.7569631441838,613.756977576566,768.420381027765,768.420381027765,614.7484284737475,f,1,0.9339110515029461,None,614.7490160321358,614.7490558013706,614.7490647815212,614.7495465024258,,,,,,,,,,,cml,001,1,26,m,2024-02-08_14h57.30.496,eye_track_exp,2023.1.3,120.09860603181868,
180,12,180,270,180,0,180,0,0,-168,None,present,inhibit,freq_top,,,,,0,123,123,329,,,,,,,,,,,0.8084951549899404,,,,,,,,,,,,,,,,,,,,,,,614.750044900753,615.1644942187086,615.1645163483627,615.9714068816174,615.9714206725621,770.6268853504225,770.6268853504225,619.0027296448861,None,1,,,619.0031270165273,619.0031651821628,619.0031738415928,619.0036356778801,772.1172964745201,772.1172964745201,772.1172964745201,772.1172964745201,773.6076877139967,773.6076877139967,,,,,cml,001,1,26,m,2024-02-08_14h57.30.496,eye_track_exp,2023.1.3,120.09860603181868,
90,0,168,0,12,0,0,180,180,180,None,present,inhibit,freq_top,,,,,0,124,124,20,,,,,,,,,,,1.0373618252409131,,,,,,,,,,,,,,,,,,,,,,,619.0041106636745,619.0049592878495,619.0049695508787,620.0427163286076,620.0427304402729,774.6984574668022,774.6984574668022,623.0743873934116,None,1,,,623.0747648804318,623.0748020839092,623.0748117054973,625.5974015935935,776.1888894376752,776.1888894376752,776.1888894376752,776.1888894376752,777.679298637453,777.679298637453,,,,,cml,001,1,26,m,2024-02-08_14h57.30.496,eye_track_exp,2023.1.3,120.09860603181868,
0,0,0,0,168,0,0,0,0,168,f,abs,resp,freq_top,,,,,0,125,125,935,,,,,,,,,,,0.820502778861995,,,,,,,,,,,,,,,,,,,,,,,625.5979375161187,625.8557422286431,625.8557573024664,626.6799817702959,626.6799965233986,781.3345872402315,781.3345872402315,629.0701715336945,j,0,2.3548485278479347,None,629.0706837229664,629.5759816907594,629.5759935573842,629.5768072231222,782.8250070237591,782.8250070237591,782.8250070237591,782.8250070237591,,,783.7076140126228,,,,cml,001,1,26,m,2024-02-08_14h57.30.496,eye_track_exp,2023.1.3,120.09860603181868,
180,-12,180,180,-12,0,90,0,180,0,j,present,resp,freq_top,,,,,0,126,126,603,,,,,,,,,,,0.844859609796236,,,,,,,,,,,,,,,,,,,,,,,629.577341862765,629.5781491141097,629.5781596978595,630.4264342903189,630.4264484019841,785.0814769011267,785.0814769011267,632.5836549082305,j,1,2.111826745855069,None,632.5841664560612,632.5848999418886,632.5849111670759,632.5854679363765,786.5718774414781,786.5718774414781,786.5718774414781,786.5718774414781,,,,,,,cml,001,1,26,m,2024-02-08_14h57.30.496,eye_track_exp,2023.1.3,120.09860603181868,
90,0,12,180,180,-168,0,0,0,0,None,present,inhibit,freq_top,,,,,0,127,127,271,,,,,,,,,,,0.7668398380584767,,,,,,,,,,,,,,,,,,,,,,,632.5859563923914,632.7999815906951,632.7999953816397,633.5649460485438,633.5649595187679,788.2205079044543,788.2205079044543,634.4663446427658,f,0,0.8605528474327002,None,634.4668561905964,634.9714463301352,634.9714588382012,634.9724617285246,,,,,,,789.1031055924504,,,,cml,001,1,26,m,2024-02-08_14h57.30.496,eye_track_exp,2023.1.3,120.09860603181868,
180,-168,180,180,-168,0,0,0,180,180,f,abs,resp,freq_top,,,,,0,128,128,804,,,,,,,,,,,1.0948782960400816,,,,,,,,,,,,,,,,,,,,,,,634.9729886708992,635.2392664756917,635.2392802666363,636.3380029044383,636.3380170161035,790.9931699544686,790.9931699544686,637.3377976438678,f,1,0.9526317778181692,None,637.3383239448012,637.339057109908,637.3390683350954,637.3396231800762,,,,,,,,,,,cml,001,1,26,m,2024-02-08_14h57.30.496,eye_track_exp,2023.1.3,120.09860603181868,
0,0,168,0,0,0,0,0,180,168,f,abs,resp,freq_top,,,,,0,129,129,902,,,,,,,,,,,0.8276784166826077,,,,,,,,,,,,,,,,,,,,,,,637.3401122775358,637.5622144793379,637.5622279495619,638.3946641231487,638.3946782348103,793.0497939696979,793.0497939696979,639.3359737112551,f,1,0.8960690200401586,None,639.3365593453236,639.3365975109591,639.3366061703891,639.3370997579223,,,,,,,,,,,cml,001,1,26,m,2024-02-08_14h57.30.496,eye_track_exp,2023.1.3,120.09860603181868,
168,0,0,90,0,180,180,180,12,180,None,present,inhibit,freq_top,,,,,0,130,130,84,,,,,,,,,,,0.9325325544870442,,,,,,,,,,,,,,,,,,,,,,,639.3375763473123,639.5524646021731,639.5524780724008,640.4842539483798,640.4842687014861,795.1397064388948,795.1397064388948,643.5159599716244,None,1,,,643.516345797354,643.516383000835,643.5163916602651,643.516972162819,796.6301454655986,796.6301454655986,796.6301454655986,796.6301454655986,798.1205520996227,798.1205520996227,,,,,cml,001,1,26,m,2024-02-08_14h57.30.496,eye_track_exp,2023.1.3,120.09860603181868,
180,168,0,180,180,0,180,0,-168,180,f,abs,resp,freq_top,,,,,0,131,131,890,,,,,,,,,,,0.9075991504771853,,,,,,,,,,,,,,,,,,,,,,,643.5174558080398,643.5182059712897,643.5182159135984,644.4226161229635,644.4226295931876,799.078073424269,799.078073424269,645.6392571106771,f,1,1.1706643680663547,None,645.6397715449857,645.6398093899043,645.6398183700512,645.640430303134,,,,,,,,,,,cml,001,1,26,m,2024-02-08_14h57.30.496,eye_track_exp,2023.1.3,120.09860603181868,
180,-12,180,270,180,-12,180,180,0,180,j,present,resp,freq_top,,,,,0,132,132,506,,,,,,,,,,,1.0358865571629885,,,,,,,,,,,,,,,,,,,,,,,645.6409248528216,645.6419312710641,645.6419498728028,646.6878599276206,646.6878740392858,801.342868221429,801.342868221429,648.6125908759132,j,1,1.8826238111432758,None,648.6131024237438,648.6131402686624,648.613149248813,648.613718205459,802.8332803076846,802.8332803076846,802.8332803076846,802.8332803076846,,,,,,,cml,001,1,26,m,2024-02-08_14h57.30.496,eye_track_exp,2023.1.3,120.09860603181868,
180,270,0,180,180,12,180,0,0,-168,None,present,inhibit,freq_top,,,,,0,133,133,326,,,,,,,,,,,1.060624905861795,,,,,,,,,,,,,,,,,,,,,,,648.614189984055,648.8524307983243,648.8524449099896,649.9177187340065,649.9177325249511,804.573497717116,804.573497717116,652.9492124408462,None,1,,,652.9496062845683,652.9496438087663,652.9496527889169,652.950210199655,806.0639094826511,806.0639094826511,806.0639094826511,806.0639094826511,807.5543369634506,807.5543369634506,,,,,cml,001,1,26,m,2024-02-08_14h57.30.496,eye_track_exp,2023.1.3,120.09860603181868,
90,180,168,0,0,180,180,12,180,180,None,present,inhibit,freq_top,,,,,0,134,134,32,,,,,,,,,,,1.0881775948663737,,,,,,,,,,,,,,,,,,,,,,,652.9507034664675,652.9664767792565,652.9664889666055,654.0567449265363,654.0567590382016,808.7116858692207,808.7116858692207,657.0876058535214,None,1,,,657.0879807747842,657.0880182989822,657.0880272791328,657.0885638430955,810.210448212114,810.210448212114,810.210448212114,810.210448212114,811.6842187975053,811.6842187975053,,,,,cml,001,1,26,m,2024-02-08_14h57.30.496,eye_track_exp,2023.1.3,120.09860603181868,
0,90,180,12,180,180,180,12,0,180,j,present,resp,freq_top,,,,,0,135,135,521,,,,,,,,,,,0.9158893051555208,,,,,,,,,,,,,,,,,,,,,,,657.0890458847207,657.0897851434966,657.0897950858052,658.0032450413564,658.003259153018,812.6667241823889,812.6667241823889,658.8944806715117,j,1,0.8463282897973841,None,658.8950874730763,658.8951249972743,658.8951339774248,658.8956092839362,,,,,,,,,,,cml,001,1,26,m,2024-02-08_14h57.30.496,eye_track_exp,2023.1.3,120.09860603181868,
180,270,0,180,180,12,180,0,0,-168,None,present,inhibit,freq_top,,,,,0,136,136,323,,,,,,,,,,,0.8006025670947976,,,,,,,,,,,,,,,,,,,,,,,658.8960887598041,659.3111564252358,659.311170857618,660.1175229025903,660.1175370142555,814.7732938677109,814.7732938677109,663.1491590089536,None,1,,,663.1495329680547,663.1495871696752,663.1495958291052,663.1503023744808,816.2637184620326,816.2637184620326,816.2637184620326,816.2637184620326,817.7541382455602,817.7541382455602,,,,,cml,001,1,26,m,2024-02-08_14h57.30.496,eye_track_exp,2023.1.3,120.09860603181868,
12,0,180,180,90,180,-12,180,180,180,j,present,resp,freq_top,,,,,0,137,137,446,,,,,,,,,,,0.966163930315732,,,,,,,,,,,,,,,,,,,,,,,663.1507879440214,663.151641699711,663.1516519627403,664.114787484752,664.1148012756967,818.7699593455764,818.7699593455764,665.0486470762553,j,1,0.8867376820126083,None,665.0493616396234,665.0494001259794,665.0494087854095,665.0497695950107,,,,,,,,,,,cml,001,1,26,m,2024-02-08_14h57.30.496,eye_track_exp,2023.1.3,120.09860603181868,
0,0,180,0,180,168,0,168,0,0,f,abs,resp,freq_top,,,,,0,138,138,974,,,,,,,,,,,0.8910488912478824,,,,,,,,,,,,,,,,,,,,,,,665.0502426564854,665.28066785376,665.2806819654215,666.171254347355,666.1712681382996,820.8265583446737,820.8265583446737,666.9713491520815,f,1,0.7502743601507973,None,666.9719434455837,666.9719819319398,666.9719909120904,666.9724636528445,,,,,,,,,,,cml,001,1,26,m,2024-02-08_14h57.30.496,eye_track_exp,2023.1.3,120.09860603181868,
270,0,12,0,0,12,180,180,180,0,j,present,resp,freq_top,,,,,0,139,139,594,,,,,,,,,,,0.8353156362570806,,,,,,,,,,,,,,,,,,,,,,,666.972957240374,667.2709801962046,667.2709936664287,668.1113352585089,668.111348728733,822.7666241820043,822.7666241820043,668.9453791996639,j,1,0.793906664061069,None,668.9459035762811,668.9459443076776,668.9459532878282,668.9464199349095,,,,,,,,,,,cml,001,1,26,m,2024-02-08_14h57.30.496,eye_track_exp,2023.1.3,120.09860603181868,
0,90,0,168,0,168,0,0,0,0,f,present,resp,freq_top,,,,,0,140,140,665,,,,,,,,,,,0.8572850019731861,,,,,,,,,,,,,,,,,,,,,,,668.9469148053176,669.2695513901926,669.2695651811373,670.126349427901,670.1263635395662,824.7815953749632,824.7815953749632,670.9016227772554,f,1,0.7307120654913888,None,670.902162227696,670.9022000726109,670.9022087320409,670.9028549821232,,,,,,,,,,,cml,001,1,26,m,2024-02-08_14h57.30.496,eye_track_exp,2023.1.3,120.09860603181868,
12,0,168,0,0,90,0,0,180,180,None,present,inhibit,freq_top,,,,,0,141,141,57,,,,,,,,,,,1.0623202379189525,,,,,,,,,,,,,,,,,,,,,,,670.9033315715133,671.0509023767918,671.0509158470159,672.116564271575,672.1165780625197,826.7715825076921,826.7715825076921,675.1475438648267,None,1,,,675.1479312941556,675.1479678561955,675.1479765156255,675.1485554145838,828.2620176857636,828.2620176857636,828.2620176857636,828.2620176857636,829.7524310548979,829.7524310548979,,,,,cml,001,1,26,m,2024-02-08_14h57.30.496,eye_track_exp,2023.1.3,120.09860603181868,
90,180,0,-168,180,0,0,0,-168,180,f,present,resp,freq_top,,,,,0,142,142,540,,,,,,,,,,,1.0474026736604225,,,,,,,,,,,,,,,,,,,,,,,675.149029117496,675.1498055797529,675.1498158427821,676.1956162114802,676.1956309645866,830.8515103329446,830.8515103329446,677.4966064654545,f,1,1.2529780267468595,None,677.4971154475279,677.4971526510053,677.4971616311559,677.4976221845645,,,,,,,,,,,cml,001,1,26,m,2024-02-08_14h57.30.496,eye_track_exp,2023.1.3,120.09860603181868,
270,180,12,180,0,180,168,180,0,180,None,present,inhibit,freq_top,,,,,0,143,143,111,,,,,,,,,,,1.0885957825657804,,,,,,,,,,,,,,,,,,,,,,,677.4980920388407,677.7204408740508,677.7204543442786,678.8102484679221,678.8102625795873,833.4659918511534,833.4659918511534,681.8419198534466,None,1,,,681.8422909260735,681.8423274881134,681.8423361475434,681.8431664907002,834.9564206148316,834.9564206148316,834.9564206148316,834.9564206148316,836.4468333425248,836.4468333425248,,,,,cml,001,1,26,m,2024-02-08_14h57.30.496,eye_track_exp,2023.1.3,120.09860603181868,
180,168,180,180,0,180,0,180,168,180,f,abs,resp,freq_top,,,,,0,144,144,838,,,,,,,,,,,1.0342244795185855,,,,,,,,,,,,,,,,,,,,,,,681.8436504566416,681.8444166558693,681.844426598178,682.8819424577669,682.8819562487115,837.5375716648014,837.5375716648014,683.6829859511963,f,1,0.7590777936457016,None,683.6835225151626,683.6835610015187,683.6835699816693,683.6840404773866,,,,,,,,,,,cml,001,1,26,m,2024-02-08_14h57.30.496,eye_track_exp,2023.1.3,120.09860603181868,
0,180,-12,0,270,-12,180,0,180,0,j,present,resp,freq_top,,,,,0,145,145,604,,,,,,,,,,,0.8341601790439466,,,,,,,,,,,,,,,,,,,,,,,683.6845215568501,686.8213687801253,686.8213832125075,687.6616908083051,687.6617049199704,842.3169239265808,842.3169239265808,688.6867508790929,j,1,0.988301254416001,None,688.687253126056,688.6872909709746,688.6872999511252,688.6877736540373,,,,,,,,,,,cml,001,1,26,m,2024-02-08_14h57.30.496,eye_track_exp,2023.1.3,120.09860603181868,
180,180,168,180,0,0,180,0,0,168,f,abs,resp,freq_top,,,,,0,146,146,922,,,,,,,,,,,0.9738633669234307,,,,,,,,,,,,,,,,,,,,,,,688.6882512055854,688.8698356119421,688.8698490821662,689.8433537909732,689.8433675819178,844.4984499619604,844.4984499619604,690.5606140883174,f,1,0.6774042913748417,None,690.5611326919825,690.5611714990591,690.5611804792061,690.5617468700984,,,,,,,,,,,cml,001,1,26,m,2024-02-08_14h57.30.496,eye_track_exp,2023.1.3,120.09860603181868,
168,180,0,180,168,180,0,180,0,180,f,abs,resp,freq_top,,,,,0,147,147,858,,,,,,,,,,,0.781163275054976,,,,,,,,,,,,,,,,,,,,,,,690.5622372504331,690.784262479523,690.7842762704677,691.5666474662503,691.5666612571949,846.2219905913662,846.2219905913662,692.2677204017491,f,1,0.666042477281735,None,692.2682252144659,692.268263700822,692.2682723602557,692.2686338112908,,,,,,,,,,,cml,001,1,26,m,2024-02-08_14h57.30.496,eye_track_exp,2023.1.3,120.09860603181868,
180,180,12,180,168,0,180,90,0,180,None,present,inhibit,freq_top,,,,,0,148,148,101,,,,,,,,,,,0.935953970537996,,,,,,,,,,,,,,,,,,,,,,,692.2691030241294,692.5329465668256,692.5329597163327,693.4734068893158,693.473421000981,848.1287330162886,848.1287330162886,694.5729816792118,f,0,1.0630334214438335,None,694.5734858504911,695.0795243599423,695.0795359058466,695.0804605405792,,,,,,,849.2111573232469,,,,cml,001,1,26,m,2024-02-08_14h57.30.496,eye_track_exp,2023.1.3,120.09860603181868,
90,180,180,-168,0,180,-12,180,0,180,None,present,inhibit,freq_top,,,,,0,149,149,133,,,,,,,,,,,0.830664859264698,,,,,,,,,,,,,,,,,,,,,,,695.0809913315898,695.364106276229,695.3641203878942,696.1962037698686,696.1962175608132,850.8514423403794,850.8514423403794,699.2271910603886,None,1,,,699.2275714338866,699.2283164656183,699.2283270493681,699.2288774042754,852.3418941958698,852.3418941958698,852.3418941958698,852.3418941958698,853.8322774173575,853.8322774173575,,,,,cml,001,1,26,m,2024-02-08_14h57.30.496,eye_track_exp,2023.1.3,120.09860603181868,
