ori10,ori11,ori12,ori13,ori14,ori16,ori17,ori18,ori19,ori20,corrAns,distractor,responses,dist_freq,practice_trials.thisRepN,practice_trials.thisTrialN,practice_trials.thisN,practice_trials.thisIndex,trials.thisRepN,trials.thisTrialN,trials.thisN,trials.thisIndex,intro_2.started,intro_2.stopped,key_resp.keys,key_resp.rt,key_resp.duration,start_et_record_2.started,start_et_record_2.stopped,fix_check_3.started,fix_check_3.stopped,fix_practice_2.started,fixdur,fix_practice_2.stopped,practice_search_2.started,int14_2.started,per15_2.started,practice_search_2.stopped,response_2.keys,response_2.corr,feedback_4.started,text_feedback.started,feedback_4.stopped,pause_pract_2.started,pause_pract_2.stopped,response_2.rt,response_2.duration,text_feedback.stopped,stop_et_record_2.started,stop_et_record_2.stopped,break_3.started,break_3.stopped,key_resp_2.keys,key_resp_2.rt,key_resp_2.duration,fix_check_2.started,fix_check_2.stopped,fixation_2.started,fixation_2.stopped,search_displays_2.started,int14.started,per15.started,int14.stopped,int14_3.started,per15.stopped,per15_3.started,search_displays_2.stopped,response.keys,response.corr,response.rt,response.duration,feedback_6.started,feedback_6.stopped,pause_4.started,pause_4.stopped,int14_3.stopped,per15_3.stopped,text_feedback_2.started,text_feedback_2.stopped,end_2.started,end_2.stopped,participant,session,group,age,gender,date,expName,psychopyVersion,frameRate,
,,,,,,,,,,,,,,,,,,,,,,1.0262804607918952e-05,8.495488214452052,space,8.484138440951938,None,,,,,,,,,,,,,,,,,,,,,,,,,,,,,,,,,,,,,,,,,,,,,,,,,,,,,,,DA,001,2,25,F,2024-02-12_13h39.16.268,eye_track_exp,2023.1.3,120.10400095497161,
90,0,180,180,180,168,0,168,0,0,f,present,resp,freq_top,0,0,0,44,,,,,,,,,,67.94187019091441,68.44293944688616,68.46562762182566,68.80210105270726,68.80211516406416,0.9748699161227021,69.7762336532769,69.77624648178244,364.5845815469647,364.5845815469647,72.78965900548337,None,0,72.79019780273393,367.58201103508145,73.28061811590305,73.28063800008749,73.28131919375392,,,,,,,,,,,,,,,,,,,,,,,,,,,,,,,,,,,,,DA,001,2,25,F,2024-02-12_13h39.16.268,eye_track_exp,2023.1.3,120.10400095497161,
180,0,180,0,12,180,180,180,12,180,j,abs,resp,freq_top,0,1,1,9,,,,,,,,,,,,73.28184708677509,73.28261423143158,73.28262449423619,0.7493110234662755,74.03042440546324,74.03043787539445,368.83927774228596,368.83927774228596,77.04431575314902,None,0,77.04500753033335,371.8283712672255,77.53531302837382,77.53532393260411,77.53638324648455,,,,,,,,,,,,,,,,,,,,,,,,,,,,,,,,,,,,,DA,001,2,25,F,2024-02-12_13h39.16.268,eye_track_exp,2023.1.3,120.10400095497161,
0,180,0,12,0,180,180,12,0,0,j,abs,resp,freq_top,0,2,2,2,,,,,,,,,,,,77.536939682931,77.71940561683368,77.7194187660516,0.7108900085641188,78.43550661052905,78.43551975974788,373.24381281157275,373.24381281157275,81.44054436482202,None,0,81.44091831577134,376.2245928232214,81.9398557947643,81.93986573685652,81.9409834204389,,,,,,,,,,,,,,,,,,,,,,,,,,,,,,,,,,,,,DA,001,2,25,F,2024-02-12_13h39.16.268,eye_track_exp,2023.1.3,120.10400095497161,
0,0,0,-168,0,12,0,0,0,0,None,abs,inhibit,freq_top,0,3,3,21,,,,,,,,,,,,81.9415135584477,82.89062896881933,82.89064275946293,0.728574303303458,83.62272518517966,83.62273833439849,378.43102817909676,378.43102817909676,85.05607307886748,j,0,85.0567298983724,379.8381517201751,85.5543758675276,85.55438548890743,85.55476777838521,1.3951477364871607,None,380.33771972023624,,,,,,,,,,,,,,,,,,,,,,,,,,,,,,,,,,DA,001,2,25,F,2024-02-12_13h39.16.268,eye_track_exp,2023.1.3,120.10400095497161,
12,0,0,12,0,0,180,0,180,180,j,abs,resp,freq_top,0,4,4,6,,,,,,,,,,,,85.55531010347477,85.84612303306949,85.84614420010439,1.0275553219190323,86.87818339375553,86.87819654297437,381.68657394222555,381.68657394222555,89.0271807177296,j,1,89.02770219649665,,89.02848762177473,89.02849724315456,89.02908992012999,2.1068937731197366,None,,,,,,,,,,,,,,,,,,,,,,,,,,,,,,,,,,,DA,001,2,25,F,2024-02-12_13h39.16.268,eye_track_exp,2023.1.3,120.10400095497161,
0,180,0,12,0,180,180,180,0,12,j,abs,resp,freq_top,0,5,5,4,,,,,,,,,,,,89.0297646995441,89.23500315581259,89.23501598431903,1.069837621638286,90.30858971102498,90.30860286024381,385.1169552439087,385.1169552439087,91.19148373217195,j,1,91.19200200381238,,91.19204145146887,91.19204978999733,91.19266363400766,0.8367263996024121,None,,,,,,,,,,,,,,,,,,,,,,,,,,,,,,,,,,,DA,001,2,25,F,2024-02-12_13h39.16.268,eye_track_exp,2023.1.3,120.10400095497161,
0,180,0,0,180,168,180,0,0,168,f,abs,resp,freq_top,0,6,6,16,,,,,,,,,,,,91.1931745292577,91.39121875938145,91.39123158788698,0.8762682283243511,92.27348193874695,92.27349540867817,387.0819286119304,387.0819286119304,94.07275238161219,f,1,94.07330753520819,,94.07334666215138,94.07335500067984,94.07370169105343,1.7514873917079967,None,,,,,,,,,,,,,,,,,,,,,,,,,,,,,,,,,,,DA,001,2,25,F,2024-02-12_13h39.16.268,eye_track_exp,2023.1.3,120.10400095497161,
180,180,0,168,180,180,180,180,168,180,f,abs,resp,freq_top,0,7,7,10,,,,,,,,,,,,94.0742010406484,94.27174688331434,94.27175939110839,1.0809121453857908,95.35369762441769,95.35371109434891,390.1626192730346,390.1626192730346,97.02040694586685,f,1,97.02095825091055,,97.02099769856613,97.02100635780789,97.02152174303501,1.6305838543748905,None,,,,,,,,,,,,,,,,,,,,,,,,,,,,,,,,,,,DA,001,2,25,F,2024-02-12_13h39.16.268,eye_track_exp,2023.1.3,120.10400095497161,
12,0,0,-168,0,0,180,180,180,180,None,abs,inhibit,freq_top,0,8,8,27,,,,,,,,,,,,97.02204386322774,97.20342642980177,97.2034392583073,0.8065601983927198,98.00989494736496,98.00990809658379,392.81867804811736,392.81867804811736,99.45985158701478,f,0,99.46036152012675,394.25078446314,99.9660432654191,99.9660541696494,99.96706056594212,1.406241828446582,None,,,,,,,,,,,,,,,,,,,,,,,,,,,,,,,,,,,DA,001,2,25,F,2024-02-12_13h39.16.268,eye_track_exp,2023.1.3,120.10400095497161,
0,180,0,180,168,180,12,180,0,180,None,abs,inhibit,freq_top,0,9,9,28,,,,,,,,,,,,99.96759326965275,99.96836169716062,99.96837195996522,0.8883969894316988,100.85797208260556,100.85798555253677,395.6662458916717,395.6662458916717,102.48270268398028,f,0,102.48321678635693,397.26485412705915,102.98136884007272,102.98137878216403,102.98174503600967,1.5828608500423798,None,397.7644317485001,,,,,,,,,,,,,,,,,,,,,,,,,,,,,,,,,,DA,001,2,25,F,2024-02-12_13h39.16.268,eye_track_exp,2023.1.3,120.10400095497161,
180,0,180,0,168,180,0,180,12,180,None,abs,inhibit,freq_top,0,10,10,30,,,,,,,,,,,,102.98230307601898,102.9830727863773,102.98308336989521,0.9565068242899027,103.93819065469052,103.93820380390844,398.7469208378561,398.7469208378561,105.85411968226344,f,0,105.85464597172086,400.63696675107894,106.35299879155536,106.3530080922219,106.35327364229488,1.8779754983997918,None,401.13653154401345,,,,,,,,,,,,,,,,,,,,,,,,,,,,,,,,,,DA,001,2,25,F,2024-02-12_13h39.16.268,eye_track_exp,2023.1.3,120.10400095497161,
0,270,0,0,12,0,180,180,180,12,j,present,resp,freq_top,0,11,11,42,,,,,,,,,,,,106.3538278337528,106.39472094151006,106.39473280787752,0.8136169348238322,107.210656575764,107.21066972498284,402.01910549393597,402.01910549393597,108.8101121339705,j,1,108.81062270850816,,108.81138568390088,108.8113953052798,108.81195494885287,1.5497498347167493,None,,,,,,,,,,,,,,,,,,,,,,,,,,,,,,,,,,,DA,001,2,25,F,2024-02-12_13h39.16.268,eye_track_exp,2023.1.3,120.10400095497161,
180,12,180,12,180,90,180,180,0,180,j,present,resp,freq_top,0,12,12,37,,,,,,,,,,,,108.81247322049421,109.14267351195758,109.14268762331449,0.9799268109607151,110.12442945219755,110.12444324284115,404.9332706019395,404.9332706019395,111.40785797304488,j,1,111.40839163889268,,111.4084301244111,111.40843878365285,111.40889740274088,1.2435802213421994,None,,,,,,,,,,,,,,,,,,,,,,,,,,,,,,,,,,,DA,001,2,25,F,2024-02-12_13h39.16.268,eye_track_exp,2023.1.3,120.10400095497161,
180,180,180,-168,180,180,12,180,0,180,None,abs,inhibit,freq_top,0,13,13,22,,,,,,,,,,,,111.40941663652029,111.59135307383895,111.59136590234448,0.9263100968756568,112.52263461592793,112.52264808585915,407.3312349104699,407.3312349104699,115.53627003491965,None,1,115.53668952706448,,115.53672929543336,115.5367382753875,115.53798231975361,,,,,,,,,,,,,,,,,,,,,,,,,,,,,,,,,,,,,DA,001,2,25,F,2024-02-12_13h39.16.268,eye_track_exp,2023.1.3,120.10400095497161,
0,180,0,0,180,0,180,168,0,168,f,abs,resp,freq_top,0,14,14,14,,,,,,,,,,,,115.5384983464055,116.02855497143082,116.02856812064965,1.0736084810018083,117.10221496984013,117.10222811905896,411.91061321541383,411.91061321541383,119.08452253583619,j,0,119.085024451133,413.8755971669534,119.59084602714029,119.59085757279536,119.59133447250497,1.945401163621682,None,,,,,,,,,,,,,,,,,,,,,,,,,,,,,,,,,,,DA,001,2,25,F,2024-02-12_13h39.16.268,eye_track_exp,2023.1.3,120.10400095497161,
180,0,180,12,180,180,12,180,180,180,j,abs,resp,freq_top,0,15,15,1,,,,,,,,,,,,119.59188417398582,119.7831863827978,119.78319889059094,0.849382302128068,120.63253129514032,120.63254444435916,415.4409160707828,415.4409160707828,121.68297554630226,j,1,121.68348580012662,,121.6842394748528,121.68424909623172,121.68480553267818,1.0071216715286937,None,,,,,,,,,,,,,,,,,,,,,,,,,,,,,,,,,,,DA,001,2,25,F,2024-02-12_13h39.16.268,eye_track_exp,2023.1.3,120.10400095497161,
180,168,0,180,0,180,180,180,168,180,f,abs,resp,freq_top,0,16,16,12,,,,,,,,,,,,121.68531771077869,121.87352857036603,121.87354171958486,0.9657704155485445,122.83845511434083,122.83846794284636,417.6473533509343,417.6473533509343,124.93754217371315,f,1,124.9380460132852,,124.93808578165408,124.93809444089584,124.93854215575357,2.049137594270178,None,,,,,,,,,,,,,,,,,,,,,,,,,,,,,,,,,,,DA,001,2,25,F,2024-02-12_13h39.16.268,eye_track_exp,2023.1.3,120.10400095497161,
12,0,0,12,0,0,90,180,180,0,j,present,resp,freq_top,0,17,17,38,,,,,,,,,,,,124.93904342962469,125.12088108744683,125.12089359523998,0.806481873773686,125.92809590334491,125.92810969398943,420.73637933379086,420.73637933379086,127.17824952470437,j,1,127.17877068275902,,127.17881077184029,127.17881943108205,127.17928799226229,1.2152779714797362,None,,,,,,,,,,,,,,,,,,,,,,,,,,,,,,,,,,,DA,001,2,25,F,2024-02-12_13h39.16.268,eye_track_exp,2023.1.3,120.10400095497161,
90,0,0,12,0,180,180,180,0,12,j,present,resp,freq_top,0,18,18,36,,,,,,,,,,,,127.17979728394857,127.38581539266761,127.38582918331213,0.9220610517439948,128.30941426324625,128.30942741246508,423.1176627360128,423.1176627360128,129.88416725036404,j,1,129.8846601857058,,129.88469963336138,129.88470797189075,129.88517364665677,1.5381724287944962,None,,,,,,,,,,,,,,,,,,,,,,,,,,,,,,,,,,,DA,001,2,25,F,2024-02-12_13h39.16.268,eye_track_exp,2023.1.3,120.10400095497161,
90,0,0,12,0,12,180,180,180,0,j,present,resp,freq_top,0,19,19,32,,,,,,,,,,,,129.8856675441366,130.07533732556476,130.0753501540703,0.789279107561737,130.8654142196292,130.86542704813564,425.67379931598407,425.67379931598407,131.94889860862077,j,1,131.94946691143468,,131.9495057176655,131.94951405619395,131.94997620312188,1.0457415680284612,None,,,,,,,,,,,,,,,,,,,,,,,,,,,,,,,,,,,DA,001,2,25,F,2024-02-12_13h39.16.268,eye_track_exp,2023.1.3,120.10400095497161,
168,0,180,0,0,180,180,0,168,0,f,abs,resp,freq_top,0,20,20,13,,,,,,,,,,,,131.95046144135995,132.12283422748078,132.1228470559863,1.0025302792241908,133.12983089463432,133.12984404385315,427.93852932724803,427.93852932724803,134.93778719817783,j,0,134.9383000177031,429.7286540074974,135.4438993398453,135.44391088550037,135.44498912142717,1.7732618563104552,None,,,,,,,,,,,,,,,,,,,,,,,,,,,,,,,,,,,DA,001,2,25,F,2024-02-12_13h39.16.268,eye_track_exp,2023.1.3,120.10400095497161,
0,180,0,12,0,12,0,180,180,180,j,abs,resp,freq_top,0,21,21,0,,,,,,,,,,,,135.44553337079287,135.63689651500863,135.63690902280177,0.9620186459904864,136.6019122170992,136.60192568703042,431.4105477900339,431.4105477900339,137.9012654038288,j,1,137.90180035252797,,137.9025591586551,137.90256878003493,137.90314413852775,1.2604917200460477,None,,,,,,,,,,,,,,,,,,,,,,,,,,,,,,,,,,,DA,001,2,25,F,2024-02-12_13h39.16.268,eye_track_exp,2023.1.3,120.10400095497161,
180,270,0,0,0,0,0,168,0,168,f,present,resp,freq_top,0,22,22,43,,,,,,,,,,,,137.90366337230626,138.06844456930867,138.06846605705596,0.7824290250919933,138.85022879640383,138.85024162491027,433.6586135720463,433.6586135720463,140.78247343857856,j,0,140.78298561667907,435.57364075565056,141.2888982750792,141.28890982073426,141.29034789625348,1.8926567613407315,None,,,,,,,,,,,,,,,,,,,,,,,,,,,,,,,,,,,DA,001,2,25,F,2024-02-12_13h39.16.268,eye_track_exp,2023.1.3,120.10400095497161,
180,270,180,12,180,0,12,180,0,180,j,present,resp,freq_top,0,23,23,33,,,,,,,,,,,,141.29088252423935,141.5401949163197,141.54020742411285,0.832402455570913,142.37245386227823,142.37246701149706,437.18058302993995,437.18058302993995,144.13827718296307,j,1,144.13879128533972,,144.13955426073153,144.13956356139897,144.14014148559272,1.7300576932029799,None,,,,,,,,,,,,,,,,,,,,,,,,,,,,,,,,,,,DA,001,2,25,F,2024-02-12_13h39.16.268,eye_track_exp,2023.1.3,120.10400095497161,
0,0,168,0,0,0,0,0,180,168,f,abs,resp,freq_top,0,24,24,19,,,,,,,,,,,,144.1406440423134,144.16288193669425,144.16289284092454,0.8923961814157219,145.06151172397222,145.0615258353282,439.8699625664203,439.8699625664203,146.9692770110605,j,0,146.96979945196654,441.75999084044724,147.47523585208273,147.47524707702541,147.4759119143464,1.87283222964561,None,,,,,,,,,,,,,,,,,,,,,,,,,,,,,,,,,,,DA,001,2,25,F,2024-02-12_13h39.16.268,eye_track_exp,2023.1.3,120.10400095497161,
0,180,180,180,12,0,180,12,0,0,j,abs,resp,freq_top,0,25,25,8,,,,,,,,,,,,147.47644493876942,147.4773115043481,147.47732176715272,0.891106701349392,148.36688532855078,148.3668984777696,443.17543687477155,443.17543687477155,150.83250268757183,j,1,150.83300780999434,,150.83393691453966,150.83394685663097,150.83455172068807,2.4231866812651788,None,,,,,,,,,,,,,,,,,,,,,,,,,,,,,,,,,,,DA,001,2,25,F,2024-02-12_13h39.16.268,eye_track_exp,2023.1.3,120.10400095497161,
0,0,180,0,168,0,0,0,180,168,f,abs,resp,freq_top,0,26,26,17,,,,,,,,,,,,150.83504433531652,151.01488844331197,151.01490063039273,0.8372678565174185,151.85524762865043,151.85526077786926,446.66411122827867,446.66411122827867,153.37213635675562,j,0,153.37264757271896,448.1628261326932,153.8780717857535,153.87808333140947,153.87874432017907,1.4787139072032005,None,,,,,,,,,,,,,,,,,,,,,,,,,,,,,,,,,,,DA,001,2,25,F,2024-02-12_13h39.16.268,eye_track_exp,2023.1.3,120.10400095497161,
180,12,180,-168,180,180,0,180,180,180,None,abs,inhibit,freq_top,0,27,27,26,,,,,,,,,,,,153.87927606175163,153.9456385645417,153.94565075162245,0.7931524827233405,154.74496256641942,154.74497571563825,449.55329955587786,449.55329955587786,157.24401197412772,j,0,157.24455494064296,452.0261775285635,157.74245619706653,157.74246517702068,157.74290519477563,2.4608280834718244,None,452.525742321498,,,,,,,,,,,,,,,,,,,,,,,,,,,,,,,,,,DA,001,2,25,F,2024-02-12_13h39.16.268,eye_track_exp,2023.1.3,120.10400095497161,
90,0,0,12,0,0,0,12,0,0,j,present,resp,freq_top,0,28,28,34,,,,,,,,,,,,157.74346419692301,157.8843211924359,157.88433402094142,0.8373895041506704,158.72499948685982,158.72501263607865,453.53320979482123,453.53320979482123,159.9581643177671,f,0,159.9586594980974,454.74051171627525,160.4565498502916,160.4565597923838,160.45681058967511,1.1846527998977763,None,455.24008003704876,,,,,,,,,,,,,,,,,,,,,,,,,,,,,,,,,,DA,001,2,25,F,2024-02-12_13h39.16.268,eye_track_exp,2023.1.3,120.10400095497161,
90,0,180,168,180,180,0,168,0,0,f,present,resp,freq_top,0,29,29,46,,,,,,,,,,,,160.4573657432711,160.79811683946718,160.79812934726033,0.8187135622620694,161.62214341243453,161.62215656165245,456.4307334441719,456.4307334441719,162.60580214082165,j,0,162.60630309397948,457.3882409424341,163.10448689824716,163.10449651962608,163.1048954861617,0.9433001750576295,None,457.88780701821906,,,,,,,,,,,,,,,,,,,,,,,,,,,,,,,,,,DA,001,2,25,F,2024-02-12_13h39.16.268,eye_track_exp,2023.1.3,120.10400095497161,
0,168,180,90,0,180,0,168,0,0,f,present,resp,freq_top,0,30,30,48,,,,,,,,,,,,163.10544582906823,163.33734769356306,163.33736116349428,0.9768114222217399,164.3202707071332,164.32028385635203,459.12840981688623,459.12840981688623,165.5363389881386,j,0,165.53686367403316,460.3190587340323,166.0346392110987,166.03464787033954,196.92526914205519,1.1739021911853342,None,460.81862128197827,,,,,,,,,,,,,,,,,,,,,,,,,,,,,,,,,,DA,001,2,25,F,2024-02-12_13h39.16.268,eye_track_exp,2023.1.3,120.10400095497161,
180,270,180,12,180,180,180,180,12,180,j,present,resp,freq_top,0,31,31,35,,,,,,,,,,,,196.92583872772047,196.94255362956937,196.94256517522444,0.8729011776927619,197.81639457405527,197.81640836469887,492.624656516753,492.624656516753,198.9500849247097,j,1,198.950576577201,,198.95131421629412,198.95132351696066,198.95179143671612,1.1002149322011974,None,,,,,,,,,,,,,,,,,,,,,,,,,,,,,,,,,,,DA,001,2,25,F,2024-02-12_13h39.16.268,eye_track_exp,2023.1.3,120.10400095497161,
180,180,90,180,12,180,12,0,0,180,j,present,resp,freq_top,0,32,32,39,,,,,,,,,,,,198.95228886203495,199.15758632943107,199.1575997993623,0.8510565104157355,200.01412226079356,200.0141347685867,494.82276392726817,494.82276392726817,201.68098167576227,j,1,201.68150123025407,,201.68154067790965,201.6815493371514,201.68203842394087,1.6210529158679492,None,,,,,,,,,,,,,,,,,,,,,,,,,,,,,,,,,,,DA,001,2,25,F,2024-02-12_13h39.16.268,eye_track_exp,2023.1.3,120.10400095497161,
0,0,168,0,0,0,0,0,168,0,f,abs,resp,freq_top,0,33,33,11,,,,,,,,,,,,201.68254931919182,201.86271862981357,201.86273081689342,0.8190890754697184,202.68690523839268,202.6869187083239,497.4954731409571,497.4954731409571,204.33582783631846,j,0,204.3363419386951,499.1190838137609,204.8353846114378,204.83539455353002,204.8356572171897,1.6045679649878366,None,499.61865373809906,,,,,,,,,,,,,,,,,,,,,,,,,,,,,,,,,,DA,001,2,25,F,2024-02-12_13h39.16.268,eye_track_exp,2023.1.3,120.10400095497161,
0,0,0,0,168,0,0,12,0,0,None,abs,inhibit,freq_top,0,34,34,29,,,,,,,,,,,,204.83620242869256,204.90250335465407,204.90251490031005,1.0041157389648427,205.90903562989297,205.90905711764026,500.7177090469195,500.7177090469195,207.4091158080546,j,0,207.4096671130992,502.1914526230448,207.90775791069882,207.90776721136535,207.9081190331417,1.4535825433031277,None,502.6910113224394,,,,,,,,,,,,,,,,,,,,,,,,,,,,,,,,,,DA,001,2,25,F,2024-02-12_13h39.16.268,eye_track_exp,2023.1.3,120.10400095497161,
0,0,180,0,0,0,168,0,180,168,f,abs,resp,freq_top,0,35,35,15,,,,,,,,,,,,207.90866199965603,207.99077566278538,207.99078752915284,0.7613324463160508,208.75680167386327,208.75683150013992,503.5652695140825,503.5652695140825,210.60576269316516,j,0,210.60629090689872,505.38868769515375,211.10584383346577,211.10585473769606,211.10615107618378,1.806294297036402,None,505.8882653165947,,,,,,,,,,,,,,,,,,,,,,,,,,,,,,,,,,DA,001,2,25,F,2024-02-12_13h39.16.268,eye_track_exp,2023.1.3,120.10400095497161,
180,180,168,0,270,0,0,168,0,180,f,present,resp,freq_top,0,36,36,47,,,,,,,,,,,,211.1067193789977,211.10750512498817,211.10751570850607,0.7788673411925126,211.8870385907121,211.88705173993003,506.69591309456973,506.69591309456973,213.3202812906502,j,0,213.320793789464,508.10303888063663,213.81935603465809,213.81936533532462,213.8196093976503,1.3969068453670843,None,508.6025703194555,,,,,,,,,,,,,,,,,,,,,,,,,,,,,,,,,,DA,001,2,25,F,2024-02-12_13h39.16.268,eye_track_exp,2023.1.3,120.10400095497161,
0,0,0,-168,180,180,180,180,0,12,None,abs,inhibit,freq_top,0,37,37,25,,,,,,,,,,,,213.8207059141978,213.8218328984476,213.821843802677,0.8026208379992646,214.62664910444255,214.62666225366047,509.43522694909916,509.43522694909916,216.22603699227966,j,0,216.2265555846334,511.0088728361525,216.7245867296806,216.72459603034713,216.7249542663767,1.551797905694002,None,511.508441156926,,,,,,,,,,,,,,,,,,,,,,,,,,,,,,,,,,DA,001,2,25,F,2024-02-12_13h39.16.268,eye_track_exp,2023.1.3,120.10400095497161,
0,0,0,-168,0,0,0,12,0,0,None,abs,inhibit,freq_top,0,38,38,23,,,,,,,,,,,,216.7255200034897,216.93346078454033,216.93347393375916,0.9582469543433562,217.89050036304707,217.8905131915526,512.6990833391064,512.6990833391064,220.4898096762854,j,0,220.4903471906855,515.2718774133627,220.98787000618358,220.98787898613773,220.988236901454,2.5597733878539657,None,515.7714489412638,,,,,,,,,,,,,,,,,,,,,,,,,,,,,,,,,,DA,001,2,25,F,2024-02-12_13h39.16.268,eye_track_exp,2023.1.3,120.10400095497161,
180,0,180,12,0,180,180,0,12,180,j,abs,resp,freq_top,0,39,39,3,,,,,,,,,,,,220.98876094592288,220.9896085894543,220.9896185315465,0.7583061796879629,221.74560816098256,221.7456209894881,516.5541132038688,516.5541132038688,224.759151214731,None,0,224.75952708995646,519.5432096152226,225.2501449621177,225.25016420487646,225.25114718914665,,,,,,,,,,,,,,,,,,,,,,,,,,,,,,,,,,,,,DA,001,2,25,F,2024-02-12_13h39.16.268,eye_track_exp,2023.1.3,120.10400095497161,
180,0,90,180,12,0,180,180,12,180,j,present,resp,freq_top,0,40,40,41,,,,,,,,,,,,225.2517145298225,225.5842820013495,225.58429482985593,0.8246207806747123,226.40798208884007,226.40799587948368,521.2167809045131,521.2167809045131,228.6240638397776,j,1,228.6245827528437,,228.62552436518126,228.6255339865611,228.62612505997367,2.16975794233349,None,,,,,,,,,,,,,,,,,,,,,,,,,,,,,,,,,,,DA,001,2,25,F,2024-02-12_13h39.16.268,eye_track_exp,2023.1.3,120.10400095497161,
0,180,0,-168,180,0,180,0,12,180,None,abs,inhibit,freq_top,0,41,41,24,,,,,,,,,,,,228.62663242738472,228.9650256441837,228.96503847268923,0.9469777035973649,229.9139582483449,229.91397171827612,524.7220992823741,524.7220992823741,231.61280746721695,f,0,231.61332060745553,526.3956320861462,232.1113427725486,232.11135239392752,232.11171255423233,1.65665650990195,None,526.8952526830826,,,,,,,,,,,,,,,,,,,,,,,,,,,,,,,,,,DA,001,2,25,F,2024-02-12_13h39.16.268,eye_track_exp,2023.1.3,120.10400095497161,
180,0,180,0,12,0,12,180,180,180,j,abs,resp,freq_top,0,42,42,7,,,,,,,,,,,,232.1122619350008,232.11301593043845,232.11302587253067,0.8363485261251407,232.95287127620577,232.9528841047113,527.7611752322609,527.7611752322609,235.48459745431137,j,1,235.4850916725036,,235.48582418019487,235.4858338015738,235.48628183714482,2.4894151261678417,None,,,,,,,,,,,,,,,,,,,,,,,,,,,,,,,,,,,DA,001,2,25,F,2024-02-12_13h39.16.268,eye_track_exp,2023.1.3,120.10400095497161,
180,168,180,0,180,0,180,0,0,168,f,abs,resp,freq_top,0,43,43,20,,,,,,,,,,,,235.4868055609013,235.68399412967574,235.68400727889457,0.8034591372355535,236.49144114153205,236.49145461146327,531.2997832623923,531.2997832623923,238.2901917091931,j,0,238.2907853483066,533.0815851286834,238.79685002450242,238.7968612494451,238.79781985955378,1.7505512314846783,None,,,,,,,,,,,,,,,,,,,,,,,,,,,,,,,,,,,DA,001,2,25,F,2024-02-12_13h39.16.268,eye_track_exp,2023.1.3,120.10400095497161,
0,270,0,0,12,0,0,12,0,0,j,present,resp,freq_top,0,44,44,40,,,,,,,,,,,,238.7983493561378,238.85631463963455,238.85632618528962,1.0454081252892413,239.9046306416567,239.90464379087462,534.7135211811465,534.7135211811465,241.35557860410518,j,1,241.35608533009054,,241.35684541906903,241.35685471973557,241.35731847022635,1.4080750219491165,None,,,,,,,,,,,,,,,,,,,,,,,,,,,,,,,,,,,DA,001,2,25,F,2024-02-12_13h39.16.268,eye_track_exp,2023.1.3,120.10400095497161,
180,180,0,168,180,180,180,0,0,168,f,abs,resp,freq_top,0,45,45,18,,,,,,,,,,,,241.35784572182183,241.57908100431814,241.57909415353697,0.9920728174132513,242.57735300456443,242.57736615378326,537.3862249427211,537.3862249427211,244.66033259184587,f,1,244.66083771426838,,244.6608758790735,244.66088421760287,244.66122770084985,2.0476244719911847,None,,,,,,,,,,,,,,,,,,,,,,,,,,,,,,,,,,,DA,001,2,25,F,2024-02-12_13h39.16.268,eye_track_exp,2023.1.3,120.10400095497161,
180,12,180,12,0,180,0,180,180,180,j,abs,resp,freq_top,0,46,46,5,,,,,,,,,,,,244.66175046246826,244.9262056229909,244.92621877220972,0.7737820791709371,245.69996978886866,245.6999826173742,540.5085425021234,540.5085425021234,247.19981680893488,j,1,247.20032962846108,,247.20036939682905,247.2003780560708,247.20083218518266,1.4530382939365154,None,,,,,,,,,,,,,,,,,,,,,,,,,,,,,,,,,,,DA,001,2,25,F,2024-02-12_13h39.16.268,eye_track_exp,2023.1.3,120.10400095497161,
168,0,270,180,180,180,180,168,180,180,f,present,resp,freq_top,0,47,47,49,,,,,,,,,,,,247.20136328532953,247.2021211293195,247.2021310714117,0.8012750506862485,248.0066060391473,248.00661950907852,542.8149026188121,542.8149026188121,251.01994608178939,None,0,251.02032291915202,545.8040012751535,251.5109253971068,251.51093694276187,251.51203249717128,,,,,,,,,,,,,,,,,,,,,,,,,,,,,,,,,,,,,DA,001,2,25,F,2024-02-12_13h39.16.268,eye_track_exp,2023.1.3,120.10400095497161,
180,270,0,0,168,0,0,168,180,0,f,present,resp,freq_top,0,48,48,45,,,,,,,,,,,,251.512554617364,251.51356710719756,251.51357737000217,0.9432685534457665,252.4611344376117,252.4611479075429,547.2694114538035,547.2694114538035,254.57701401129452,j,0,254.5776089332585,549.359282835203,255.07558170860284,255.07559068855699,255.0759364167934,2.067779337715365,None,549.8588495524136,,,,,,,,,,,,,,,,,,,,,,,,,,,,,,,,,,DA,001,2,25,F,2024-02-12_13h39.16.268,eye_track_exp,2023.1.3,120.10400095497161,
0,180,180,180,168,0,0,0,0,12,None,abs,inhibit,freq_top,0,49,49,31,,,,,,,,,,,,255.0764983053541,255.07725294221837,255.07726320502297,0.9576389275963606,256.03246734503864,256.03248049425656,550.8413412074706,550.8413412074706,259.04636895552903,None,1,259.0467544521334,,259.04748150770865,259.0474914498009,259.0486081712452,,,,,,,,,,,,,,,,,,,,,,,,,,,,,,,,,,,,,DA,001,2,25,F,2024-02-12_13h39.16.268,eye_track_exp,2023.1.3,120.10400095497161,
,,,,,,,,,,,,,,,,,,,,,,,,,,,,,,,,,,,,,,,,,,,,,,,,259.048657560993,259.55173351601115,259.5517527587708,263.87604840965014,space,4.309793592750793,None,,,,,,,,,,,,,,,,,,,,,,,,,,,DA,001,2,25,F,2024-02-12_13h39.16.268,eye_track_exp,2023.1.3,120.10400095497161,
0,180,0,180,180,90,180,-12,180,-12,j,present,resp,freq_bottom,,,,,0,0,0,461,,,,,,263.87607342523734,264.3776054695618,,,,0.7716297995290079,,,,,,,,,,,,,,,,,,,,,,,264.5181667680117,264.51946629566646,264.519479124172,265.2913761010068,265.29139149521416,560.1000588187007,560.1000588187007,561.5904515505817,561.5904515505817,561.5904515505817,561.5904515505817,267.0993526094462,j,1,1.7641702941318727,None,267.1007034511249,267.10074706804517,267.1007560479993,267.1013070323306,,,,,,,DA,001,2,25,F,2024-02-12_13h39.16.268,eye_track_exp,2023.1.3,120.10400095497161,
168,180,180,180,180,180,168,180,270,180,f,present,resp,freq_bottom,,,,,0,1,1,420,,,,,,,,,,,0.9925398578710382,,,,,,,,,,,,,,,,,,,,,,,267.10180413693706,267.356711681894,267.3567261139633,268.3559666664105,268.3559807777665,563.164103531175,563.164103531175,564.6544805481371,564.6544805481371,564.6544805481371,564.6544805481371,271.38711812744896,None,0,,,271.38753152605386,271.8859183414279,271.8859289249458,271.8862926130896,566.1448691107544,566.1448691107544,566.1698651339175,566.669426399013,,,DA,001,2,25,F,2024-02-12_13h39.16.268,eye_track_exp,2023.1.3,120.10400095497161,
180,0,180,0,180,90,180,-168,0,-168,f,present,resp,freq_bottom,,,,,0,2,2,513,,,,,,,,,,,0.7597619355396854,,,,,,,,,,,,,,,,,,,,,,,271.8868512945246,271.8876501897339,271.8876610939642,272.65202388924445,272.65203767988805,567.4604077027489,567.4604077027489,568.9507904925385,568.9507904925385,568.9507904925385,568.9507904925385,274.2435703528099,j,0,1.556419695681143,None,274.24411684716415,274.74139912817463,274.74140907026685,274.74177756910103,,,569.0257320586934,569.5253077558582,,,DA,001,2,25,F,2024-02-12_13h39.16.268,eye_track_exp,2023.1.3,120.10400095497161,
0,0,180,180,180,90,0,168,0,12,None,present,inhibit,freq_bottom,,,,,0,3,3,23,,,,,,,,,,,0.9554018643313149,,,,,,,,,,,,,,,,,,,,,,,274.7423195734782,274.7754912034934,274.77550371128655,275.7328114055681,275.73283385545346,570.5410970810026,570.5410970810026,572.0314891714588,572.0314891714588,572.0314891714588,572.0314891714588,277.4580161485237,j,0,1.6910673735937962,None,277.45850619745124,277.95595428690194,277.9559655118446,277.95640937815097,,,572.2396406607195,572.7392057743673,,,DA,001,2,25,F,2024-02-12_13h39.16.268,eye_track_exp,2023.1.3,120.10400095497161,
-168,180,0,12,180,90,180,180,0,180,None,present,inhibit,freq_bottom,,,,,0,4,4,94,,,,,,,,,,,1.080847473707321,,,,,,,,,,,,,,,,,,,,,,,277.9569661353098,277.95774258063375,277.95775316415074,279.0383331793919,279.03834825288595,573.8465848592841,573.8465848592841,575.336973101189,575.336973101189,575.336973101189,575.336973101189,282.06921652465553,None,1,,,282.0696090769379,282.07038263584764,282.07039289865224,282.071222261563,576.8273639087947,576.8273639087947,,,,,DA,001,2,25,F,2024-02-12_13h39.16.268,eye_track_exp,2023.1.3,120.10400095497161,
0,270,0,180,180,180,12,180,180,12,j,present,resp,freq_bottom,,,,,0,5,5,454,,,,,,,,,,,0.9947159125217079,,,,,,,,,,,,,,,,,,,,,,,282.0717347603768,282.07247496517084,282.07248586940113,283.06757543802996,283.06758954938596,577.8764807303014,577.8764807303014,579.3668340145277,579.3668340145277,579.3668340145277,579.3668340145277,286.0988093222186,None,0,,,286.0991758967766,286.5986569837105,286.5986675672284,286.5991419012362,580.8572350849381,580.8572350849381,580.8822189210205,581.3817856382311,,,DA,001,2,25,F,2024-02-12_13h39.16.268,eye_track_exp,2023.1.3,120.10400095497161,
0,0,0,180,180,12,0,-12,0,270,j,present,resp,freq_bottom,,,,,0,6,6,472,,,,,,,,,,,1.0991947988338735,,,,,,,,,,,,,,,,,,,,,,,286.5997034690845,286.6003747206596,286.6003856248899,287.69722031932724,287.6972350721089,582.5058180481692,582.5058180481692,583.9962104593378,583.9962104593378,583.9962104593378,583.9962104593378,289.50573562501813,f,0,1.7736791034667476,None,289.5062638387508,290.00363848500456,290.0036487478101,290.0041246853807,,,584.2876115759309,584.7871959323375,,,DA,001,2,25,F,2024-02-12_13h39.16.268,eye_track_exp,2023.1.3,120.10400095497161,
0,0,0,180,168,0,0,168,0,0,f,abs,resp,freq_bottom,,,,,0,7,7,899,,,,,,,,,,,0.8308357504895996,,,,,,,,,,,,,,,,,,,,,,,290.00467117973494,290.0054543600245,290.0054652642548,290.8363980634085,290.8364124954778,585.6448017610974,585.6448017610974,,,,,292.01997558735366,j,0,1.1469709878974754,None,292.02048872759224,292.5182498325885,292.51826073681787,292.5187264115848,,,586.8021337653981,587.3017030483097,,,DA,001,2,25,F,2024-02-12_13h39.16.268,eye_track_exp,2023.1.3,120.10400095497161,
180,180,180,12,0,180,-168,180,270,0,None,present,inhibit,freq_bottom,,,,,0,8,8,208,,,,,,,,,,,0.9390180712568348,,,,,,,,,,,,,,,,,,,,,,,292.5192783580542,292.52006025549235,292.52007083901026,293.4589167096419,293.4589311417112,588.2675535654271,588.2675535654271,589.7579292995388,589.7579292995388,589.7579292995388,589.7579292995388,295.0178082112707,j,0,1.5160050911972576,None,295.0183126922675,295.5163303673826,295.51634159232526,295.516715863987,,,589.7995594049635,590.299132215714,,,DA,001,2,25,F,2024-02-12_13h39.16.268,eye_track_exp,2023.1.3,120.10400095497161,
168,0,0,0,0,0,12,0,270,180,None,present,inhibit,freq_bottom,,,,,0,9,9,255,,,,,,,,,,,0.9962614582590643,,,,,,,,,,,,,,,,,,,,,,,295.5172697347325,295.51808049630927,295.5180910798272,296.5147819667127,296.514796398782,591.3232568626099,591.3232568626099,,,,,297.86525771185643,j,0,1.30880868420536,None,297.8657644378418,298.36310059857806,298.36311086138267,298.36352810853987,,,592.6471157028618,593.1466862686239,,,DA,001,2,25,F,2024-02-12_13h39.16.268,eye_track_exp,2023.1.3,120.10400095497161,
168,180,0,180,180,180,-168,180,180,180,f,abs,resp,freq_bottom,,,,,0,10,10,789,,,,,,,,,,,1.0733535660518987,,,,,,,,,,,,,,,,,,,,,,,298.3640595293991,298.36485072750475,298.36486163173504,299.4368686771504,299.4368837506445,594.2457406153071,594.2457406153071,595.7361375164528,595.7361375164528,595.7361375164528,595.7361375164528,302.46821898003145,None,0,,,302.46862147440606,302.96794348786534,302.967954712808,302.9682173764677,597.226511005576,597.226511005576,597.2515009351982,597.751065086708,,,DA,001,2,25,F,2024-02-12_13h39.16.268,eye_track_exp,2023.1.3,120.10400095497161,
180,180,0,180,-168,0,0,270,0,-168,f,present,resp,freq_bottom,,,,,0,11,11,718,,,,,,,,,,,1.0556976213713563,,,,,,,,,,,,,,,,,,,,,,,302.96876675723615,303.15083917671836,303.15085296736197,304.20830158278113,304.2083160148504,599.0249710075768,599.0249710075768,,,,,305.41626737941897,f,1,1.157407298213002,None,305.41676961542726,305.41750789594516,305.4175178380374,305.4183516909252,,,,,,,DA,001,2,25,F,2024-02-12_13h39.16.268,eye_track_exp,2023.1.3,120.10400095497161,
168,180,0,180,180,180,168,180,0,180,f,abs,resp,freq_bottom,,,,,0,12,12,794,,,,,,,,,,,1.0046635425448314,,,,,,,,,,,,,,,,,,,,,,,305.4188282699224,305.6498802458973,305.6498940365409,306.6561286904407,306.6561511403261,601.47287123772,601.47287123772,602.9549350621037,602.9549350621037,602.9549350621037,602.9549350621037,308.28032434311626,j,0,1.573271541831673,None,308.28083395551585,308.7867462932036,308.7867588009967,308.78772927747286,,,603.0714971123034,,,,DA,001,2,25,F,2024-02-12_13h39.16.268,eye_track_exp,2023.1.3,120.10400095497161,
180,12,180,0,180,270,180,180,180,168,None,present,inhibit,freq_bottom,,,,,0,13,13,118,,,,,,,,,,,1.0003408936781535,,,,,,,,,,,,,,,,,,,,,,,308.78824530412567,308.82161866239767,308.8216311701908,309.82796075503484,309.82797518710413,604.6368282032145,604.6368282032145,,,,,310.87902718873556,j,0,1.0014918816850695,None,310.8795380839856,311.3770474295525,311.3770580130695,311.37747622236475,,,605.6609422665924,606.1605144359182,,,DA,001,2,25,F,2024-02-12_13h39.16.268,eye_track_exp,2023.1.3,120.10400095497161,
12,180,180,168,180,180,180,0,0,0,None,abs,inhibit,freq_bottom,,,,,0,14,14,371,,,,,,,,,,,1.0103020414363242,,,,,,,,,,,,,,,,,,,,,,,311.378018226741,311.50229213330385,311.50231426247683,312.5173685142281,312.5173832670098,607.3261814412572,607.3261814412572,608.8165738524267,608.8165738524267,608.8165738524267,608.8165738524267,315.54914921348427,None,1,,,315.549530540824,315.5503313603094,315.55034130240165,315.5509076809394,610.3069640186068,610.3069640186068,,,,,DA,001,2,25,F,2024-02-12_13h39.16.268,eye_track_exp,2023.1.3,120.10400095497161,
180,180,180,270,0,0,12,0,-12,180,j,present,resp,freq_bottom,,,,,0,15,15,591,,,,,,,,,,,0.7514297462299626,,,,,,,,,,,,,,,,,,,,,,,315.5514281975693,315.5522376762956,315.5522485805259,316.31431603537567,316.31433078815826,611.1229224234594,611.1229224234594,612.6133052132491,612.6133052132491,612.6133052132491,612.6133052132491,318.5056480704643,j,1,2.147045713943953,None,318.5061544757373,318.50619488553184,318.5062041861984,318.50667082310247,,,,,,,DA,001,2,25,F,2024-02-12_13h39.16.268,eye_track_exp,2023.1.3,120.10400095497161,
0,0,168,0,168,180,270,0,0,0,f,present,resp,freq_bottom,,,,,0,16,16,557,,,,,,,,,,,0.8759750230644163,,,,,,,,,,,,,,,,,,,,,,,318.5071823597782,318.7123848962301,318.7123996490127,319.5948430688868,319.5948578216685,614.4034273277966,614.4034273277966,615.8938239082308,615.8938239082308,615.8938239082308,615.8938239082308,322.6258296836231,None,0,,,322.62619625818115,323.1254175678696,323.1254275099618,323.1257988952093,617.3842060565948,617.3842060565948,617.4091873269763,617.9087591755897,,,DA,001,2,25,F,2024-02-12_13h39.16.268,eye_track_exp,2023.1.3,120.10400095497161,
180,180,180,168,0,12,0,180,0,0,None,abs,inhibit,freq_bottom,,,,,0,17,17,376,,,,,,,,,,,1.0358005444750336,,,,,,,,,,,,,,,,,,,,,,,323.1263264675172,323.20049671975084,323.2005095482573,324.2410864333424,324.24110150683646,619.049457097628,619.049457097628,620.5398386045672,620.5398386045672,620.5398386045672,620.5398386045672,326.14831292318013,j,0,1.8686421188831446,None,326.1488234977178,326.6471368698958,326.647146811988,326.64741781417706,,,620.9311631991222,621.4307347270224,,,DA,001,2,25,F,2024-02-12_13h39.16.268,eye_track_exp,2023.1.3,120.10400095497161,
-12,180,180,0,0,0,12,0,90,0,j,present,resp,freq_bottom,,,,,0,18,18,635,,,,,,,,,,,1.000027193117262,,,,,,,,,,,,,,,,,,,,,,,326.64793448225464,327.0222330836905,327.0222475157598,328.0211474713733,328.02117088339674,622.837862116653,622.837862116653,624.3282336814991,624.3282336814991,624.3282336814991,624.3282336814991,329.5882623660382,f,0,1.5195354960396799,None,329.58884125237,330.0857630523633,330.0857729944555,330.0861482282553,,,624.3698804639816,624.8694491054684,,,DA,001,2,25,F,2024-02-12_13h39.16.268,eye_track_exp,2023.1.3,120.10400095497161,
0,0,0,180,168,0,0,168,0,0,f,abs,resp,freq_bottom,,,,,0,19,19,902,,,,,,,,,,,0.7681383938422106,,,,,,,,,,,,,,,,,,,,,,,330.08667291414895,330.1527637733252,330.15277596040596,330.92659657171043,330.9266110037797,625.7353716546468,625.7353716546468,627.2257582929878,627.2257582929878,627.2257582929878,627.2257582929878,333.9584013244148,None,0,,,333.9587909902839,334.4572028212451,334.4572130840497,334.4577239792998,628.7161474970308,628.7161474970308,628.7411262017104,629.2406993331751,,,DA,001,2,25,F,2024-02-12_13h39.16.268,eye_track_exp,2023.1.3,120.10400095497161,
-168,0,180,0,180,180,180,180,-168,180,f,abs,resp,freq_bottom,,,,,0,20,20,870,,,,,,,,,,,0.9186925292549797,,,,,,,,,,,,,,,,,,,,,,,334.4582711150797,334.45913158711755,334.45914217063455,335.3814825647778,335.3814969968471,630.189885621041,630.189885621041,,,,,336.31493501078876,j,0,0.8875673723114232,None,336.3154356432342,336.8137288105154,336.8137387526076,336.81415728261436,,,631.0974366720811,631.5970059549927,,,DA,001,2,25,F,2024-02-12_13h39.16.268,eye_track_exp,2023.1.3,120.10400095497161,
168,0,180,180,180,0,0,168,0,0,f,abs,resp,freq_bottom,,,,,0,21,21,765,,,,,,,,,,,0.9862745364971812,,,,,,,,,,,,,,,,,,,,,,,336.8147182090379,336.8154045341071,336.815415117625,337.80421486977775,337.80422898113466,632.6211328468771,632.6211328468771,,,,,338.64655253144883,f,1,0.7914873147365142,None,338.64704386322774,338.64778535087225,338.6477952929645,338.64836936860684,,,,,,,DA,001,2,25,F,2024-02-12_13h39.16.268,eye_track_exp,2023.1.3,120.10400095497161,
180,168,0,12,180,180,270,180,0,0,None,present,inhibit,freq_bottom,,,,,0,22,22,95,,,,,,,,,,,0.7171693278417396,,,,,,,,,,,,,,,,,,,,,,,338.6488469097412,338.83795544403347,338.8379692346771,339.5612371939442,339.5612516260135,634.369629345978,634.369629345978,635.860030095675,635.860030095675,635.860030095675,635.860030095675,342.59263303802163,None,1,,,342.5930406637981,342.5930801114546,342.59308909140873,342.59342391541395,637.3503987741087,637.3503987741087,,,,,DA,001,2,25,F,2024-02-12_13h39.16.268,eye_track_exp,2023.1.3,120.10400095497161,
-12,0,0,0,0,0,270,0,-168,0,None,present,inhibit,freq_bottom,,,,,0,23,23,282,,,,,,,,,,,0.8837941135675519,,,,,,,,,,,,,,,,,,,,,,,342.59393641422776,342.59464358561854,342.59465384842406,343.4829496327202,343.4829637440762,638.291267379419,638.291267379419,639.7816421513926,639.7816421513926,639.7816421513926,639.7816421513926,346.51398403364146,None,1,,,346.51436568169447,346.5144176371432,346.514427258523,346.5149622072213,641.2720336004231,641.2720336004231,,,,,DA,001,2,25,F,2024-02-12_13h39.16.268,eye_track_exp,2023.1.3,120.10400095497161,
270,180,0,0,0,0,-12,0,-12,180,j,present,resp,freq_bottom,,,,,0,24,24,657,,,,,,,,,,,0.9169950458532843,,,,,,,,,,,,,,,,,,,,,,,346.5154714989085,346.51620400659885,346.5162142694044,347.4376249175766,347.4376396703592,642.24619378228,642.24619378228,643.7449151009478,643.7449151009478,643.7449151009478,643.7449151009478,350.4689283964117,None,0,,,350.4693658484648,350.97555335760535,350.9755758074907,350.9766793797162,645.2186416793029,645.2186416793029,645.2602737090037,,,,DA,001,2,25,F,2024-02-12_13h39.16.268,eye_track_exp,2023.1.3,120.10400095497161,
180,0,0,0,12,270,180,12,180,180,j,present,resp,freq_bottom,,,,,0,25,25,584,,,,,,,,,,,0.772844954551737,,,,,,,,,,,,,,,,,,,,,,,350.977202462047,351.0433844036161,351.0433978735473,351.81748660062567,351.81750103269496,646.6257671446574,646.6257671446574,648.1161614801022,648.1161614801022,648.1161614801022,648.1161614801022,354.8485652598929,None,0,,,354.8489546050487,355.34749247608124,355.34750241817346,355.3480030506189,649.6065394592024,649.6065394592024,649.6315271438361,650.1311009167257,,,DA,001,2,25,F,2024-02-12_13h39.16.268,eye_track_exp,2023.1.3,120.10400095497161,
12,180,180,168,180,270,180,0,0,0,None,present,inhibit,freq_bottom,,,,,0,26,26,69,,,,,,,,,,,1.0427756284270029,,,,,,,,,,,,,,,,,,,,,,,355.34854281000753,355.47316789692013,355.47318104613896,356.52144252701055,356.52145695907984,651.3300623850246,651.3300623850246,652.8204778875051,652.8204778875051,652.8204778875051,652.8204778875051,359.55262734216467,None,1,,,359.5530115559186,359.5537880012416,359.55379826404715,359.5543431548376,654.3108363031333,654.3108363031333,,,,,DA,001,2,25,F,2024-02-12_13h39.16.268,eye_track_exp,2023.1.3,120.10400095497161,
0,180,-168,0,0,0,12,180,90,180,None,present,inhibit,freq_bottom,,,,,0,27,27,286,,,,,,,,,,,0.9389133128709837,,,,,,,,,,,,,,,,,,,,,,,359.55484410799545,359.5557930967243,359.5558033595289,360.49344527487665,360.49345970694594,655.3016571864009,655.3016571864009,656.7920390140525,656.7920390140525,656.7920390140525,656.7920390140525,363.5245678717765,None,1,,,363.52493829488685,363.52497742183004,363.5249860810709,363.5256230163923,658.2824218038422,658.2824218038422,,,,,DA,001,2,25,F,2024-02-12_13h39.16.268,eye_track_exp,2023.1.3,120.10400095497161,
12,180,180,168,180,270,180,0,0,0,None,present,inhibit,freq_bottom,,,,,0,28,28,70,,,,,,,,,,,1.033084183467867,,,,,,,,,,,,,,,,,,,,,,,363.52611531030925,363.5268526286891,363.5268628914937,364.55596082943975,364.55597526150905,659.3648276361946,659.3648276361946,,,,,365.3905600155995,j,0,0.7985571043745949,None,365.39109817142526,365.89604259833686,365.8960547854176,365.89663014391044,,,660.1807959831385,,,,DA,001,2,25,F,2024-02-12_13h39.16.268,eye_track_exp,2023.1.3,120.10400095497161,
0,12,180,0,0,270,180,12,180,180,j,present,resp,freq_bottom,,,,,0,29,29,637,,,,,,,,,,,0.9300304850089932,,,,,,,,,,,,,,,,,,,,,,,365.897161885483,365.8979995869222,365.8980101704401,366.8289722827303,366.828987035512,661.6378846306807,661.6378846306807,663.128270627597,663.128270627597,663.128270627597,663.128270627597,368.97059770575015,f,0,2.0931756102645522,None,368.97112399520756,369.4687192917636,369.4687478351898,369.4691285211047,,,663.7527292646446,664.2522991889819,,,DA,001,2,25,F,2024-02-12_13h39.16.268,eye_track_exp,2023.1.3,120.10400095497161,
-12,180,180,-12,0,90,180,0,0,0,j,present,resp,freq_bottom,,,,,0,30,30,707,,,,,,,,,,,0.7289895828561826,,,,,,,,,,,,,,,,,,,,,,,369.4696705254819,369.47043959441453,369.4704501779315,370.2012898421326,370.2013045949143,665.0099850676197,665.0099850676197,666.5003649709952,666.5003649709952,666.5003649709952,666.5003649709952,371.8766462180283,f,0,1.6338198450057462,None,371.87715390615176,372.37461225840707,372.3746222004993,372.37506189754185,,,666.6585680308508,667.1581469351422,,,DA,001,2,25,F,2024-02-12_13h39.16.268,eye_track_exp,2023.1.3,120.10400095497161,
0,0,12,0,0,0,90,0,0,168,None,present,inhibit,freq_bottom,,,,,0,31,31,227,,,,,,,,,,,0.9695068152506529,,,,,,,,,,,,,,,,,,,,,,,372.37559171483827,372.3762475722051,372.376258155723,373.3488612776682,373.3488766718756,668.1572845388282,668.1572845388282,,,,,374.78246638290057,j,0,1.3978006715205993,None,374.7830443070943,375.2805597462011,375.2805700090057,375.2809385078399,,,669.5644138527341,670.0639751178305,,,DA,001,2,25,F,2024-02-12_13h39.16.268,eye_track_exp,2023.1.3,120.10400095497161,
0,180,-168,0,180,0,180,-168,180,90,f,present,resp,freq_bottom,,,,,0,32,32,534,,,,,,,,,,,0.8926925923888527,,,,,,,,,,,,,,,,,,,,,,,375.28146960798676,375.3144007035153,375.3144135320217,376.21287494515855,376.21288937722784,671.0214887096326,671.0214887096326,672.5118718201347,672.5118718201347,672.5118718201347,672.5118718201347,379.24384135499804,None,0,,,379.24422973801666,379.74361525258064,379.74362519467286,379.74386989842424,674.0022594206139,674.0022594206139,674.0272416531334,674.5268183124363,,,DA,001,2,25,F,2024-02-12_13h39.16.268,eye_track_exp,2023.1.3,120.10400095497161,
168,180,180,0,168,180,180,0,180,90,f,present,resp,freq_bottom,,,,,0,33,33,554,,,,,,,,,,,0.8497015470038791,,,,,,,,,,,,,,,,,,,,,,,379.7444160720652,379.7451889895501,379.7451998937804,380.5925765925949,380.5925907039518,675.4010630341472,675.4010630341472,676.891450313914,676.891450313914,676.891450313914,676.891450313914,383.6234695592384,None,0,,,383.62385665940565,384.12311773746205,384.12312864169235,384.1235795636767,678.3818321415656,678.3818321415656,678.406823995464,678.9063836569967,,,DA,001,2,25,F,2024-02-12_13h39.16.268,eye_track_exp,2023.1.3,120.10400095497161,
0,180,12,0,0,168,180,270,180,180,None,present,inhibit,freq_bottom,,,,,0,34,34,225,,,,,,,,,,,1.0651467267356898,,,,,,,,,,,,,,,,,,,,,,,384.12412862373276,384.12478672608813,384.12479730960604,385.1893221289165,385.1893368816982,679.9971171139969,679.9971171139969,681.4875133737178,681.4875133737178,681.4875133737178,681.4875133737178,386.87990850709593,f,0,1.6541623276298196,None,386.88040240457576,387.3782273313891,387.3782375941937,387.37848326008316,,,681.6623492329845,682.1619230058732,,,DA,001,2,25,F,2024-02-12_13h39.16.268,eye_track_exp,2023.1.3,120.10400095497161,
168,0,168,0,0,0,0,180,0,180,f,abs,resp,freq_bottom,,,,,0,35,35,978,,,,,,,,,,,0.9248559352420391,,,,,,,,,,,,,,,,,,,,,,,387.37901628450527,387.37979208840443,387.37980203049574,388.30295671405565,388.30297146683733,683.1111096144523,683.1111096144523,684.6098341402467,684.6098341402467,684.6098341402467,684.6098341402467,391.33387309272166,None,0,,,391.33426275859074,391.83253764525125,391.8325472666302,391.83289427771706,686.0835501350848,686.0835501350848,686.1168599922521,686.616440179394,,,DA,001,2,25,F,2024-02-12_13h39.16.268,eye_track_exp,2023.1.3,120.10400095497161,
0,180,180,0,180,168,0,168,180,0,f,abs,resp,freq_bottom,,,,,0,36,36,845,,,,,,,,,,,0.9513579470791556,,,,,,,,,,,,,,,,,,,,,,,391.8334436584846,391.84186813835277,391.84187968400875,392.79873709773074,392.7987515297991,687.6072427820418,687.6072427820418,689.0976547566825,689.0976547566825,689.0976547566825,689.0976547566825,394.3820014778439,f,1,1.547001968739096,None,394.3825393129564,394.38330485405004,394.38331479614226,394.38392350875074,,,,,,,DA,001,2,25,F,2024-02-12_13h39.16.268,eye_track_exp,2023.1.3,120.10400095497161,
180,180,180,180,-12,0,270,0,-12,0,j,present,resp,freq_bottom,,,,,0,37,37,729,,,,,,,,,,,0.9109577690604094,,,,,,,,,,,,,,,,,,,,,,,394.38442478262095,394.73061837247315,394.7306347288186,395.64644220629816,395.64645695907984,690.4547994006525,690.4547994006525,691.9451905289707,691.9451905289707,691.9451905289707,691.9451905289707,397.2042131379294,j,1,1.5152084409774034,None,397.20472691959367,397.20476604653686,397.204775026491,397.2052144028203,,,,,,,DA,001,2,25,F,2024-02-12_13h39.16.268,eye_track_exp,2023.1.3,120.10400095497161,
0,180,90,0,180,180,180,12,180,168,None,present,inhibit,freq_bottom,,,,,0,38,38,102,,,,,,,,,,,0.8160404672415013,,,,,,,,,,,,,,,,,,,,,,,397.2057124695648,397.22042099308055,397.2204328594489,398.03585310847575,398.03586721983174,692.8444229353163,692.8444229353163,694.3348018765546,694.3348018765546,694.3348018765546,694.3348018765546,401.0668134247753,None,1,,,401.06722169197747,401.0672624224835,401.06727108172527,401.06781533109097,695.8251865906195,695.8251865906195,,,,,DA,001,2,25,F,2024-02-12_13h39.16.268,eye_track_exp,2023.1.3,120.10400095497161,
0,0,90,0,0,0,12,0,0,12,j,present,resp,freq_bottom,,,,,0,39,39,627,,,,,,,,,,,0.9041391258901081,,,,,,,,,,,,,,,,,,,,,,,401.06832173636394,401.06904622623824,401.06905616833046,401.974328555998,401.9743429880673,696.7827033895483,696.7827033895483,,,,,403.3167550550734,j,1,1.2987299684928075,None,403.3172845516565,403.31732528216344,403.31733586568043,403.31779769189507,,,,,,,DA,001,2,25,F,2024-02-12_13h39.16.268,eye_track_exp,2023.1.3,120.10400095497161,
0,180,-168,0,0,270,0,0,12,180,None,present,inhibit,freq_bottom,,,,,0,40,40,287,,,,,,,,,,,0.8586993279293743,,,,,,,,,,,,,,,,,,,,,,,403.3183018521795,403.52337674499813,403.52339021492935,404.3885808978421,404.38859532991046,699.1972963282251,699.1972963282251,700.6876765523139,700.6876765523139,700.6876765523139,700.6876765523139,406.16362406576445,j,0,1.7319101294651773,None,406.16416125945125,406.6693843856556,406.66939689344963,406.6698962430437,,,700.9541368083192,,,,DA,001,2,25,F,2024-02-12_13h39.16.268,eye_track_exp,2023.1.3,120.10400095497161,
0,180,0,180,180,168,180,0,180,-168,f,abs,resp,freq_bottom,,,,,0,41,41,797,,,,,,,,,,,1.0389261688150115,,,,,,,,,,,,,,,,,,,,,,,406.6704263810534,406.67135388203405,406.67136510697674,407.71104399664455,407.71105874942623,702.5194467321953,702.5194467321953,704.0098282391336,704.0098282391336,704.0098282391336,704.0098282391336,410.7423833952953,None,0,,,410.7427791547043,411.241100223986,411.2411104867906,418.2198244675528,705.5002119910614,705.5002119910614,705.5251939028685,706.0247676757572,,,DA,001,2,25,F,2024-02-12_13h39.16.268,eye_track_exp,2023.1.3,120.10400095497161,
-168,180,0,12,180,90,180,180,0,180,None,present,inhibit,freq_bottom,,,,,0,42,42,91,,,,,,,,,,,0.8648884208705988,,,,,,,,,,,,,,,,,,,,,,,418.22038988395343,418.22117049854114,418.2211820441971,419.08429033987886,419.08430477194815,713.8930089773885,713.8930089773885,,,,,419.8016546207,j,0,0.6673436175105962,None,419.8021607052606,420.30037241152877,420.30038331575815,420.3007502110295,,,714.5840870080592,715.083648593868,,,DA,001,2,25,F,2024-02-12_13h39.16.268,eye_track_exp,2023.1.3,120.10400095497161,
168,0,0,0,168,0,0,0,0,0,f,abs,resp,freq_bottom,,,,,0,43,43,928,,,,,,,,,,,0.7350612664006742,,,,,,,,,,,,,,,,,,,,,,,420.3012803490383,420.3168730773277,420.3168849436961,421.0581080006259,421.0581227534085,715.8663227985644,715.8663227985644,,,,,422.20866174308594,j,0,1.1106878037599017,None,422.2091617341066,422.7063128436439,422.7063227857361,422.7067053959263,,,716.9903629056062,717.4899193600122,,,DA,001,2,25,F,2024-02-12_13h39.16.268,eye_track_exp,2023.1.3,120.10400095497161,
180,180,180,180,12,0,-168,0,90,0,None,present,inhibit,freq_bottom,,,,,0,44,44,151,,,,,,,,,,,0.9639398218824472,,,,,,,,,,,,,,,,,,,,,,,422.70724034462546,422.70803218415585,422.70804244696046,423.6722682337968,423.6722826658661,718.4807344704523,718.4807344704523,719.9711134116906,719.9711134116906,719.9711134116906,719.9711134116906,426.7037865901066,None,1,,,426.7041772181128,426.70494949417207,426.7049597569767,426.70552998406674,721.4615071057096,721.4615071057096,,,,,DA,001,2,25,F,2024-02-12_13h39.16.268,eye_track_exp,2023.1.3,120.10400095497161,
0,180,0,180,180,168,0,0,90,12,None,present,inhibit,freq_bottom,,,,,0,45,45,44,,,,,,,,,,,1.0288039296759335,,,,,,,,,,,,,,,,,,,,,,,426.7060370307654,426.7068667143885,426.70687697719404,427.74367843297296,427.74369318575464,722.5522463355373,722.5522463355373,724.0426236732119,724.0426236732119,724.0426236732119,724.0426236732119,429.41890812737165,j,0,1.6403649487492657,None,429.4194154947827,429.9244144428458,429.9244266299256,429.9254163491614,,,724.2091527541525,,,,DA,001,2,25,F,2024-02-12_13h39.16.268,eye_track_exp,2023.1.3,120.10400095497161,
180,0,-12,0,0,270,0,180,-12,0,j,present,resp,freq_bottom,,,,,0,46,46,688,,,,,,,,,,,0.9198914427118324,,,,,,,,,,,,,,,,,,,,,,,429.9259856141134,429.9267915650007,429.926802469231,430.8496919234294,430.8497066762111,725.6662378738556,725.6662378738556,,,,,431.6250173184835,f,0,0.7175640112427573,None,431.62555964357307,432.1231122853469,432.1231225481524,432.12356641445876,,,726.4072608060924,726.9068307304296,,,DA,001,2,25,F,2024-02-12_13h39.16.268,eye_track_exp,2023.1.3,120.10400095497161,
180,0,90,180,180,180,-12,180,-168,0,None,present,inhibit,freq_bottom,,,,,0,47,47,5,,,,,,,,,,,0.7586981430599491,,,,,,,,,,,,,,,,,,,,,,,432.12408340324873,432.1248508686185,432.1248614521355,432.88952251017963,432.8895372629613,727.6977902257049,727.6977902257049,,,,,433.7566669745511,j,0,0.8301691087772269,None,433.757179473364,434.2549174870501,434.2549274291423,434.2554463422084,,,728.5387638964794,729.0383354243804,,,DA,001,2,25,F,2024-02-12_13h39.16.268,eye_track_exp,2023.1.3,120.10400095497161,
0,270,0,180,180,180,12,180,0,-12,j,present,resp,freq_bottom,,,,,0,48,48,455,,,,,,,,,,,0.7080310115397337,,,,,,,,,,,,,,,,,,,,,,,434.25596846240114,434.25673496563286,434.25674554914985,434.9622367269867,434.9622514797684,729.7710538232805,729.7710538232805,,,,,436.0290645838304,j,1,1.0286363588847962,None,436.02958894901167,436.0303381337608,436.030348075853,436.03092600004675,,,,,,,DA,001,2,25,F,2024-02-12_13h39.16.268,eye_track_exp,2023.1.3,120.10400095497161,
0,180,0,-168,180,90,180,0,0,-168,f,present,resp,freq_bottom,,,,,0,49,49,538,,,,,,,,,,,0.8754165012165931,,,,,,,,,,,,,,,,,,,,,,,436.0314192561009,436.2536269393495,436.2536410507064,437.13544593169627,437.13546036376556,731.9525018152344,731.9525018152344,733.4428913399888,733.4428913399888,733.4428913399888,733.4428913399888,440.17543302621925,None,0,,,440.17581146714474,440.67415402417464,440.67416396626595,440.6745372757896,734.9166198426201,734.9166198426201,734.9582547587352,735.4578259659229,,,DA,001,2,25,F,2024-02-12_13h39.16.268,eye_track_exp,2023.1.3,120.10400095497161,
180,168,180,168,180,0,180,0,180,180,f,abs,resp,freq_bottom,,,,,0,50,50,835,,,,,,,,,,,0.7330629492480556,,,,,,,,,,,,,,,,,,,,,,,440.675089222259,440.67586406401915,440.67587496824945,441.4066440756678,441.4066585077371,736.2155163345369,736.2155163345369,,,,,442.39052602005904,j,0,0.9356826082148473,None,442.39110105783857,442.88860014060083,442.888612648394,442.8889577352047,,,737.1730103628679,737.6725895878717,,,DA,001,2,25,F,2024-02-12_13h39.16.268,eye_track_exp,2023.1.3,120.10400095497161,
180,0,180,-12,180,180,-12,180,180,270,j,present,resp,freq_bottom,,,,,0,51,51,545,,,,,,,,,,,1.0963082489657607,,,,,,,,,,,,,,,,,,,,,,,442.8895023052828,442.89030601118156,442.89031659469856,443.9882009816374,443.98821701726956,738.7966296949126,738.7966296949126,740.2870099190013,740.2870099190013,740.2870099190013,740.2870099190013,447.0192918279854,None,0,,,447.0197052265903,447.51805644286105,447.5180663849533,447.5184143581773,741.7773984816185,741.7773984816185,741.8023736584591,742.3019525627515,,,DA,001,2,25,F,2024-02-12_13h39.16.268,eye_track_exp,2023.1.3,120.10400095497161,
180,180,180,0,-12,0,270,0,0,-12,j,present,resp,freq_bottom,,,,,0,52,52,735,,,,,,,,,,,0.8879557632771208,,,,,,,,,,,,,,,,,,,,,,,447.51897175676186,447.51982292813227,447.5198335116502,448.4096911665474,448.4097062400424,743.2178280313119,743.2178280313119,744.7082056896998,744.7082056896998,744.7082056896998,744.7082056896998,451.44083942045927,None,0,,,451.4412233135008,451.93981474354587,451.9398246856381,451.9402223693223,746.1985974594427,746.1985974594427,746.2235784091117,746.7231525027137,,,DA,001,2,25,F,2024-02-12_13h39.16.268,eye_track_exp,2023.1.3,120.10400095497161,
-168,180,0,180,180,180,90,180,-168,180,f,present,resp,freq_bottom,,,,,0,53,53,462,,,,,,,,,,,1.050173928854492,,,,,,,,,,,,,,,,,,,,,,,451.9407563558834,451.94154338472435,451.94155428895465,452.99680634343986,452.9968220583596,747.8055528829509,747.8055528829509,749.2959488219585,749.2959488219585,749.2959488219585,749.2959488219585,454.8049810522971,j,0,1.7611536709528082,None,454.8054755912017,455.303714878758,455.303725462275,455.30407792547703,,,749.587354749242,750.0869269185678,,,DA,001,2,25,F,2024-02-12_13h39.16.268,eye_track_exp,2023.1.3,120.10400095497161,
180,-12,0,0,180,180,180,-12,180,270,j,present,resp,freq_bottom,,,,,0,54,54,533,,,,,,,,,,,1.0757580127436759,,,,,,,,,,,,,,,,,,,,,,,455.30461383631337,455.30544897205164,455.30545955556954,456.3861729872715,456.3861870986284,751.1943101727493,751.1943101727493,,,,,457.1857920447874,f,0,0.7566091727148887,None,457.1863882496018,457.6850034123827,457.6850130337625,457.6852570960882,,,751.9686487349818,752.4682180178934,,,DA,001,2,25,F,2024-02-12_13h39.16.268,eye_track_exp,2023.1.3,120.10400095497161,
180,180,180,0,270,0,-12,0,0,-12,j,present,resp,freq_bottom,,,,,0,55,55,418,,,,,,,,,,,1.0838574575463706,,,,,,,,,,,,,,,,,,,,,,,457.68577504701625,457.686801006781,457.68681159029893,458.77559896294406,458.77561339501335,753.5838932976194,753.5838932976194,,,,,459.975731032413,j,1,1.1663417111940362,None,459.9762720746521,459.97699207454934,459.97700201664156,459.97759244862846,,,,,,,DA,001,2,25,F,2024-02-12_13h39.16.268,eye_track_exp,2023.1.3,120.10400095497161,
180,12,180,180,180,270,180,180,-168,180,None,present,inhibit,freq_bottom,,,,,0,56,56,16,,,,,,,,,,,0.7224861627562262,,,,,,,,,,,,,,,,,,,,,,,459.9781251523391,460.1838289626612,460.1838430740181,460.9065594075282,460.9065738395975,755.7154316663973,755.7154316663973,757.2141472122375,757.2141472122375,757.2141472122375,757.2141472122375,463.00647326411126,f,0,2.0604965948778045,None,463.00697582083194,463.51223454614046,463.512247374646,463.51270535230924,,,757.7969744610109,,,,DA,001,2,25,F,2024-02-12_13h39.16.268,eye_track_exp,2023.1.3,120.10400095497161,
180,12,0,168,0,0,90,180,180,180,None,present,inhibit,freq_bottom,,,,,0,57,57,195,,,,,,,,,,,0.9269195165543174,,,,,,,,,,,,,,,,,,,,,,,463.51322747250197,463.51400904922866,463.51401963274566,464.44562894316186,464.44564401665684,759.2540361686906,759.2540361686906,,,,,465.8458606901222,j,0,1.3525789051382162,None,465.84636100185526,466.34394763917044,466.34395822268743,466.3443312114987,,,760.6278732646242,761.1274540931918,,,DA,001,2,25,F,2024-02-12_13h39.16.268,eye_track_exp,2023.1.3,120.10400095497161,
0,180,180,180,180,12,0,0,-168,0,None,abs,inhibit,freq_bottom,,,,,0,58,58,341,,,,,,,,,,,0.8637195787998018,,,,,,,,,,,,,,,,,,,,,,,466.34487642300246,466.3456461333599,466.3456563961654,467.21005459812113,467.2100696716161,762.0183473292336,762.0183473292336,763.5087384575518,763.5087384575518,763.5087384575518,763.5087384575518,469.18516312728207,f,0,1.9320293704276992,None,469.1857064145097,469.6828286599084,469.6828392434263,469.68328054403173,,,763.9666814835919,764.4662443522511,,,DA,001,2,25,F,2024-02-12_13h39.16.268,eye_track_exp,2023.1.3,120.10400095497161,
-168,180,180,0,180,180,12,0,270,180,None,present,inhibit,freq_bottom,,,,,0,59,59,109,,,,,,,,,,,0.9584818539367306,,,,,,,,,,,,,,,,,,,,,,,469.6838126063167,469.7335253119254,469.73353814043094,470.69030703746193,470.69032114881884,765.507014947776,765.507014947776,766.997400623979,766.997400623979,766.997400623979,766.997400623979,473.7293294283363,None,1,,,473.7297216599063,473.7304714860802,473.7304814281724,473.73118763742514,768.4711358615759,768.4711358615759,,,,,DA,001,2,25,F,2024-02-12_13h39.16.268,eye_track_exp,2023.1.3,120.10400095497161,
0,180,0,0,168,180,180,0,-168,180,f,abs,resp,freq_bottom,,,,,0,60,60,920,,,,,,,,,,,0.9158123565964849,,,,,,,,,,,,,,,,,,,,,,,473.7316828177554,473.9126959233572,473.9127097140017,474.8284289955027,474.828443427572,769.6451426786434,769.6451426786434,,,,,475.7038029464511,j,0,0.8331456428750244,None,475.70435970360995,476.20965114160936,476.2096636494025,476.21070019268427,,,770.4944026021349,,,,DA,001,2,25,F,2024-02-12_13h39.16.268,eye_track_exp,2023.1.3,120.10400095497161,
168,0,168,0,0,0,0,0,270,0,f,present,resp,freq_bottom,,,,,0,61,61,643,,,,,,,,,,,1.0513712352241598,,,,,,,,,,,,,,,,,,,,,,,476.21122006788846,476.21274730152436,476.21275788504136,477.267503854966,477.2675179663229,772.0847053420466,772.0847053420466,773.5750874904115,773.5750874904115,773.5750874904115,773.5750874904115,480.3077125619302,None,0,,,480.30808202290154,480.8065134173348,480.80652368013943,480.80690853531814,775.0488224072951,775.0488224072951,775.090458926973,775.5900237199075,,,DA,001,2,25,F,2024-02-12_13h39.16.268,eye_track_exp,2023.1.3,120.10400095497161,
180,12,180,180,180,12,0,0,0,270,j,present,resp,freq_bottom,,,,,0,62,62,431,,,,,,,,,,,1.0861468607237554,,,,,,,,,,,,,,,,,,,,,,,480.80745695394853,480.80821191152427,480.8082224950422,481.8968610570182,481.8968754890866,776.7057416544158,776.7057416544158,778.1961276513321,778.1961276513321,778.1961276513321,778.1961276513321,484.9283111015329,None,0,,,484.9287075023667,485.42780854481134,485.42781880761595,485.4280583799655,779.6865097996961,779.6865097996961,779.7114984464688,780.2110629186909,,,DA,001,2,25,F,2024-02-12_13h39.16.268,eye_track_exp,2023.1.3,120.10400095497161,
0,180,180,0,168,0,0,0,168,0,f,abs,resp,freq_bottom,,,,,0,63,63,906,,,,,,,,,,,0.8810241748374347,,,,,,,,,,,,,,,,,,,,,,,485.42860295004357,485.4293579076193,485.4293681704239,486.3102962230314,486.3103112965264,781.1186178182825,781.1186178182825,,,,,487.1770327409131,j,0,0.8302550597682057,None,487.1775439568755,487.6759785584354,487.67598882124,487.6762338457038,,,781.9595555692395,782.459124852152,,,DA,001,2,25,F,2024-02-12_13h39.16.268,eye_track_exp,2023.1.3,120.10400095497161,
168,0,168,0,0,0,0,0,0,0,f,abs,resp,freq_bottom,,,,,0,64,64,973,,,,,,,,,,,1.074521181084429,,,,,,,,,,,,,,,,,,,,,,,487.6767540416213,487.67751541345024,487.67752567625485,488.75012924719795,488.7501449621177,783.5581525796852,783.5581525796852,785.0485677614515,785.0485677614515,785.0485677614515,785.0485677614515,490.3408623834857,f,1,1.5434895238049648,None,490.3413726373101,490.3421356127028,490.342145554795,490.34272412041355,,,,,,,DA,001,2,25,F,2024-02-12_13h39.16.268,eye_track_exp,2023.1.3,120.10400095497161,
180,180,0,168,0,180,0,168,0,0,f,abs,resp,freq_bottom,,,,,0,65,65,943,,,,,,,,,,,0.8458752760576655,,,,,,,,,,,,,,,,,,,,,,,490.343224752859,490.7318348355511,490.7318492676204,491.58020862999274,491.58022306206203,786.389086340977,786.389086340977,,,,,493.03021882865505,f,1,1.3997987113243653,None,493.0307268374909,493.03076981298636,493.0307787929405,493.03156518035576,,,,,,,DA,001,2,25,F,2024-02-12_13h39.16.268,eye_track_exp,2023.1.3,120.10400095497161,
180,180,168,180,180,0,0,168,180,0,f,abs,resp,freq_bottom,,,,,0,66,66,775,,,,,,,,,,,0.72833432801851,,,,,,,,,,,,,,,,,,,,,,,493.0320542671461,493.479866622024,493.4798816955181,494.2119971546372,494.21201158670647,789.0201667320925,789.0201667320925,790.5105607468249,790.5105607468249,790.5105607468249,790.5105607468249,495.75343034249545,f,1,1.5049360148241249,None,495.75406214641407,495.75410159407056,495.7541105740247,495.7545781730669,,,,,,,DA,001,2,25,F,2024-02-12_13h39.16.268,eye_track_exp,2023.1.3,120.10400095497161,
180,180,0,0,0,168,180,180,12,180,None,abs,inhibit,freq_bottom,,,,,0,67,67,399,,,,,,,,,,,1.0662493863950884,,,,,,,,,,,,,,,,,,,,,,,495.75509516185775,495.99451324799793,495.9945280007805,497.05952394697215,497.0595390204671,791.8677105221977,791.8677105221977,,,,,498.30979559058596,j,0,1.200591897848426,None,498.3103112965264,498.81524930918476,498.8152701555073,498.81634903285885,,,793.0999895447685,,,,DA,001,2,25,F,2024-02-12_13h39.16.268,eye_track_exp,2023.1.3,120.10400095497161,
180,0,180,168,180,270,180,0,12,0,None,present,inhibit,freq_bottom,,,,,0,68,68,71,,,,,,,,,,,0.771480832391581,,,,,,,,,,,,,,,,,,,,,,,498.81689296151217,498.8178252731832,498.8178358567002,499.5905868913196,499.5906013233889,794.3988793017188,794.3988793017188,795.88925984652,795.88925984652,795.88925984652,795.88925984652,502.6218368111413,None,1,,,502.62224090907966,502.6229644368159,502.6229743789081,502.62357763940145,797.3796471262867,797.3796471262867,,,,,DA,001,2,25,F,2024-02-12_13h39.16.268,eye_track_exp,2023.1.3,120.10400095497161,
0,0,-168,180,0,12,0,270,180,180,None,present,inhibit,freq_bottom,,,,,0,69,69,190,,,,,,,,,,,0.8354553058210091,,,,,,,,,,,,,,,,,,,,,,,502.62406127407576,502.6251555456347,502.6251658084402,503.47016314011034,503.4701791757434,798.278872156241,798.278872156241,,,,,504.8792520083025,j,0,1.3669125155665824,None,504.87978727771406,505.3846024574286,505.3846149652218,505.385376657764,,,799.6693545593798,,,,DA,001,2,25,F,2024-02-12_13h39.16.268,eye_track_exp,2023.1.3,120.10400095497161,
-168,0,0,0,-168,0,0,0,0,270,f,present,resp,freq_bottom,,,,,0,70,70,725,,,,,,,,,,,0.9762330507697123,,,,,,,,,,,,,,,,,,,,,,,505.3859116064623,505.3868012633511,505.386811846869,506.3679484909826,506.3679622816271,801.1763935606032,801.1763935606032,,,,,507.8012059437033,f,1,1.3957740882906364,None,507.8017277431836,507.8024839836107,507.80249392570295,507.80306254922925,,,,,,,DA,001,2,25,F,2024-02-12_13h39.16.268,eye_track_exp,2023.1.3,120.10400095497161,
270,0,0,0,0,-12,0,0,12,0,j,present,resp,freq_bottom,,,,,0,71,71,664,,,,,,,,,,,0.7559345786550238,,,,,,,,,,,,,,,,,,,,,,,507.80356799236506,508.13361883173366,508.13363326380295,508.89036373945873,508.8903784922404,803.6992164348558,803.6992164348558,805.189604997473,805.189604997473,805.189604997473,805.189604997473,511.92154149893395,None,0,,,511.9219314855154,512.421060750673,512.4210716549032,512.4213189243555,806.6799897115388,806.6799897115388,806.7049584741262,807.2045409062575,,,DA,001,2,25,F,2024-02-12_13h39.16.268,eye_track_exp,2023.1.3,120.10400095497161,
0,0,168,0,0,0,0,0,0,168,f,abs,resp,freq_bottom,,,,,0,72,72,980,,,,,,,,,,,1.098132194732627,,,,,,,,,,,,,,,,,,,,,,,512.42184970379,512.422774959783,512.4227858640124,513.519889957076,513.5199043891453,808.328580692586,808.328580692586,,,,,514.653901341092,j,0,1.0915499178463506,None,514.6544276305494,515.152044735566,515.152055319084,515.1525283702413,,,809.4359607396409,809.9355303432658,,,DA,001,2,25,F,2024-02-12_13h39.16.268,eye_track_exp,2023.1.3,120.10400095497161,
270,0,0,0,0,-12,0,0,-12,0,j,present,resp,freq_bottom,,,,,0,73,73,663,,,,,,,,,,,0.9574893900191639,,,,,,,,,,,,,,,,,,,,,,,515.1530889759515,515.1538301428836,515.1538410471139,516.109160643683,516.1091747550399,810.9179867199309,810.9179867199309,812.4000784463142,812.4000784463142,812.4000784463142,812.4000784463142,517.6114008215382,j,1,1.4619419185028164,None,517.6119312802593,517.6127090084337,517.612718950526,517.6133558858473,,,,,,,DA,001,2,25,F,2024-02-12_13h39.16.268,eye_track_exp,2023.1.3,120.10400095497161,
0,168,180,180,180,270,180,180,180,12,None,present,inhibit,freq_bottom,,,,,0,74,74,13,,,,,,,,,,,0.7624345917708577,,,,,,,,,,,,,,,,,,,,,,,517.6138696675107,517.8089700762275,517.8089841875835,518.5736850139965,518.5736991253525,813.3825736292101,813.3825736292101,814.8812773086829,814.8812773086829,814.8812773086829,814.8812773086829,521.6054702032297,None,1,,,521.6058701319025,521.6059092588457,521.6059182387999,521.6063656329461,816.3550138291303,816.3550138291303,,,,,DA,001,2,25,F,2024-02-12_13h39.16.268,eye_track_exp,2023.1.3,120.10400095497161,
180,0,180,0,180,90,180,12,180,168,None,present,inhibit,freq_bottom,,,,,0,75,75,122,,,,,,,,,,,0.7916127892935326,,,,,,,,,,,,,,,,,,,,,,,521.606900260932,521.8135719820302,521.8135864140995,522.6036261054969,522.6036414997043,817.4208298375661,817.4208298375661,818.9028269537175,818.9028269537175,818.9028269537175,818.9028269537175,525.6433790797855,None,1,,,525.6437575207119,525.6437972890799,525.643806269034,525.6442584738697,820.3932119884958,820.3932119884958,,,,,DA,001,2,25,F,2024-02-12_13h39.16.268,eye_track_exp,2023.1.3,120.10400095497161,
0,-12,0,0,0,270,0,-12,0,0,j,present,resp,freq_bottom,,,,,0,76,76,676,,,,,,,,,,,0.9905301721144452,,,,,,,,,,,,,,,,,,,,,,,525.645334464808,525.6461086651425,525.6461192486604,526.634478020921,526.6344934151284,821.4506365504667,821.4506365504667,,,,,528.0582471899161,f,0,1.376622091020181,None,528.0587715550973,528.5647082669457,528.5647210954521,528.5658031799303,,,822.8494340704601,,,,DA,001,2,25,F,2024-02-12_13h39.16.268,eye_track_exp,2023.1.3,120.10400095497161,
180,0,168,180,180,168,0,180,180,180,f,abs,resp,freq_bottom,,,,,0,77,77,781,,,,,,,,,,,0.8187457268916234,,,,,,,,,,,,,,,,,,,,,,,528.5663455050199,528.5671254781828,528.5671363824131,529.3893878108665,529.3894022429358,824.1982831610467,824.1982831610467,825.6886669129744,825.6886669129744,825.6886669129744,825.6886669129744,531.0479856679931,j,0,1.6212344392270097,None,531.0484808483234,531.5462009021003,531.5462108441925,531.5465636281069,,,825.8302182513726,826.3297952313878,,,DA,001,2,25,F,2024-02-12_13h39.16.268,eye_track_exp,2023.1.3,120.10400095497161,
180,-12,180,0,180,-12,0,270,180,180,j,present,resp,freq_bottom,,,,,0,78,78,519,,,,,,,,,,,0.9764174082859078,,,,,,,,,,,,,,,,,,,,,,,531.5470969732423,531.5478593072094,531.5478702114397,532.5292781784547,532.5292929312373,827.3455791044171,827.3455791044171,828.8359641391953,828.8359641391953,828.8359641391953,828.8359641391953,535.5678842843108,None,0,,,535.5682684980648,536.0675876251098,536.0675978879153,536.0679955715996,830.3096955282399,830.3096955282399,830.3513278786531,830.8508981237028,,,DA,001,2,25,F,2024-02-12_13h39.16.268,eye_track_exp,2023.1.3,120.10400095497161,
0,180,180,0,0,0,-168,0,-168,180,f,abs,resp,freq_bottom,,,,,0,79,79,957,,,,,,,,,,,0.8791382056611172,,,,,,,,,,,,,,,,,,,,,,,536.0685443109423,536.0693088898979,536.0693191527034,536.9504162208759,536.9504306529452,831.758460720398,831.758460720398,833.2488531315666,833.2488531315666,833.2488531315666,833.2488531315666,538.8905821447725,f,1,1.9001967157219042,None,538.8910888707578,538.8918486390239,538.8918589018285,538.8924179039759,,,,,,,DA,001,2,25,F,2024-02-12_13h39.16.268,eye_track_exp,2023.1.3,120.10400095497161,
180,180,180,12,0,180,-168,180,270,0,None,present,inhibit,freq_bottom,,,,,0,80,80,210,,,,,,,,,,,0.741601190206509,,,,,,,,,,,,,,,,,,,,,,,538.8929307235021,539.1150601528643,539.1150742642212,539.8556049025419,539.8556372945195,834.6726149241713,834.6726149241713,836.1630025246504,836.1630025246504,836.1630025246504,836.1630025246504,542.0052160705263,f,0,2.105846325607672,None,542.0057551884893,542.5110546443038,542.511075169914,542.5121671964844,,,836.7958009734275,,,,DA,001,2,25,F,2024-02-12_13h39.16.268,eye_track_exp,2023.1.3,120.10400095497161,
168,0,0,0,168,0,0,0,0,0,f,abs,resp,freq_bottom,,,,,0,81,81,927,,,,,,,,,,,0.868147493527653,,,,,,,,,,,,,,,,,,,,,,,542.5127191429538,542.5211500370742,542.5211619034426,543.3947728969588,543.3947873290281,838.2029267594944,838.2029267594944,,,,,544.8605207860282,j,0,1.4231741734720345,None,544.861121801533,545.3599499175125,545.3599614631685,545.3604418907171,,,839.643318465095,840.142926233525,,,DA,001,2,25,F,2024-02-12_13h39.16.268,eye_track_exp,2023.1.3,120.10400095497161,
180,180,-168,0,12,180,180,0,0,180,None,abs,inhibit,freq_bottom,,,,,0,82,82,363,,,,,,,,,,,0.8543314518667872,,,,,,,,,,,,,,,,,,,,,,,545.3609896679218,545.5345712200169,545.534586293511,546.3919721133943,546.3919865454627,841.2003520783464,841.2003520783464,842.6907271710324,842.6907271710324,842.6907271710324,842.6907271710324,548.0163188217275,j,0,1.5775501692851321,None,548.0168367726556,548.5157922115577,548.5158034365004,586.9819624791862,,,842.7989718593899,843.2985469151299,,,DA,001,2,25,F,2024-02-12_13h39.16.268,eye_track_exp,2023.1.3,120.10400095497161,
180,168,180,180,180,0,180,0,180,168,f,abs,resp,freq_bottom,,,,,0,83,83,756,,,,,,,,,,,0.9406899743413717,,,,,,,,,,,,,,,,,,,,,,,586.9825394412419,587.1909067701163,587.1909208814723,588.1310928989087,588.1311089345418,882.9478242212463,882.9478242212463,,,,,589.4889758233976,f,1,1.3001895317584058,None,589.4894876807857,589.4902660503858,589.4902756717647,589.4907358944165,,,,,,,DA,001,2,25,F,2024-02-12_13h39.16.268,eye_track_exp,2023.1.3,120.10400095497161,
0,0,0,0,168,0,0,0,0,168,f,abs,resp,freq_bottom,,,,,0,84,84,933,,,,,,,,,,,0.8541817967332132,,,,,,,,,,,,,,,,,,,,,,,589.4912371682867,589.6556893141114,589.6557034254674,590.5123057443489,590.5123198557048,885.320783205947,885.320783205947,,,,,591.437252570191,f,1,0.8792172977782684,None,591.4377769353723,591.4378163830288,591.4378250422706,591.4384453005332,,,,,,,DA,001,2,25,F,2024-02-12_13h39.16.268,eye_track_exp,2023.1.3,120.10400095497161,
12,0,0,0,0,180,90,180,-168,180,None,present,inhibit,freq_bottom,,,,,0,85,85,259,,,,,,,,,,,1.042102539890286,,,,,,,,,,,,,,,,,,,,,,,591.4389491401053,591.5957644763275,591.5957776255464,592.6437777256087,592.643792157678,887.4522914277359,887.4522914277359,,,,,593.9767021503139,j,0,1.2913850074019138,None,593.9772011791965,594.483076955642,594.4830897841475,594.4841946392244,,,888.76782264334,,,,DA,001,2,25,F,2024-02-12_13h39.16.268,eye_track_exp,2023.1.3,120.10400095497161,
0,180,12,0,0,0,90,180,-12,180,j,present,resp,freq_bottom,,,,,0,86,86,647,,,,,,,,,,,0.9847198612622154,,,,,,,,,,,,,,,,,,,,,,,594.4847392093025,594.4855939085128,594.4856044920298,595.4747932686269,595.4748080214085,890.2915191388483,890.2915191388483,891.7819189264083,891.7819189264083,891.7819189264083,891.7819189264083,597.0085489163766,j,1,1.4758749588336286,None,597.0090607737648,597.0097708315698,597.0097804529487,597.0103452279245,,,,,,,DA,001,2,25,F,2024-02-12_13h39.16.268,eye_track_exp,2023.1.3,120.10400095497161,
0,180,180,180,12,0,90,0,-168,0,None,present,inhibit,freq_bottom,,,,,0,87,87,157,,,,,,,,,,,1.0456443487717721,,,,,,,,,,,,,,,,,,,,,,,597.0108160340933,597.215364958166,597.2153790695229,598.2642069289332,598.2642216817148,893.0724634195158,893.0724634195158,,,,,599.5643131489624,j,0,1.2547163266599455,None,599.564863491868,600.0699596158638,600.0699724443693,600.0706770500592,,,894.354710755676,,,,DA,001,2,25,F,2024-02-12_13h39.16.268,eye_track_exp,2023.1.3,120.10400095497161,
0,0,168,180,180,180,180,0,0,168,f,abs,resp,freq_bottom,,,,,0,88,88,785,,,,,,,,,,,0.7446228703690709,,,,,,,,,,,,,,,,,,,,,,,600.071208150207,600.0721186534174,600.0721292369353,600.81974730409,600.819761415446,895.6286006409127,895.6286006409127,,,,,602.13732530782,f,1,1.2752740074711255,None,602.137824657415,602.1385667864852,602.138576407865,602.1391229022183,,,,,,,DA,001,2,25,F,2024-02-12_13h39.16.268,eye_track_exp,2023.1.3,120.10400095497161,
180,12,180,180,180,270,180,180,-168,180,None,present,inhibit,freq_bottom,,,,,0,89,89,18,,,,,,,,,,,0.874409715001313,,,,,,,,,,,,,,,,,,,,,,,602.1396293074922,602.3274944388431,602.3275082294867,603.2015056817454,603.2015204345271,898.009902965181,898.009902965181,899.5002738886033,899.5002738886033,899.5002738886033,899.5002738886033,606.2331369289068,None,1,,,606.233520501236,606.2335625145924,606.2335714945466,606.234012795152,900.9906749590136,900.9906749590136,,,,,DA,001,2,25,F,2024-02-12_13h39.16.268,eye_track_exp,2023.1.3,120.10400095497161,
0,90,180,180,180,12,0,0,-168,0,None,present,inhibit,freq_bottom,,,,,0,90,90,10,,,,,,,,,,,1.0708894638292505,,,,,,,,,,,,,,,,,,,,,,,606.2345095790452,606.2352610087828,606.2352712715874,607.3060852659482,607.3061000187299,902.1146990304223,902.1146990304223,903.6050952901423,903.6050952901423,903.6050952901423,903.6050952901423,610.3370984998346,None,1,,,610.3374823928762,610.3375218405317,610.3375304997735,610.3379660275505,905.0954649307141,905.0954649307141,,,,,DA,001,2,25,F,2024-02-12_13h39.16.268,eye_track_exp,2023.1.3,120.10400095497161,
180,180,0,168,0,90,0,12,0,0,None,present,inhibit,freq_bottom,,,,,0,91,91,194,,,,,,,,,,,0.7268079932414262,,,,,,,,,,,,,,,,,,,,,,,610.338465056433,610.3391725485371,610.3391824906294,611.0699692372427,611.0699839900244,905.8781340040077,905.8781340040077,907.3685312258667,907.3685312258667,907.3685312258667,907.3685312258667,614.100689339768,None,1,,,614.1011441103046,614.1011829165354,614.1011915757772,614.1016238964276,908.8588954143224,908.8588954143224,,,,,DA,001,2,25,F,2024-02-12_13h39.16.268,eye_track_exp,2023.1.3,120.10400095497161,
180,180,12,0,0,0,90,0,-168,180,None,present,inhibit,freq_bottom,,,,,0,92,92,222,,,,,,,,,,,0.8674027402675626,,,,,,,,,,,,,,,,,,,,,,,614.102110417517,614.1028246445867,614.1028345866789,614.9743853221371,614.9744007163436,909.7831090910495,909.7831090910495,,,,,616.3751638841641,f,0,1.3599899330347398,None,616.3756831179426,616.8805111261636,616.8805236339567,616.8815043732375,,,911.1652577759996,,,,DA,001,2,25,F,2024-02-12_13h39.16.268,eye_track_exp,2023.1.3,120.10400095497161,
0,0,0,180,168,0,0,180,0,168,f,abs,resp,freq_bottom,,,,,0,93,93,898,,,,,,,,,,,1.0258296103607465,,,,,,,,,,,,,,,,,,,,,,,616.8820466983279,616.8828257093528,616.8828362928698,617.9133681370704,617.9133832105645,912.7222554694335,912.7222554694335,,,,,619.3136553673185,j,0,1.3645402041011039,None,619.3142480442948,619.8123029220769,619.8123138263072,619.8127063785896,,,914.0960787747244,914.5956509440502,,,DA,001,2,25,F,2024-02-12_13h39.16.268,eye_track_exp,2023.1.3,120.10400095497161,
168,0,0,0,0,0,12,0,270,180,None,present,inhibit,freq_bottom,,,,,0,94,94,257,,,,,,,,,,,1.0841426489983368,,,,,,,,,,,,,,,,,,,,,,,619.8132397237259,619.8140007748416,619.8140110376471,620.9027650561766,620.9027794882459,915.7113573329025,915.7113573329025,917.2017359534275,917.2017359534275,917.2017359534275,917.2017359534275,623.9348430560585,None,1,,,623.9352256662487,623.9359915280547,623.936001470147,623.9365979956747,918.6921376652635,918.6921376652635,,,,,DA,001,2,25,F,2024-02-12_13h39.16.268,eye_track_exp,2023.1.3,120.10400095497161,
0,0,0,180,180,180,168,180,180,-168,f,abs,resp,freq_bottom,,,,,0,95,95,805,,,,,,,,,,,1.0081527915617436,,,,,,,,,,,,,,,,,,,,,,,623.9371060045105,623.9379247839042,623.9379347259965,624.9490547956802,624.9490692277495,919.7578795890777,919.7578795890777,,,,,625.982574078208,j,0,0.9838571759582919,None,625.9831103097576,626.4889325271906,626.4889450349838,626.4902381483853,,,920.773675007762,,,,DA,001,2,25,F,2024-02-12_13h39.16.268,eye_track_exp,2023.1.3,120.10400095497161,
180,0,12,180,180,270,180,12,180,180,j,present,resp,freq_bottom,,,,,0,96,96,453,,,,,,,,,,,0.9357500297845335,,,,,,,,,,,,,,,,,,,,,,,626.4907984333831,626.4916098363856,626.4916204199026,627.4304618005581,627.4304768740521,922.2390826207102,922.2390826207102,,,,,628.3973562373485,f,0,0.9184869581049497,None,628.3978620011958,628.8956766652045,628.8956869280091,628.8960980816255,,,923.1799255690084,923.6795051147255,,,DA,001,2,25,F,2024-02-12_13h39.16.268,eye_track_exp,2023.1.3,120.10400095497161,
180,168,180,180,180,180,0,168,180,0,f,abs,resp,freq_bottom,,,,,0,97,97,757,,,,,,,,,,,0.9860063133536773,,,,,,,,,,,,,,,,,,,,,,,628.8966564423472,628.8974941437873,628.8975130658337,629.8870167822515,629.8870315350332,924.6953072683755,924.6953072683755,,,,,631.1456564603077,j,0,1.214455022821312,None,631.1462337430758,631.6435673381111,631.6435772802033,631.6439675874972,,,925.9275818009692,926.427150442456,,,DA,001,2,25,F,2024-02-12_13h39.16.268,eye_track_exp,2023.1.3,120.10400095497161,
180,180,12,0,180,0,90,180,12,180,j,present,resp,freq_bottom,,,,,0,98,98,521,,,,,,,,,,,0.7693320965876177,,,,,,,,,,,,,,,,,,,,,,,631.6445070261725,631.6452757743928,631.6452863579107,632.418354256627,632.4183693301211,927.2347991825682,927.2347991825682,,,,,633.6184372570606,j,1,1.1546427551775196,None,633.6189654707932,634.1240237506963,634.1240365792019,634.1247982717441,,,928.4087793804865,,,,DA,001,2,25,F,2024-02-12_13h39.16.268,eye_track_exp,2023.1.3,120.10400095497161,
180,180,12,0,-168,180,270,0,180,180,None,present,inhibit,freq_bottom,,,,,0,99,99,322,,,,,,,,,,,0.7472674170940291,,,,,,,,,,,,,,,,,,,,,,,634.1253191090864,634.1264650153817,634.126475919612,634.8738130424854,634.8738277952671,929.6826836977916,929.6826836977916,931.1730677704318,931.1730677704318,931.1730677704318,931.1730677704318,637.9050671315717,None,1,,,637.9054638531188,637.9061934743959,637.9062162449936,637.9067534386813,932.66345280521,932.66345280521,,,,,DA,001,2,25,F,2024-02-12_13h39.16.268,eye_track_exp,2023.1.3,120.10400095497161,
0,180,0,180,180,-168,0,-168,180,180,f,abs,resp,freq_bottom,,,,,0,100,100,796,,,,,,,,,,,0.9865933996546805,,,,,,,,,,,,,,,,,,,,,,,637.9072463740231,637.9080808683357,637.9080908104279,638.8958110438043,638.8958254758736,933.7042307771253,933.7042307771253,,,,,640.0461842250434,f,1,1.1012986202422326,None,640.0467085902246,640.0467480378802,640.0467570178344,640.0472733651995,,,,,,,DA,001,2,25,F,2024-02-12_13h39.16.268,eye_track_exp,2023.1.3,120.10400095497161,
0,180,-12,0,0,0,-12,180,270,180,j,present,resp,freq_bottom,,,,,0,101,101,687,,,,,,,,,,,0.988934290601587,,,,,,,,,,,,,,,,,,,,,,,640.0477496234835,640.2457098268924,640.245723617536,641.2352039219313,641.235218674713,936.0522110571465,936.0522110571465,937.5425976954875,937.5425976954875,937.5425976954875,937.5425976954875,644.2750470164747,None,0,,,644.2754588115158,644.7744543394992,644.7744655644419,644.7749408605878,939.0163294052454,939.0163294052454,939.0579325708077,939.5575355285473,,,DA,001,2,25,F,2024-02-12_13h39.16.268,eye_track_exp,2023.1.3,120.10400095497161,
12,180,0,0,0,0,-168,0,90,0,None,present,inhibit,freq_bottom,,,,,0,102,102,245,,,,,,,,,,,0.8229584906316941,,,,,,,,,,,,,,,,,,,,,,,644.7754774128498,644.9078300710444,644.907843861688,645.7316869870201,645.731701098377,940.5400217314891,940.5400217314891,942.030414463371,942.030414463371,942.030414463371,942.030414463371,648.7630151607282,None,1,,,648.7634029023211,648.7641665191386,648.7641764612308,648.7647030714015,943.5207940460341,943.5207940460341,,,,,DA,001,2,25,F,2024-02-12_13h39.16.268,eye_track_exp,2023.1.3,120.10400095497161,
180,168,0,12,180,180,270,180,0,0,None,present,inhibit,freq_bottom,,,,,0,103,103,97,,,,,,,,,,,0.9788102165782504,,,,,,,,,,,,,,,,,,,,,,,648.7652027417089,648.7659378151002,648.7659480779048,649.744921515201,649.7449359472703,944.5615729800884,944.5615729800884,946.0436339180569,946.0436339180569,946.0436339180569,946.0436339180569,652.784161349251,None,1,,,652.7845455630049,653.2909290275738,653.290941535367,653.2919707022584,947.5340301777778,947.5340301777778,947.5756432854323,,,,DA,001,2,25,F,2024-02-12_13h39.16.268,eye_track_exp,2023.1.3,120.10400095497161,
0,180,0,168,180,180,12,0,270,180,None,present,inhibit,freq_bottom,,,,,0,104,104,77,,,,,,,,,,,0.7652476352336548,,,,,,,,,,,,,,,,,,,,,,,653.2925098202213,653.2933109604191,653.2933218646494,654.0575053815583,654.0575204550532,948.8745391359234,948.8745391359234,950.3565898110883,950.3565898110883,950.3565898110883,950.3565898110883,656.1483866870894,f,0,2.0417865396384514,None,656.1489158629611,656.6546761828522,656.6546886906463,656.6551748910224,,,950.9394231534015,,,,DA,001,2,25,F,2024-02-12_13h39.16.268,eye_track_exp,2023.1.3,120.10400095497161,
0,12,0,0,180,180,180,90,180,-12,j,present,resp,freq_bottom,,,,,0,105,105,532,,,,,,,,,,,0.7392116879810899,,,,,,,,,,,,,,,,,,,,,,,656.6556938040885,656.6570199508924,656.6570311758351,657.3961279079022,657.3961426606838,952.2050062603112,952.2050062603112,953.6953932193655,953.6953932193655,953.6953932193655,953.6953932193655,660.4281045625867,None,0,,,660.4285663888013,660.9270779613962,660.9270888656265,660.927553257543,955.1857760091552,955.1857760091552,955.2107553552605,955.7103246381721,,,DA,001,2,25,F,2024-02-12_13h39.16.268,eye_track_exp,2023.1.3,120.10400095497161,
0,-168,0,180,0,0,270,0,-168,0,f,present,resp,freq_bottom,,,,,0,106,106,607,,,,,,,,,,,1.071306776647703,,,,,,,,,,,,,,,,,,,,,,,660.9280984690458,660.9772765466687,660.9772890544627,662.0510455873791,662.0510596987351,956.8676653017137,956.8676653017137,958.3580500157796,958.3580500157796,958.3580500157796,958.3580500157796,663.6174058451807,f,1,1.5202933400296388,None,663.6178872348673,663.6186360989032,663.6186460409954,663.6192172302235,,,,,,,DA,001,2,25,F,2024-02-12_13h39.16.268,eye_track_exp,2023.1.3,120.10400095497161,
12,0,180,0,180,90,180,168,180,180,None,present,inhibit,freq_bottom,,,,,0,107,107,127,,,,,,,,,,,0.7415141416788972,,,,,,,,,,,,,,,,,,,,,,,663.6197146555423,663.6206982812373,663.6207085440419,664.3652567497184,664.3652718232133,959.1740186834368,959.1740186834368,960.664417829571,960.664417829571,960.664417829571,960.664417829571,666.2894175088586,f,0,1.8861629716202515,None,666.2899601546605,666.7959677440049,666.7959799310856,666.7968278953294,,,961.0807115074267,,,,DA,001,2,25,F,2024-02-12_13h39.16.268,eye_track_exp,2023.1.3,120.10400095497161,
0,180,0,168,180,180,12,0,270,180,None,present,inhibit,freq_bottom,,,,,0,108,108,78,,,,,,,,,,,0.9580511422372824,,,,,,,,,,,,,,,,,,,,,,,666.7973564297754,666.8475771442208,666.8476015183824,667.8039528475438,667.8039676003254,962.6127308168943,962.6127308168943,,,,,668.9542702247809,f,0,1.103154263630131,None,668.9547904206984,669.4531047550145,669.4531156592438,669.453594803942,,,963.73676547182,964.2363402068477,,,DA,001,2,25,F,2024-02-12_13h39.16.268,eye_track_exp,2023.1.3,120.10400095497161,
180,90,180,0,180,180,-12,0,12,180,j,present,resp,freq_bottom,,,,,0,109,109,501,,,,,,,,,,,1.039543763348728,,,,,,,,,,,,,,,,,,,,,,,669.4541589374921,669.5114725328858,669.5114856821046,670.551598816699,670.5516132487683,965.3603569018651,965.3603569018651,966.8507679143677,966.8507679143677,966.8507679143677,966.8507679143677,672.1927867876657,j,1,1.6032989050354445,None,672.193293513651,672.6992151520053,672.6992279805108,672.7011557842452,,,966.9839864967153,,,,DA,001,2,25,F,2024-02-12_13h39.16.268,eye_track_exp,2023.1.3,120.10400095497161,
180,0,180,0,180,168,0,0,180,168,f,abs,resp,freq_bottom,,,,,0,110,110,865,,,,,,,,,,,0.9807606772379256,,,,,,,,,,,,,,,,,,,,,,,672.701712541404,672.8421866060135,672.8421997552323,673.824083018394,673.8240974504633,968.6325482929115,968.6325482929115,970.122943269781,970.122943269781,970.122943269781,970.122943269781,675.6986763547548,f,1,1.8360124932451072,None,675.6991901364181,676.1970278917379,676.1970378338301,676.1974464217446,,,970.480975967077,970.9805442878514,,,DA,001,2,25,F,2024-02-12_13h39.16.268,eye_track_exp,2023.1.3,120.10400095497161,
0,180,168,0,0,0,0,180,168,180,f,abs,resp,freq_bottom,,,,,0,111,111,969,,,,,,,,,,,0.7317588747843475,,,,,,,,,,,,,,,,,,,,,,,676.1979858604209,676.1988197133087,676.1988299761133,676.9295532216229,676.929568295117,971.7382308079141,971.7382308079141,973.228620011957,973.228620011957,973.228620011957,973.228620011957,679.9608377784107,None,0,,,679.9612284064178,680.4595517206881,680.4595619834927,680.459827854279,974.7189979910563,974.7189979910563,974.7439782992997,975.2435453372236,,,DA,001,2,25,F,2024-02-12_13h39.16.268,eye_track_exp,2023.1.3,120.10400095497161,
180,12,180,0,180,180,180,180,-168,180,None,abs,inhibit,freq_bottom,,,,,0,112,112,336,,,,,,,,,,,1.0718778888536693,,,,,,,,,,,,,,,,,,,,,,,680.460356388724,680.5516331329527,680.5516459614582,681.6257280177142,681.6257424497826,976.4341923300935,976.4341923300935,,,,,682.9341984236335,f,0,1.265398302865833,None,682.9346958489523,683.4323180853717,683.432328989601,683.4327173726197,,,977.7164300448749,978.2159929135341,,,DA,001,2,25,F,2024-02-12_13h39.16.268,eye_track_exp,2023.1.3,120.10400095497161,
0,0,12,0,0,0,90,0,0,168,None,present,inhibit,freq_bottom,,,,,0,113,113,231,,,,,,,,,,,0.8523777364228751,,,,,,,,,,,,,,,,,,,,,,,683.4332686776634,683.5663737277328,683.5663865562392,684.4233634674938,684.4233778995631,979.2401307096479,979.2401307096479,980.7305025952073,980.7305025952073,980.7305025952073,980.7305025952073,687.4629265798949,None,1,,,687.4633261878553,687.4640805040062,687.4640907668118,687.4647748468924,982.2042461713327,982.2042461713327,,,,,DA,001,2,25,F,2024-02-12_13h39.16.268,eye_track_exp,2023.1.3,120.10400095497161,
180,168,0,168,0,0,0,180,0,180,f,abs,resp,freq_bottom,,,,,0,114,114,948,,,,,,,,,,,1.0768581346589607,,,,,,,,,,,,,,,,,,,,,,,687.4653043434755,687.6629794333394,687.662993223983,688.7445966332871,688.7446110653564,983.5614004366826,983.5614004366826,,,,,689.9531316948769,f,1,1.161174709704028,None,689.953654135782,689.953695828427,689.9537051290936,689.9541759352624,,,,,,,DA,001,2,25,F,2024-02-12_13h39.16.268,eye_track_exp,2023.1.3,120.10400095497161,
0,180,0,-12,0,180,90,0,-12,180,j,present,resp,freq_bottom,,,,,0,115,115,710,,,,,,,,,,,0.84378135289846,,,,,,,,,,,,,,,,,,,,,,,689.9546807369725,690.3272070803096,690.3272211916656,691.1753967856894,691.175411538472,985.9843238864223,985.9843238864223,987.4747134111767,987.4747134111767,987.4747134111767,987.4747134111767,694.2069892266209,None,0,,,694.2073599704436,694.706069422743,694.7060800062609,694.7064478636694,988.9650917109893,988.9650917109893,988.9900418722436,989.4896448299842,,,DA,001,2,25,F,2024-02-12_13h39.16.268,eye_track_exp,2023.1.3,120.10400095497161,
0,0,12,0,0,0,0,0,-168,0,None,abs,inhibit,freq_bottom,,,,,0,116,116,337,,,,,,,,,,,1.0817223844888335,,,,,,,,,,,,,,,,,,,,,,,694.7069792845286,694.7077406563576,694.7077515605879,695.7884274689104,695.7884415802664,990.5970268013152,990.5970268013152,992.087424664599,992.087424664599,992.087424664599,992.087424664599,698.8199455045069,None,1,,,698.8203463953187,698.8211132192628,698.8211234820674,698.8216882570423,993.5778116236534,993.5778116236534,,,,,DA,001,2,25,F,2024-02-12_13h39.16.268,eye_track_exp,2023.1.3,120.10400095497161,
0,-12,0,180,-12,0,0,180,90,0,j,present,resp,freq_bottom,,,,,0,117,117,734,,,,,,,,,,,1.0191787757644706,,,,,,,,,,,,,,,,,,,,,,,698.8222190364768,698.8230384572953,698.8230490408132,699.8437208953274,699.843735648109,994.6518795685524,994.6518795685524,996.1422623583412,996.1422623583412,996.1422623583412,996.1422623583412,702.8743248998735,None,0,,,702.8747318842252,703.3734147173755,703.3734259423181,703.3736847574264,997.6326643908906,997.6326643908906,997.6576293049266,998.157215264896,,,DA,001,2,25,F,2024-02-12_13h39.16.268,eye_track_exp,2023.1.3,120.10400095497161,
168,180,0,180,180,0,180,168,0,180,f,abs,resp,freq_bottom,,,,,0,118,118,792,,,,,,,,,,,0.8384566544600237,,,,,,,,,,,,,,,,,,,,,,,703.3742181025618,703.3751529799338,703.3751635634517,704.2148874170316,704.2149024905266,999.0231291548325,999.0231291548325,1000.5135084167832,1000.5135084167832,1000.5135084167832,1000.5135084167832,707.2456418358106,None,0,,,707.2460254081388,707.7445712969875,707.7445812390797,707.7448253014063,1002.0038953758376,1002.0038953758376,1002.02887921192,1002.5284433634297,,,DA,001,2,25,F,2024-02-12_13h39.16.268,eye_track_exp,2023.1.3,120.10400095497161,
-168,0,12,0,0,0,270,180,180,180,None,present,inhibit,freq_bottom,,,,,0,119,119,237,,,,,,,,,,,0.7206643678717637,,,,,,,,,,,,,,,,,,,,,,,707.7453365173687,707.8284751781239,707.8284896101932,708.552678976901,708.5526930882579,1003.361069525371,1003.361069525371,1004.8514552015749,1004.8514552015749,1004.8514552015749,1004.8514552015749,711.5841081750941,None,1,,,711.5845109901811,711.5852486292742,711.5852585713665,711.5859535556774,1006.3418351049504,1006.3418351049504,,,,,DA,001,2,25,F,2024-02-12_13h39.16.268,eye_track_exp,2023.1.3,120.10400095497161,
180,0,180,0,-168,180,180,0,12,0,None,abs,inhibit,freq_bottom,,,,,0,120,120,381,,,,,,,,,,,0.9488861839307507,,,,,,,,,,,,,,,,,,,,,,,711.586466695916,711.587176753721,711.5871870165256,712.5404226223009,712.5404373750825,1007.3492996918594,1007.3492996918594,1008.8396860094881,1008.8396860094881,1008.8396860094881,1008.8396860094881,715.572059000865,None,1,,,715.5724537981359,715.5724938872172,715.572502546459,715.5729743147658,1010.3300809863586,1010.3300809863586,,,,,DA,001,2,25,F,2024-02-12_13h39.16.268,eye_track_exp,2023.1.3,120.10400095497161,
0,0,-168,180,180,180,180,-168,0,0,f,abs,resp,freq_bottom,,,,,0,121,121,814,,,,,,,,,,,0.8877675939783842,,,,,,,,,,,,,,,,,,,,,,,715.5734880964292,715.5743411920766,715.5743514548813,716.4620664285694,716.462081181352,1011.2709415738527,1011.2709415738527,,,,,717.5126145906297,f,1,1.0024803180695017,None,717.5131553121564,717.5131944390996,717.5132030983414,717.5136431160954,,,,,,,DA,001,2,25,F,2024-02-12_13h39.16.268,eye_track_exp,2023.1.3,120.10400095497161,
180,0,180,-12,180,180,0,270,180,-12,j,present,resp,freq_bottom,,,,,0,122,122,544,,,,,,,,,,,0.7422751802408138,,,,,,,,,,,,,,,,,,,,,,,717.514134127161,717.7117874085652,717.7118024820593,718.4609250122512,718.4609394443205,1013.2692450039385,1013.2692450039385,1014.7596047024172,1014.7596047024172,1014.7596047024172,1014.7596047024172,720.03531495265,j,1,1.5318733116528165,None,720.0358563156024,720.0358951218323,720.035903781074,720.0363681729896,,,,,,,DA,001,2,25,F,2024-02-12_13h39.16.268,eye_track_exp,2023.1.3,120.10400095497161,
180,0,180,0,180,12,180,90,0,168,None,present,inhibit,freq_bottom,,,,,0,123,123,119,,,,,,,,,,,1.0556064806221148,,,,,,,,,,,,,,,,,,,,,,,720.0368694468607,720.2923815351614,720.292395325806,721.3497833265346,721.3497980793163,1016.1584022224106,1016.1584022224106,,,,,722.4997681247551,j,0,1.1064094970197402,None,722.5002982627639,723.0060207385632,723.0060332463563,723.0065018075366,,,1017.2907853483075,,,,DA,001,2,25,F,2024-02-12_13h39.16.268,eye_track_exp,2023.1.3,120.10400095497161,
0,0,180,0,0,0,168,0,-168,180,f,abs,resp,freq_bottom,,,,,0,124,124,960,,,,,,,,,,,0.9843083834242803,,,,,,,,,,,,,,,,,,,,,,,723.0070364355224,723.0823400862591,723.082353235478,724.0725044707342,724.0725185820911,1018.8810646761958,1018.8810646761958,1020.3714490695493,1020.3714490695493,1020.3714490695493,1020.3714490695493,727.103497820437,None,0,,,727.1038948626965,727.6031479229368,727.6031591478795,767.227406114579,1021.8618478949711,1021.8618478949711,1021.8868233925241,1022.3863840161948,,,DA,001,2,25,F,2024-02-12_13h39.16.268,eye_track_exp,2023.1.3,120.10400095497161,
0,180,90,0,180,180,180,12,180,168,None,present,inhibit,freq_bottom,,,,,0,125,125,101,,,,,,,,,,,0.7536232902936907,,,,,,,,,,,,,,,,,,,,,,,767.2279846801985,767.2289445731576,767.2289557981003,767.9846349776917,767.9846500511858,1062.7933491252243,1062.7933491252243,1064.283727425037,1064.283727425037,1064.283727425037,1064.283727425037,771.0164224119135,None,1,,,771.0168293962652,771.0176112937033,771.0176212357956,771.0182533604275,1065.7741333061376,1065.7741333061376,,,,,DA,001,2,25,F,2024-02-12_13h39.16.268,eye_track_exp,2023.1.3,120.10400095497161,
180,0,168,180,180,168,0,180,180,180,f,abs,resp,freq_bottom,,,,,0,126,126,779,,,,,,,,,,,0.7068747308126073,,,,,,,,,,,,,,,,,,,,,,,771.0187709906431,771.0195192132533,771.0195291553455,771.7314384347173,771.731453187499,1066.5401423194453,1066.5401423194453,,,,,773.0814279794849,f,1,1.3148627768841834,None,773.0819529860919,773.0819933958855,773.0820023758397,773.0825572087224,,,,,,,DA,001,2,25,F,2024-02-12_13h39.16.268,eye_track_exp,2023.1.3,120.10400095497161,
12,0,180,0,180,180,90,0,12,180,j,present,resp,freq_bottom,,,,,0,127,127,515,,,,,,,,,,,0.7957971720241057,,,,,,,,,,,,,,,,,,,,,,,773.0830398812595,773.2886740969379,773.2886885290063,774.0881465887724,774.088161341554,1068.8964370748954,1068.8964370748954,,,,,775.104977267888,j,1,0.9742479835640552,None,775.1055041987702,775.105547494978,775.1055648134607,775.1059766085027,,,,,,,DA,001,2,25,F,2024-02-12_13h39.16.268,eye_track_exp,2023.1.3,120.10400095497161,
180,12,0,180,180,180,-168,180,270,0,None,present,inhibit,freq_bottom,,,,,0,128,128,47,,,,,,,,,,,0.7051317934063763,,,,,,,,,,,,,,,,,,,,,,,775.1064637710169,775.3204554376189,775.3204695489758,776.0280803167107,776.02809474878,1070.8364368696393,1070.8364368696393,1072.326844354303,1072.326844354303,1072.326844354303,1072.326844354303,779.0596903968371,None,1,,,779.0602016127996,779.0602404190304,779.0602490782721,779.0607131494753,1073.8172181641385,1073.8172181641385,,,,,DA,001,2,25,F,2024-02-12_13h39.16.268,eye_track_exp,2023.1.3,120.10400095497161,
180,0,180,-168,180,180,-168,0,180,0,f,abs,resp,freq_bottom,,,,,0,129,129,885,,,,,,,,,,,0.9798218757315239,,,,,,,,,,,,,,,,,,,,,,,779.0612137819207,779.0619389132207,779.0619491760253,780.0413411433283,780.0413555753976,1074.849661455728,1074.849661455728,1076.3400381519768,1076.3400381519768,1076.3400381519768,1076.3400381519768,783.0727106889681,None,0,,,783.073094902722,783.5714082749,783.5714191791294,783.5717677937791,1077.8304251110312,1077.8304251110312,1077.8554070228374,1078.3549795128765,,,DA,001,2,25,F,2024-02-12_13h39.16.268,eye_track_exp,2023.1.3,120.10400095497161,
0,180,0,180,180,180,180,12,180,168,None,abs,inhibit,freq_bottom,,,,,0,130,130,412,,,,,,,,,,,0.7777788766727298,,,,,,,,,,,,,,,,,,,,,,,783.5723078738802,783.7470507264788,783.7470654792605,784.5291710604297,784.5291858132123,1079.337466357243,1079.337466357243,1080.8278568441365,1080.8278568441365,1080.8278568441365,1080.8278568441365,787.5601474123623,None,1,,,787.5604947441616,787.5614296215335,787.5614395636258,787.5620056214511,1082.3182470103175,1082.3182470103175,,,,,DA,001,2,25,F,2024-02-12_13h39.16.268,eye_track_exp,2023.1.3,120.10400095497161,
0,0,-168,180,180,180,90,0,0,12,None,present,inhibit,freq_bottom,,,,,0,131,131,66,,,,,,,,,,,0.93001048529542,,,,,,,,,,,,,,,,,,,,,,,787.5625197238278,787.5632454965535,787.5632557593581,788.4918548608493,788.4918692929186,1083.3007271197184,1083.3007271197184,1084.7911121544967,1084.7911121544967,1084.7911121544967,1084.7911121544967,791.5231413419133,None,1,,,791.5235165757131,791.5235579476448,791.5235666068857,791.5240111146177,1086.2814987928377,1086.2814987928377,,,,,DA,001,2,25,F,2024-02-12_13h39.16.268,eye_track_exp,2023.1.3,120.10400095497161,
180,180,12,0,-12,180,180,0,0,270,j,present,resp,freq_bottom,,,,,0,132,132,741,,,,,,,,,,,0.8262746546582893,,,,,,,,,,,,,,,,,,,,,,,791.5245130299136,791.6822401521977,791.6822536221289,792.5138833298697,792.513897761939,1087.3222806133053,1087.3222806133053,1088.8126858529804,1088.8126858529804,1088.8126858529804,1088.8126858529804,794.3051228072882,j,1,1.7474675793628194,None,794.3057145221255,794.3057562147696,794.3057658361495,794.3062427358591,,,,,,,DA,001,2,25,F,2024-02-12_13h39.16.268,eye_track_exp,2023.1.3,120.10400095497161,
0,180,0,180,180,168,0,0,180,12,None,abs,inhibit,freq_bottom,,,,,0,133,133,400,,,,,,,,,,,0.8864651250871134,,,,,,,,,,,,,,,,,,,,,,,794.3067404818903,794.4958480540445,794.4958615239757,795.3862842745611,795.3862990273428,1090.203138750555,1090.203138750555,1091.6935247474712,1091.6935247474712,1091.6935247474712,1091.6935247474712,797.4523379310704,j,0,2.0187927255446994,None,797.4529123274251,797.9583041484821,797.9583172977009,797.9587800860536,,,1092.2430556090085,,,,DA,001,2,25,F,2024-02-12_13h39.16.268,eye_track_exp,2023.1.3,120.10400095497161,
180,168,180,180,180,180,0,168,180,0,f,abs,resp,freq_bottom,,,,,0,134,134,760,,,,,,,,,,,0.7770068630771922,,,,,,,,,,,,,,,,,,,,,,,797.959332032523,798.0509904248029,798.0510035740217,798.8332034447103,798.8332181974929,1093.6418444697601,1093.6418444697601,1095.1322365602164,1095.1322365602164,1095.1322365602164,1095.1322365602164,801.4735832198012,j,0,2.5955017391088404,None,801.4741261863164,801.9722262845826,801.9722365473872,801.9724883068166,,,1096.2562548587966,1096.7558546094106,,,DA,001,2,25,F,2024-02-12_13h39.16.268,eye_track_exp,2023.1.3,120.10400095497161,
-168,0,0,0,12,0,270,0,0,0,None,present,inhibit,freq_bottom,,,,,0,135,135,172,,,,,,,,,,,0.7687240763781998,,,,,,,,,,,,,,,,,,,,,,,801.9730873980452,802.0138358643981,802.0138480514788,802.7879130458214,802.7879274778907,1097.5967878703914,1097.5967878703914,1099.087163604503,1099.087163604503,1099.087163604503,1099.087163604503,805.8197970145502,None,1,,,805.82020496104,805.8210692816292,805.8210827515604,805.8217318739626,1100.577550884269,1100.577550884269,,,,,DA,001,2,25,F,2024-02-12_13h39.16.268,eye_track_exp,2023.1.3,120.10400095497161,
0,0,0,0,180,180,-168,180,90,12,None,present,inhibit,freq_bottom,,,,,0,136,136,137,,,,,,,,,,,0.8945851440094461,,,,,,,,,,,,,,,,,,,,,,,805.8222472591897,805.8229791254553,805.8229893882599,806.7263881726312,806.7264026046996,1101.5350728146004,1101.5350728146004,1103.025451114413,1103.025451114413,1103.025451114413,1103.025451114413,809.7576993485691,None,1,,,809.7580835623221,809.7581226892653,809.758131348507,809.75857842194,1104.5158355077656,1104.5158355077656,,,,,DA,001,2,25,F,2024-02-12_13h39.16.268,eye_track_exp,2023.1.3,120.10400095497161,
180,-12,0,180,0,-12,0,0,90,180,j,present,resp,freq_bottom,,,,,0,137,137,609,,,,,,,,,,,0.9570046443106182,,,,,,,,,,,,,,,,,,,,,,,809.759507205772,809.9329848469688,809.9329989583257,810.8894436148676,810.8894586883625,1105.6981644973666,1105.6981644973666,1107.180227038899,1107.180227038899,1107.180227038899,1107.180227038899,812.3912200422319,f,0,1.4661929646672434,None,812.3917527459416,812.8954669191316,812.8954797476381,812.8964364334706,,,1107.180227038899,,,,DA,001,2,25,F,2024-02-12_13h39.16.268,eye_track_exp,2023.1.3,120.10400095497161,
12,0,0,0,0,168,180,270,180,180,None,present,inhibit,freq_bottom,,,,,0,138,138,264,,,,,,,,,,,0.907142651041859,,,,,,,,,,,,,,,,,,,,,,,812.8969527808358,812.9632440854175,812.963256913923,813.8705453013035,813.8705603747976,1108.6789348876355,1108.6789348876355,1110.169320243126,1110.169320243126,1110.169320243126,1110.169320243126,816.9018061253555,None,1,,,816.902203167615,816.9029311853283,816.9029417688462,816.9035209758904,1111.659698863651,1111.659698863651,,,,,DA,001,2,25,F,2024-02-12_13h39.16.268,eye_track_exp,2023.1.3,120.10400095497161,
