ori10,ori11,ori12,ori13,ori14,ori16,ori17,ori18,ori19,ori20,corrAns,distractor,responses,dist_freq,practice_trials.thisRepN,practice_trials.thisTrialN,practice_trials.thisN,practice_trials.thisIndex,trials.thisRepN,trials.thisTrialN,trials.thisN,trials.thisIndex,intro_2.started,intro_2.stopped,key_resp.keys,key_resp.rt,key_resp.duration,start_et_record_2.started,start_et_record_2.stopped,fix_check_3.started,fix_check_3.stopped,fix_practice_2.started,fixdur,fix_practice_2.stopped,practice_search_2.started,int14_2.started,per15_2.started,practice_search_2.stopped,response_2.keys,response_2.corr,feedback_4.started,feedback_4.stopped,pause_pract_2.started,pause_pract_2.stopped,response_2.rt,response_2.duration,text_feedback.started,text_feedback.stopped,stop_et_record_2.started,stop_et_record_2.stopped,break_3.started,break_3.stopped,key_resp_2.keys,key_resp_2.rt,key_resp_2.duration,fix_check_2.started,fix_check_2.stopped,fixation_2.started,fixation_2.stopped,search_displays_2.started,int14.started,per15.started,int14.stopped,int14_3.started,per15.stopped,per15_3.started,search_displays_2.stopped,response.keys,response.corr,response.rt,response.duration,feedback_6.started,feedback_6.stopped,pause_4.started,pause_4.stopped,int14_3.stopped,per15_3.stopped,text_feedback_2.started,text_feedback_2.stopped,end_2.started,end_2.stopped,participant,session,group,age,gender,date,expName,psychopyVersion,frameRate,
,,,,,,,,,,,,,,,,,,,,,,1.0262901923852041e-05,63.51847979507875,space,63.500288245712,None,,,,,,,,,,,,,,,,,,,,,,,,,,,,,,,,,,,,,,,,,,,,,,,,,,,,,,,di,001,1,23,f,2024-02-09_16h20.31.132,eye_track_exp,2023.1.3,120.10242128822651,
0,180,180,180,168,0,0,0,0,12,None,abs,inhibit,freq_top,0,0,0,31,,,,,,,,,,154.80411555127648,155.30495213800532,155.32600230851313,155.79889879080656,155.7989122608633,0.8053461208061157,156.60661758220886,156.6066307315523,202.6133173317612,202.6133173317612,159.62010463668412,None,1,159.62074510579987,159.62079577887198,159.62080572105697,159.62164246814064,,,,,,,,,,,,,,,,,,,,,,,,,,,,,,,,,,,,,,di,001,1,23,f,2024-02-09_16h20.31.132,eye_track_exp,2023.1.3,120.10242128822651,
0,0,168,0,0,0,0,0,180,168,f,abs,resp,freq_top,0,1,1,19,,,,,,,,,,,,159.62215689601362,160.1957006786688,160.19571446943883,0.8269113178796532,161.02743401516636,161.02744716450616,207.03456480652676,207.03456480652676,163.37682932187818,j,0,163.37748614749216,163.88289100768088,163.8829015912961,163.88378420071604,2.304902830514038,None,209.3658977295563,,,,,,,,,,,,,,,,,,,,,,,,,,,,,,,,,,,di,001,1,23,f,2024-02-09_16h20.31.132,eye_track_exp,2023.1.3,120.10242128822651,
180,180,0,168,180,180,180,180,168,180,f,abs,resp,freq_top,0,2,2,10,,,,,,,,,,,,163.88430151503053,163.88509368264204,163.88510394554032,0.9451411135881445,164.83319483763626,164.8332076662591,210.8396697655262,210.8396697655262,167.84643878966017,None,0,167.84682364841865,168.3374130499833,168.33742331288522,168.33816641100566,,,213.82879012914054,,,,,,,,,,,,,,,,,,,,,,,,,,,,,,,,,,,di,001,1,23,f,2024-02-09_16h20.31.132,eye_track_exp,2023.1.3,120.10242128822651,
180,0,180,0,12,180,180,180,12,180,j,abs,resp,freq_top,0,3,3,9,,,,,,,,,,,,168.33870072324862,168.339770630595,168.33978121421023,0.9960782521476295,169.33777289292266,169.3377860422661,215.34418143267976,215.34418143267976,172.35095430539877,None,0,172.35134782348177,172.84192279284616,172.8419327350275,172.84290354124823,,,218.33330051343364,,,,,,,,,,,,,,,,,,,,,,,,,,,,,,,,,,,di,001,1,23,f,2024-02-09_16h20.31.132,eye_track_exp,2023.1.3,120.10242128822651,
0,0,180,0,168,0,0,0,180,168,f,abs,resp,freq_top,0,4,4,17,,,,,,,,,,,,172.84341957269862,172.84432431149617,172.8443345743981,1.038391993348525,173.88312448866054,173.88313667585317,219.89031493312723,219.89031493312723,176.89706150716665,None,0,176.89745342166862,177.388062066173,177.3880732912221,177.38927661627167,,,222.87945902970023,,,,,,,,,,,,,,,,,,,,,,,,,,,,,,,,,,,di,001,1,23,f,2024-02-09_16h20.31.132,eye_track_exp,2023.1.3,120.10242128822651,
180,270,0,0,0,0,0,168,0,168,f,present,resp,freq_top,0,5,5,43,,,,,,,,,,,,177.38980643849573,177.39065954207763,177.39066948426262,1.0013885385577261,178.3959542364464,178.39596674435597,224.40315334023762,224.40315334023762,181.4099015178508,None,0,181.4102892630508,181.900883154638,181.90089341753628,181.90136551094838,,,227.39229583322958,,,,,,,,,,,,,,,,,,,,,,,,,,,,,,,,,,,di,001,1,23,f,2024-02-09_16h20.31.132,eye_track_exp,2023.1.3,120.10242128822651,
180,270,0,0,168,0,0,168,180,0,f,present,resp,freq_top,0,6,6,45,,,,,,,,,,,,181.90187705237986,182.08515545247064,182.0851679603802,0.834244500958286,182.9258794102825,182.925892238909,228.93263817151092,228.93263817151092,185.93939019771278,None,0,185.93980071372062,186.43038754956433,186.4303984538965,186.43119286651563,,,231.92178066450288,,,,,,,,,,,,,,,,,,,,,,,,,,,,,,,,,,,di,001,1,23,f,2024-02-09_16h20.31.132,eye_track_exp,2023.1.3,120.10242128822651,
168,0,180,0,0,180,180,0,168,0,f,abs,resp,freq_top,0,7,7,13,,,,,,,,,,,,186.43171948158488,186.4979963290898,186.49800819556913,0.9840926638055285,187.48883893564926,187.48885144355881,233.4954459983819,233.4954459983819,190.50219866601765,None,0,190.50260180556506,190.99316971918597,190.9931803028012,190.99380184969777,,,236.48457470060384,,,,,,,,,,,,,,,,,,,,,,,,,,,,,,,,,,,di,001,1,23,f,2024-02-09_16h20.31.132,eye_track_exp,2023.1.3,120.10242128822651,
180,270,180,12,180,180,180,180,12,180,j,present,resp,freq_top,0,8,8,35,,,,,,,,,,,,190.994332634069,191.69337372640075,191.69338719645748,0.7957193881255816,192.49270772831733,192.49272055694382,238.49952133191982,238.49952133191982,194.1260232833156,f,0,194.12661853152895,194.62434642163134,194.62435540166916,194.6247162067557,1.5916229262656998,None,240.10650388851718,240.60606691346766,,,,,,,,,,,,,,,,,,,,,,,,,,,,,,,,,,di,001,1,23,f,2024-02-09_16h20.31.132,eye_track_exp,2023.1.3,120.10242128822651,
180,0,180,12,180,180,12,180,180,180,j,abs,resp,freq_top,0,9,9,1,,,,,,,,,,,,194.62523704894193,194.82453872272526,194.82455123063482,1.0539120334574286,195.88151545833534,195.88152764552797,241.88830885685093,241.88830885685093,197.09836701221866,f,0,197.09888721297466,197.59650413546842,197.59651375693647,197.59692683867252,1.1777188773266971,None,243.07895794359501,243.57854341864368,,,,,,,,,,,,,,,,,,,,,,,,,,,,,,,,,,di,001,1,23,f,2024-02-09_16h20.31.132,eye_track_exp,2023.1.3,120.10242128822651,
0,0,0,-168,0,12,0,0,0,0,None,abs,inhibit,freq_top,0,10,10,21,,,,,,,,,,,,197.5974396629681,198.53783947349075,198.53785294354748,0.7539307377273655,199.295466973188,199.29547948109757,245.30208109166415,245.30208109166415,201.4780086894716,f,0,201.47851381658984,201.9761621692196,201.97617146997436,201.97657589238588,2.147781997373386,None,247.45858583007794,247.95817130512296,,,,,,,,,,,,,,,,,,,,,,,,,,,,,,,,,,di,001,1,23,f,2024-02-09_16h20.31.132,eye_track_exp,2023.1.3,120.10242128822651,
0,168,180,90,0,180,0,168,0,0,f,present,resp,freq_top,0,11,11,48,,,,,,,,,,,,201.97711020462884,202.13469062327204,202.13470281046466,0.9170799245611794,203.05866722770588,203.05868005633238,249.1488473319805,249.1488473319805,206.0723046978128,None,0,206.07269436730348,206.56328537244917,206.5632959560644,206.5639454052216,,,252.05468875028964,,,,,,,,,,,,,,,,,,,,,,,,,,,,,,,,,,,di,001,1,23,f,2024-02-09_16h20.31.132,eye_track_exp,2023.1.3,120.10242128822651,
180,180,0,168,180,180,180,0,0,168,f,abs,resp,freq_top,0,12,12,18,,,,,,,,,,,,206.5644675302683,206.6978743288637,206.69788651605631,0.7756450246298118,207.4800740981409,207.4800869267674,253.48678571416895,253.48678571416895,208.86271703227976,f,1,208.86322408369233,208.86396205036363,208.8639719925486,208.8644302951834,1.3392659069104411,None,,,,,,,,,,,,,,,,,,,,,,,,,,,,,,,,,,,,di,001,1,23,f,2024-02-09_16h20.31.132,eye_track_exp,2023.1.3,120.10242128822651,
180,0,180,0,12,0,12,180,180,180,j,abs,resp,freq_top,0,13,13,7,,,,,,,,,,,,208.86490848219182,209.1291396771121,209.1291528264519,0.9829081898324494,210.11118345030627,210.11119627892913,256.11790981925515,256.11790981925515,211.56910315401547,j,1,211.56961341258648,211.56965061559822,211.5696589542058,211.57013521691988,1.4123881088635244,None,,,,,,,,,,,,,,,,,,,,,,,,,,,,,,,,,,,,di,001,1,23,f,2024-02-09_16h20.31.132,eye_track_exp,2023.1.3,120.10242128822651,
0,180,0,0,180,168,180,0,0,168,f,abs,resp,freq_top,0,14,14,16,,,,,,,,,,,,211.57061725251333,211.59320429233048,211.59321551737958,0.8312564861789797,212.4261589139569,212.42617142186646,258.4326389732996,258.4326389732996,213.34233924209184,f,1,213.34287419576867,213.34291236092758,213.3429213409654,213.3432949746748,0.8728340896050213,None,,,,,,,,,,,,,,,,,,,,,,,,,,,,,,,,,,,,di,001,1,23,f,2024-02-09_16h20.31.132,eye_track_exp,2023.1.3,120.10242128822651,
90,0,0,12,0,12,180,180,180,0,j,present,resp,freq_top,0,15,15,32,,,,,,,,,,,,213.34379176318907,213.34466154398615,213.3446714861675,0.9653876575087437,214.30742261051637,214.3074357598598,260.3143513510295,260.3143513510295,215.72361496549274,j,1,215.72414093912812,215.72417814213986,215.72418680146438,215.72480000974974,1.3749384652292065,None,,,,,,,,,,,,,,,,,,,,,,,,,,,,,,,,,,,,di,001,1,23,f,2024-02-09_16h20.31.132,eye_track_exp,2023.1.3,120.10242128822651,
180,0,180,0,168,180,0,180,12,180,None,abs,inhibit,freq_top,0,16,16,30,,,,,,,,,,,,215.7252717824449,215.72603476493532,215.7260450278336,0.9371333060104523,216.66348399164053,216.66349714098033,262.6706660975033,262.6706660975033,219.6774319144788,None,1,219.67783954404513,219.67787867135485,219.67788765139267,219.67955152409195,,,,,,,,,,,,,,,,,,,,,,,,,,,,,,,,,,,,,,di,001,1,23,f,2024-02-09_16h20.31.132,eye_track_exp,2023.1.3,120.10242128822651,
12,0,0,12,0,0,90,180,180,0,j,present,resp,freq_top,0,17,17,38,,,,,,,,,,,,219.68006434838753,220.26146470187814,220.26147817193487,0.9608410841824011,221.22617155015178,221.22618437877827,267.23349060158944,267.23349060158944,222.72607902369055,j,1,222.72658671653699,222.7266245609826,222.72663322030348,222.72710595514582,1.4638344241138839,None,,,,,,,,,,,,,,,,,,,,,,,,,,,,,,,,,,,,di,001,1,23,f,2024-02-09_16h20.31.132,eye_track_exp,2023.1.3,120.10242128822651,
0,270,0,0,12,0,0,12,0,0,j,present,resp,freq_top,0,18,18,40,,,,,,,,,,,,222.72758446286753,222.98393727828807,222.98395042762786,1.0037160647594705,223.9914606255843,223.9914910935695,269.9977998907634,269.9977998907634,225.52342074010448,j,1,225.52393035724526,225.52396852240418,225.52397718172506,225.52443420150303,1.483277809304127,None,,,,,,,,,,,,,,,,,,,,,,,,,,,,,,,,,,,,di,001,1,23,f,2024-02-09_16h20.31.132,eye_track_exp,2023.1.3,120.10242128822651,
180,0,90,180,12,0,180,180,12,180,j,present,resp,freq_top,0,19,19,41,,,,,,,,,,,,225.52492329283996,225.82321416716513,225.82322699579163,1.0829807547955057,226.90528625954903,226.90529908817552,272.91197638763333,272.91197638763333,228.2050129777599,j,1,228.20552067060635,228.20555851504832,228.20556717437285,228.2060203455585,1.2573176107580366,None,,,,,,,,,,,,,,,,,,,,,,,,,,,,,,,,,,,,di,001,1,23,f,2024-02-09_16h20.31.132,eye_track_exp,2023.1.3,120.10242128822651,
0,0,168,0,0,0,0,0,168,0,f,abs,resp,freq_top,0,20,20,11,,,,,,,,,,,,228.2064911561065,228.92900863270552,228.9290217820453,0.8539169428507773,229.78635015027248,229.78636297889898,275.7928767133817,275.7928767133817,231.30250603987952,f,1,231.3030381071112,231.30307563083988,231.3030846108777,231.30361507453563,1.4797464094808674,None,,,,,,,,,,,,,,,,,,,,,,,,,,,,,,,,,,,,di,001,1,23,f,2024-02-09_16h20.31.132,eye_track_exp,2023.1.3,120.10242128822651,
0,270,0,0,12,0,180,180,180,12,j,present,resp,freq_top,0,21,21,42,,,,,,,,,,,,231.30409037510253,231.56814228998337,231.56815511860623,1.0461301134240546,232.6169869600235,232.61699946793306,278.62381467511295,278.62381467511295,234.91635736316675,j,1,234.9168778846397,234.91691508765143,234.91692342625902,234.91739327465984,2.2488160807843087,None,,,,,,,,,,,,,,,,,,,,,,,,,,,,,,,,,,,,di,001,1,23,f,2024-02-09_16h20.31.132,eye_track_exp,2023.1.3,120.10242128822651,
0,180,0,12,0,180,180,180,0,12,j,abs,resp,freq_top,0,22,22,4,,,,,,,,,,,,234.91787947955527,235.1984928289603,235.1985056575868,0.7054022341812077,235.906247765015,235.90625995220762,281.91268356559885,281.91268356559885,237.0388688103085,j,1,237.03937810673233,237.039415630461,237.03942428978553,237.0398819509901,1.088394442358549,None,,,,,,,,,,,,,,,,,,,,,,,,,,,,,,,,,,,,di,001,1,23,f,2024-02-09_16h20.31.132,eye_track_exp,2023.1.3,120.10242128822651,
12,0,0,-168,0,0,180,180,180,180,None,abs,inhibit,freq_top,0,23,23,27,,,,,,,,,,,,237.0403553272663,237.28846895809693,237.28848210743672,0.8951766952582061,238.18731075773394,238.18732358636044,284.19406342536604,284.19406342536604,241.2008269973303,None,1,241.2012368719079,241.2012750370668,241.20128401710463,241.20202422878356,,,,,,,,,,,,,,,,,,,,,,,,,,,,,,,,,,,,,,di,001,1,23,f,2024-02-09_16h20.31.132,eye_track_exp,2023.1.3,120.10242128822651,
180,0,180,12,0,180,180,0,12,180,j,abs,resp,freq_top,0,24,24,3,,,,,,,,,,,,241.20251364083742,241.47667162600192,241.47668445462477,0.9312682218405194,242.408725453628,242.4087382822545,288.4155040992264,288.4155040992264,243.55079959217983,j,1,243.5513018328602,243.5513399980191,243.55134865734,243.5518063185482,1.0976878192268487,None,,,,,,,,,,,,,,,,,,,,,,,,,,,,,,,,,,,,di,001,1,23,f,2024-02-09_16h20.31.132,eye_track_exp,2023.1.3,120.10242128822651,
180,12,180,12,180,90,180,180,0,180,j,present,resp,freq_top,0,25,25,37,,,,,,,,,,,,243.55228963700574,243.84073422071378,243.84074737005358,1.0579741941306042,244.8978459776008,244.89785848551037,290.9050479678335,290.9050479678335,246.29848202084395,j,1,246.29911671708032,246.299154240809,246.2991625794166,246.29947463572535,1.359340139748383,None,,,,,,,,,,,,,,,,,,,,,,,,,,,,,,,,,,,,di,001,1,23,f,2024-02-09_16h20.31.132,eye_track_exp,2023.1.3,120.10242128822651,
12,0,0,12,0,0,180,0,180,180,j,abs,resp,freq_top,0,26,26,6,,,,,,,,,,,,246.29994897414508,246.93051984476187,246.93053299410167,0.7381758681448267,247.6711500573947,247.67116352745143,293.6777051641948,293.6777051641948,248.8878563270955,j,1,248.88834958773805,248.8883867907498,248.8883954500743,248.88887876853187,1.1785405507762334,None,,,,,,,,,,,,,,,,,,,,,,,,,,,,,,,,,,,,di,001,1,23,f,2024-02-09_16h20.31.132,eye_track_exp,2023.1.3,120.10242128822651,
90,0,0,12,0,180,180,180,0,12,j,present,resp,freq_top,0,27,27,36,,,,,,,,,,,,248.8893617662725,249.17074226746627,249.17075509609276,0.7639109502693086,249.93523596813247,249.93524879675533,295.94244116552,295.94244116552,251.0020041519856,j,1,251.0025230698775,251.00256155575335,251.00257021507787,251.00302498984456,1.0259818974991504,None,,,,,,,,,,,,,,,,,,,,,,,,,,,,,,,,,,,,di,001,1,23,f,2024-02-09_16h20.31.132,eye_track_exp,2023.1.3,120.10242128822651,
0,180,0,0,180,0,180,168,0,168,f,abs,resp,freq_top,0,28,28,14,,,,,,,,,,,,251.0035038182832,251.31853220000994,251.3185620265649,1.0242463050531674,252.34143835188297,252.34145150122276,298.3487410468224,298.3487410468224,253.25931237927216,f,1,253.25981943068473,253.25985695441705,253.25986561373793,253.26032680281787,0.8749726214409748,None,,,,,,,,,,,,,,,,,,,,,,,,,,,,,,,,,,,,di,001,1,23,f,2024-02-09_16h20.31.132,eye_track_exp,2023.1.3,120.10242128822651,
180,168,0,180,0,180,180,180,168,180,f,abs,resp,freq_top,0,29,29,12,,,,,,,,,,,,253.26080370696218,253.54913283303904,253.54914598238247,0.8303219001133451,254.3817773226474,254.38179079270412,300.38866020082423,300.38866020082423,255.28172687408005,f,1,255.2822345669265,255.28227241136847,255.28228074997605,255.28320473171334,0.8511623722042714,None,,,,,,,,,,,,,,,,,,,,,,,,,,,,,,,,,,,,di,001,1,23,f,2024-02-09_16h20.31.132,eye_track_exp,2023.1.3,120.10242128822651,
90,0,180,168,180,180,0,168,0,0,f,present,resp,freq_top,0,30,30,46,,,,,,,,,,,,255.28367458011417,255.53086807779619,255.53088122713598,0.8408198989811,256.3719233348529,256.3719361634794,302.3786692674548,302.3786692674548,257.6887541384349,f,1,257.6892858849533,257.6893227672517,257.6893311058593,271.4097369907322,1.2773697142183664,None,,,,,,,,,,,,,,,,,,,,,,,,,,,,,,,,,,,,di,001,1,23,f,2024-02-09_16h20.31.132,eye_track_exp,2023.1.3,120.10242128822651,
180,12,180,-168,180,180,0,180,180,180,None,abs,inhibit,freq_top,0,31,31,26,,,,,,,,,,,,271.41027675514124,272.07553815281426,272.07555130215405,1.0671089592622154,273.14932391541515,273.149336744038,319.15608171449276,319.15608171449276,276.16282411922657,None,1,276.16321443015113,276.1632532367439,276.16326253749867,276.16490460153364,,,,,,,,,,,,,,,,,,,,,,,,,,,,,,,,,,,,,,di,001,1,23,f,2024-02-09_16h20.31.132,eye_track_exp,2023.1.3,120.10242128822651,
180,12,180,12,0,180,0,180,180,180,j,abs,resp,freq_top,0,32,32,5,,,,,,,,,,,,276.16539176857987,276.4386754829284,276.43868831155123,1.0543953583773593,277.49557107748115,277.49558390610764,323.5023891710989,323.5023891710989,278.6960840942047,j,1,278.69657863771135,278.69661616144003,278.6966248207609,278.69707991624455,1.1610756603186019,None,,,,,,,,,,,,,,,,,,,,,,,,,,,,,,,,,,,,di,001,1,23,f,2024-02-09_16h20.31.132,eye_track_exp,2023.1.3,120.10242128822651,
180,168,180,0,180,0,180,0,0,168,f,abs,resp,freq_top,0,33,33,20,,,,,,,,,,,,278.69755553752475,278.89552110998557,278.8955345800423,1.053942695781617,279.95148085632536,279.95149368495186,325.95863089062186,325.95863089062186,280.9857797895929,f,1,280.98628780315266,280.9863256475983,280.98633430691916,280.9867884402556,0.9925341435191513,None,,,,,,,,,,,,,,,,,,,,,,,,,,,,,,,,,,,,di,001,1,23,f,2024-02-09_16h20.31.132,eye_track_exp,2023.1.3,120.10242128822651,
0,180,0,-168,180,0,180,0,12,180,None,abs,inhibit,freq_top,0,34,34,24,,,,,,,,,,,,280.9872630993923,281.5671281871546,281.5671416572113,0.8848923209011395,282.45812079241296,282.45813362103945,328.4648506892336,328.4648506892336,283.824528459827,j,0,283.82504833986604,284.33060714355815,284.3306177271734,284.33111162924615,1.3175733429889078,None,329.8136956479211,,,,,,,,,,,,,,,,,,,,,,,,,,,,,,,,,,,di,001,1,23,f,2024-02-09_16h20.31.132,eye_track_exp,2023.1.3,120.10242128822651,
0,180,0,12,0,180,180,12,0,0,j,abs,resp,freq_top,0,35,35,2,,,,,,,,,,,,284.3316359993041,284.4150348922594,284.4150480415992,0.8544179033929462,285.27248898101243,285.2725018096389,331.2791207388509,331.2791207388509,287.23858677298267,j,1,287.2391015215726,287.2398366018024,287.23984622327043,287.24039881630597,1.9271386225700553,None,,,,,,,,,,,,,,,,,,,,,,,,,,,,,,,,,,,,di,001,1,23,f,2024-02-09_16h20.31.132,eye_track_exp,2023.1.3,120.10242128822651,
90,0,180,180,180,168,0,168,0,0,f,present,resp,freq_top,0,36,36,44,,,,,,,,,,,,287.2408837383409,287.43727844563546,287.4372912742583,0.8019156643847763,288.24472302517097,288.24473553308053,334.25162707057825,334.25162707057825,289.66078100029335,f,1,289.66128965528696,289.66132717901564,289.66133615905346,289.6618047245902,1.371356392333837,None,,,,,,,,,,,,,,,,,,,,,,,,,,,,,,,,,,,,di,001,1,23,f,2024-02-09_16h20.31.132,eye_track_exp,2023.1.3,120.10242128822651,
180,270,180,12,180,0,12,180,0,180,j,present,resp,freq_top,0,37,37,33,,,,,,,,,,,,289.6622800251571,289.87772235455486,289.8777348624644,0.9625032845417072,290.8429952659171,290.8430080945436,336.84939835350815,336.84939835350815,292.4918979213471,j,1,292.4924145942314,292.4924514765298,292.4924601358507,292.4929181177722,1.6048418624741316,None,,,,,,,,,,,,,,,,,,,,,,,,,,,,,,,,,,,,di,001,1,23,f,2024-02-09_16h20.31.132,eye_track_exp,2023.1.3,120.10242128822651,
180,180,90,180,12,180,12,0,0,180,j,present,resp,freq_top,0,38,38,39,,,,,,,,,,,,292.4934001533693,292.7828893078877,292.78290213651417,0.966224673168288,293.74853970155164,293.7485525301745,339.7552458654136,339.7552458654136,295.53095146386113,j,1,295.53147358890783,295.5315104712063,295.53151913052716,295.53212913166135,1.7391864335731952,None,,,,,,,,,,,,,,,,,,,,,,,,,,,,,,,,,,,,di,001,1,23,f,2024-02-09_16h20.31.132,eye_track_exp,2023.1.3,120.10242128822651,
0,180,0,12,0,12,0,180,180,180,j,abs,resp,freq_top,0,39,39,0,,,,,,,,,,,,295.53260603580566,295.7973583936255,295.79737090153503,0.7397922177595169,296.5375424908125,296.537555319439,342.54456488029246,342.54456488029246,297.6039989390738,j,1,297.60451432909394,297.6045518528226,297.60456083286044,297.60503003983104,1.0296345278329682,None,,,,,,,,,,,,,,,,,,,,,,,,,,,,,,,,,,,,di,001,1,23,f,2024-02-09_16h20.31.132,eye_track_exp,2023.1.3,120.10242128822651,
0,0,180,0,0,0,168,0,180,168,f,abs,resp,freq_top,0,40,40,15,,,,,,,,,,,,297.6055136790055,297.85435116501685,297.8543636729264,0.8644166886811858,298.7189405351528,298.71895304306236,344.72604246210904,344.72604246210904,299.83559731843343,f,1,299.8361018041214,299.8361402899973,299.8361489493218,299.83662360845483,1.072355453597993,None,,,,,,,,,,,,,,,,,,,,,,,,,,,,,,,,,,,,di,001,1,23,f,2024-02-09_16h20.31.132,eye_track_exp,2023.1.3,120.10242128822651,
168,0,270,180,180,180,180,168,180,180,f,present,resp,freq_top,0,41,41,49,,,,,,,,,,,,299.83710596476885,300.0686539917733,300.0686668203962,1.0385042016194663,301.1087408800522,301.10875338796177,347.11567186557295,347.11567186557295,302.6419023953313,f,1,302.64240944674384,302.6424476119064,302.6424565919442,302.64293093036395,1.4985188575701613,None,,,,,,,,,,,,,,,,,,,,,,,,,,,,,,,,,,,,di,001,1,23,f,2024-02-09_16h20.31.132,eye_track_exp,2023.1.3,120.10242128822651,
0,180,180,180,12,0,180,12,0,0,j,abs,resp,freq_top,0,42,42,8,,,,,,,,,,,,302.6434190595537,302.87497221801095,302.8749850466338,0.7196810865187254,303.59854324545813,303.5985560740846,349.6052320906783,349.6052320906783,304.5820449919156,j,1,304.5825651926716,304.5826020749664,304.582610413574,304.5830000830683,0.9451147337458679,None,,,,,,,,,,,,,,,,,,,,,,,,,,,,,,,,,,,,di,001,1,23,f,2024-02-09_16h20.31.132,eye_track_exp,2023.1.3,120.10242128822651,
90,0,0,12,0,0,0,12,0,0,j,present,resp,freq_top,0,43,43,34,,,,,,,,,,,,304.5840799325997,304.82301371989524,304.8230262278048,0.9091027437829106,305.7380227945432,305.73803626459994,351.7450795005934,351.7450795005934,306.8219069302504,j,1,306.82242488599513,306.8224620890069,306.82247042761446,306.82293129597747,1.0449538307148032,None,,,,,,,,,,,,,,,,,,,,,,,,,,,,,,,,,,,,di,001,1,23,f,2024-02-09_16h20.31.132,eye_track_exp,2023.1.3,120.10242128822651,
0,0,0,0,168,0,0,12,0,0,None,abs,inhibit,freq_top,0,44,44,29,,,,,,,,,,,,306.8234123694274,307.05503608531944,307.05504891394594,0.862854951018228,307.91956804736037,307.919580234553,353.9265657417345,353.9265657417345,310.93331039147597,None,1,310.93371866247617,310.933757148352,310.93376644910677,310.9344056353584,,,,,,,,,,,,,,,,,,,,,,,,,,,,,,,,,,,,,,di,001,1,23,f,2024-02-09_16h20.31.132,eye_track_exp,2023.1.3,120.10242128822651,
0,180,0,180,168,180,12,180,0,180,None,abs,inhibit,freq_top,0,45,45,28,,,,,,,,,,,,310.93488799167244,311.21698817874494,311.2170010073678,0.8872953691133776,312.10736789643124,312.10738104577104,358.1146786092613,358.1146786092613,315.1214235797197,None,1,315.12180202416494,315.1218392271803,315.12184820721814,315.1233645507273,,,,,,,,,,,,,,,,,,,,,,,,,,,,,,,,,,,,,,di,001,1,23,f,2024-02-09_16h20.31.132,eye_track_exp,2023.1.3,120.10242128822651,
180,180,180,-168,180,180,12,180,0,180,None,abs,inhibit,freq_top,0,46,46,22,,,,,,,,,,,,315.12385267991704,315.34703419822836,315.34704702685485,1.0443435747406133,316.39613351648586,316.3961463451087,362.4026972826068,362.4026972826068,319.4094634202993,None,1,319.40988131276754,319.4099204400736,319.4099300615453,319.4112283184222,,,,,,,,,,,,,,,,,,,,,,,,,,,,,,,,,,,,,,di,001,1,23,f,2024-02-09_16h20.31.132,eye_track_exp,2023.1.3,120.10242128822651,
180,180,168,0,270,0,0,168,0,180,f,present,resp,freq_top,0,47,47,47,,,,,,,,,,,,319.4117324833969,320.2851152347321,320.28512838407187,0.7302689197930803,321.0171223661637,321.01713487407324,367.023782667693,367.023782667693,323.631837697365,j,0,323.6323447487812,324.1313927044248,324.13140200517955,324.13187602288235,2.5658235986775253,None,369.61323105925476,370.11283032507345,,,,,,,,,,,,,,,,,,,,,,,,,,,,,,,,,,di,001,1,23,f,2024-02-09_16h20.31.132,eye_track_exp,2023.1.3,120.10242128822651,
0,0,0,-168,0,0,0,12,0,0,None,abs,inhibit,freq_top,0,48,48,23,,,,,,,,,,,,324.13239622363835,324.86429431175566,324.8643074610991,1.0771219040531268,325.94612490526924,325.9461380546127,371.9529343395661,371.9529343395661,328.95972292735314,None,1,328.9607822510843,328.96151925560844,328.9615295185067,328.96235536126187,,,,,,,,,,,,,,,,,,,,,,,,,,,,,,,,,,,,,,di,001,1,23,f,2024-02-09_16h20.31.132,eye_track_exp,2023.1.3,120.10242128822651,
0,0,0,-168,180,180,180,180,0,12,None,abs,inhibit,freq_top,0,49,49,25,,,,,,,,,,,,328.96284541474597,329.4269376115117,329.42695076085147,0.9006000512100174,330.3348537392412,330.3348665678677,376.3408572151566,376.3408572151566,333.3476422750682,None,1,333.3480418867475,333.34808069333667,333.3480899940914,333.34863970068545,,,,,,,,,,,,,,,,,,,,,,,,,,,,,,,,,,,,,,di,001,1,23,f,2024-02-09_16h20.31.132,eye_track_exp,2023.1.3,120.10242128822651,
,,,,,,,,,,,,,,,,,,,,,,,,,,,,,,,,,,,,,,,,,,,,,,,,333.3486913359011,333.85159878346167,333.85161546067684,341.63262312994993,space,7.76659286719223,None,,,,,,,,,,,,,,,,,,,,,,,,,,,di,001,1,23,f,2024-02-09_16h20.31.132,eye_track_exp,2023.1.3,120.10242128822651,
0,0,90,0,0,0,168,0,0,168,f,present,resp,freq_top,,,,,0,0,0,561,,,,,,341.63264814576905,342.1336085287294,,,,0.8340099515191709,,,,,,,,,,,,,,,,,,,,,,,342.28046549949795,342.57376251071764,342.57377694292154,343.4142529875462,343.41426774046704,389.4214196990579,389.4214196990579,390.91184296993015,390.91184296993015,390.91184296993015,390.91184296993015,345.67220938112587,f,1,2.2147297819792584,None,345.6737459297183,345.67378922633,345.6737985270847,345.6744133389511,,,,,,,di,001,1,23,f,2024-02-09_16h20.31.132,eye_track_exp,2023.1.3,120.10242128822651,
0,270,0,12,0,0,0,-12,0,0,j,present,resp,freq_top,,,,,0,1,1,693,,,,,,,,,,,0.7951697263034357,,,,,,,,,,,,,,,,,,,,,,,345.67489280882,345.96305131418194,345.9630660671028,346.7616553673215,346.76167012024234,392.76859501216677,392.76859501216677,394.25899968152953,394.25899968152953,394.25899968152953,394.25899968152953,349.7930088482244,None,0,,,349.7933876133866,350.2996516707535,350.29966353723285,350.30031362781665,395.74940082302055,395.74940082302055,395.7827196493163,,,,di,001,1,23,f,2024-02-09_16h20.31.132,eye_track_exp,2023.1.3,120.10242128822651,
180,90,0,-12,180,0,180,0,-12,0,j,present,resp,freq_top,,,,,0,2,2,710,,,,,,,,,,,0.9595060110944644,,,,,,,,,,,,,,,,,,,,,,,350.3008524300785,350.39210757315595,350.39212072249575,351.3578410321679,351.3578551436549,397.36470081882,397.36470081882,398.84675565670113,398.84675565670113,398.84675565670113,398.84675565670113,352.85921706258523,j,1,1.455073755907506,None,352.8597196239825,352.8604505349067,352.8604607978086,352.8608341108047,,,,,,,di,001,1,23,f,2024-02-09_16h20.31.132,eye_track_exp,2023.1.3,120.10242128822651,
0,-168,0,12,180,270,180,0,180,180,None,present,inhibit,freq_top,,,,,0,3,3,36,,,,,,,,,,,0.7124862975669243,,,,,,,,,,,,,,,,,,,,,,,352.8613174292623,353.1403445191463,353.1403599134974,353.8553649471287,353.8553790586193,399.86258104884837,399.86258104884837,401.3529850767809,401.3529850767809,401.3529850767809,401.3529850767809,356.8868111148513,None,1,,,356.88717961711154,356.88724376023674,356.88725274027456,356.88780437116293,402.8434198934119,402.8434198934119,,,,,di,001,1,23,f,2024-02-09_16h20.31.132,eye_track_exp,2023.1.3,120.10242128822651,
0,270,0,-168,0,180,180,180,0,-12,None,present,inhibit,freq_top,,,,,0,4,4,333,,,,,,,,,,,0.8101817121245736,,,,,,,,,,,,,,,,,,,,,,,356.8883200819,357.1201551493941,357.1201689401678,357.9358571943121,357.9358716265124,403.94242641259916,403.94242641259916,405.4328493627545,405.4328493627545,405.4328493627545,405.4328493627545,360.9673617322769,None,1,,,360.9677427424467,360.9677802661754,360.96778956693015,360.96833061419966,406.92326429501554,406.92326429501554,,,,,di,001,1,23,f,2024-02-09_16h20.31.132,eye_track_exp,2023.1.3,120.10242128822651,
90,0,180,0,180,180,12,0,180,-168,None,present,inhibit,freq_top,,,,,0,5,5,305,,,,,,,,,,,0.9828909522388403,,,,,,,,,,,,,,,,,,,,,,,360.9693819200438,361.19945754158107,361.19947133235473,362.18248976035466,362.1825038718416,408.18882549766204,408.18882549766204,409.6792343363268,409.6792343363268,409.6792343363268,409.6792343363268,365.213599497376,None,1,,,365.21400424050444,365.21404208495005,365.21405106498423,365.21477748589314,411.1696499100217,411.1696499100217,,,,,di,001,1,23,f,2024-02-09_16h20.31.132,eye_track_exp,2023.1.3,120.10242128822651,
180,-168,180,-168,180,180,90,0,0,180,f,present,resp,freq_top,,,,,0,6,6,526,,,,,,,,,,,0.9683574978425432,,,,,,,,,,,,,,,,,,,,,,,365.21528100943397,365.42145914708453,365.42147261714126,366.3951020950117,366.39511588578534,412.40192884795397,412.40192884795397,413.8923274237204,413.8923274237204,413.8923274237204,413.8923274237204,369.29332106489164,j,0,2.8489026098613977,None,369.2939057294898,369.7997416314902,369.79975349796587,369.8007345670849,,,415.2828137793549,,,,di,001,1,23,f,2024-02-09_16h20.31.132,eye_track_exp,2023.1.3,120.10242128822651,
12,0,270,0,0,12,0,0,0,0,j,present,resp,freq_top,,,,,0,7,7,667,,,,,,,,,,,0.978410813308827,,,,,,,,,,,,,,,,,,,,,,,369.8012505985389,369.9509128689424,369.9509260182822,370.9328270730184,370.9328411845054,416.9397513235126,416.9397513235126,,,,,372.3995080863642,j,1,1.4313738328492036,None,372.40002026922957,372.4007566323198,372.40076689522175,372.4013287890084,,,,,,,di,001,1,23,f,2024-02-09_16h20.31.132,eye_track_exp,2023.1.3,120.10242128822651,
270,0,-12,0,0,0,-12,0,0,0,j,present,resp,freq_top,,,,,0,8,8,676,,,,,,,,,,,0.9754519189227081,,,,,,,,,,,,,,,,,,,,,,,372.4018239739453,372.59050322527764,372.5905170160513,373.57229459526934,373.57230902747324,419.57916849340836,419.57916849340836,,,,,374.9386926412117,j,1,1.3196204708692676,None,374.9392218220055,374.9392596664511,374.93926896720586,374.9397237419689,,,,,,,di,001,1,23,f,2024-02-09_16h20.31.132,eye_track_exp,2023.1.3,120.10242128822651,
90,180,168,0,0,180,180,12,180,180,None,present,inhibit,freq_top,,,,,0,9,9,32,,,,,,,,,,,0.934495116740494,,,,,,,,,,,,,,,,,,,,,,,374.94020770186034,375.44590633756525,375.4459210904861,376.3869010755843,376.386914866358,422.3934484852107,422.3934484852107,423.8838525131432,423.8838525131432,423.8838525131432,423.8838525131432,379.417881884925,None,1,,,379.41825616006827,379.4182946459441,379.41830362598193,379.4187365920843,425.3742347324114,425.3742347324114,,,,,di,001,1,23,f,2024-02-09_16h20.31.132,eye_track_exp,2023.1.3,120.10242128822651,
0,270,0,0,-12,180,180,180,0,-12,j,present,resp,freq_top,,,,,0,10,10,735,,,,,,,,,,,1.0786386312526113,,,,,,,,,,,,,,,,,,,,,,,379.4192478128025,379.6590885839032,379.6591023746769,380.74118889926467,380.74120301075163,426.7480977554078,426.7480977554078,,,,,381.85877383358456,j,1,1.0788451344124041,None,381.859275753548,381.85931295655973,381.85932193659755,381.8597090403673,,,,,,,di,001,1,23,f,2024-02-09_16h20.31.132,eye_track_exp,2023.1.3,120.10242128822651,
180,0,180,168,180,168,180,0,180,180,f,abs,resp,freq_top,,,,,0,11,11,793,,,,,,,,,,,1.0254613972396953,,,,,,,,,,,,,,,,,,,,,,,381.8601747194625,382.13187281572755,382.1318862857843,383.16434559418485,383.1643593849585,429.17101519646894,429.17101519646894,,,,,384.26525684351145,f,1,1.0561551448772661,None,384.26579468362615,384.26583349021894,384.26584279097005,384.2664486228023,,,,,,,di,001,1,23,f,2024-02-09_16h20.31.132,eye_track_exp,2023.1.3,120.10242128822651,
0,90,180,180,180,12,0,12,0,180,j,present,resp,freq_top,,,,,0,12,12,523,,,,,,,,,,,1.0614430175055132,,,,,,,,,,,,,,,,,,,,,,,384.2669293755316,384.4962182816271,384.496232713831,385.5625211070983,385.5625355393022,431.56899314855036,431.56899314855036,,,,,386.9793343675374,j,1,1.3774753258767305,None,386.9798728490823,386.97991133495816,386.9799206357129,386.9804094063329,,,,,,,di,001,1,23,f,2024-02-09_16h20.31.132,eye_track_exp,2023.1.3,120.10242128822651,
-168,0,0,0,0,0,0,0,168,180,f,abs,resp,freq_top,,,,,0,13,13,841,,,,,,,,,,,0.7178153934369126,,,,,,,,,,,,,,,,,,,,,,,386.98088951763566,387.25250711427725,387.252520584334,387.9764062338145,387.97642002458815,433.98361784551525,433.98361784551525,435.4740189870063,435.4740189870063,435.4740189870063,435.4740189870063,391.00814585634,None,0,,,391.00852750794,391.5071348003112,391.50714506320946,391.5075918200855,436.9644015269914,436.9644015269914,436.9894016312246,437.4889778055149,,,di,001,1,23,f,2024-02-09_16h20.31.132,eye_track_exp,2023.1.3,120.10242128822651,
12,0,90,0,0,-168,0,0,0,0,None,present,inhibit,freq_top,,,,,0,14,14,276,,,,,,,,,,,0.9030649776819859,,,,,,,,,,,,,,,,,,,,,,,391.5081238873172,391.84915781678865,391.8491719282756,392.7563690115603,392.7563834437642,438.76288434962044,438.76288434962044,440.25330729977577,440.25330729977577,440.25330729977577,440.25330729977577,395.78702237023754,None,1,,,395.78739889038843,395.7881467992447,395.788157062143,395.7888854073426,441.743689519044,441.743689519044,,,,,di,001,1,23,f,2024-02-09_16h20.31.132,eye_track_exp,2023.1.3,120.10242128822651,
180,-168,180,180,0,-168,180,180,0,180,f,abs,resp,freq_top,,,,,0,15,15,851,,,,,,,,,,,0.7481785756495976,,,,,,,,,,,,,,,,,,,,,,,395.7893696879473,395.8867684596735,395.8867822504435,396.6362780052914,396.63629211677835,442.6429145738621,442.6429145738621,444.13333335471543,444.13333335471543,444.13333335471543,444.13333335471543,398.310387947251,f,1,1.631485634319688,None,398.310912317309,398.3109504824715,398.31095978322264,398.3115726707947,,,,,,,di,001,1,23,f,2024-02-09_16h20.31.132,eye_track_exp,2023.1.3,120.10242128822651,
0,270,0,-168,0,180,180,180,0,-12,None,present,inhibit,freq_top,,,,,0,16,16,334,,,,,,,,,,,1.04123817314434,,,,,,,,,,,,,,,,,,,,,,,398.312055347822,398.38509897444965,398.38511116164227,399.4252448744046,399.42525898589156,445.4322316644466,445.4322316644466,446.92262575019413,446.92262575019413,446.92262575019413,446.92262575019413,402.4566477455155,None,1,,,402.4570252278136,402.4570633929725,402.4570723730103,402.45761887244953,448.413055435376,448.413055435376,,,,,di,001,1,23,f,2024-02-09_16h20.31.132,eye_track_exp,2023.1.3,120.10242128822651,
90,180,180,-168,0,180,-12,180,0,180,None,present,inhibit,freq_top,,,,,0,17,17,132,,,,,,,,,,,0.7543659367448023,,,,,,,,,,,,,,,,,,,,,,,402.4581012287599,402.6399877230069,402.64000119306365,403.3969391541541,403.3969526242108,449.40382363590834,449.40382363590834,450.89425364180715,450.89425364180715,450.89425364180715,450.89425364180715,406.4284058476733,None,1,,,406.4287884614241,406.42882566443586,406.4288346444737,406.42937889890163,452.3846332953508,452.3846332953508,,,,,di,001,1,23,f,2024-02-09_16h20.31.132,eye_track_exp,2023.1.3,120.10242128822651,
168,0,0,90,0,180,12,0,180,180,None,present,inhibit,freq_top,,,,,0,18,18,52,,,,,,,,,,,0.904634548703938,,,,,,,,,,,,,,,,,,,,,,,406.4298641416535,406.586665542025,406.58667933279867,407.49387224677776,407.4938863582647,453.5003741147848,453.5003741147848,454.9907781427173,454.9907781427173,454.9907781427173,454.9907781427173,410.52518050677827,None,1,,,410.52555638549893,410.5255942299409,410.52560353069566,410.526256507721,456.48119147140096,456.48119147140096,,,,,di,001,1,23,f,2024-02-09_16h20.31.132,eye_track_exp,2023.1.3,120.10242128822651,
180,90,0,0,12,0,0,-168,180,180,None,present,inhibit,freq_top,,,,,0,19,19,64,,,,,,,,,,,0.7941365692722603,,,,,,,,,,,,,,,,,,,,,,,410.5267391847483,410.7408521478501,410.740866580054,411.5402025062649,411.5402255977897,457.5469333652327,457.5469333652327,459.0373476560635,459.0373476560635,459.0373476560635,459.0373476560635,414.57103835214,None,1,,,414.5714132687135,414.5714511131591,414.5714600931933,414.5720579071349,460.5277510425658,460.5277510425658,,,,,di,001,1,23,f,2024-02-09_16h20.31.132,eye_track_exp,2023.1.3,120.10242128822651,
180,168,0,168,180,0,180,0,180,180,f,abs,resp,freq_top,,,,,0,20,20,799,,,,,,,,,,,0.7054252103777294,,,,,,,,,,,,,,,,,,,,,,,414.57254218773596,415.0461695809572,415.0461840131611,415.75283953602775,415.75285396823165,461.7600293390642,461.7600293390642,,,,,416.9033247627449,j,0,1.1047586367640179,None,416.90385009495003,417.4093226261357,417.4093338511848,417.40984058188405,,,462.89244544707253,,,,di,001,1,23,f,2024-02-09_16h20.31.132,eye_track_exp,2023.1.3,120.10242128822651,
0,168,0,0,0,0,168,0,0,0,f,abs,resp,freq_top,,,,,0,21,21,998,,,,,,,,,,,0.8110571705022338,,,,,,,,,,,,,,,,,,,,,,,417.4103700833912,418.2186607107651,418.218675142969,419.03387975793885,419.0338932279956,465.0405711688836,465.0405711688836,466.53099892977116,466.53099892977116,466.53099892977116,466.53099892977116,422.0655103371464,None,0,,,422.0658894230255,422.56411474307606,422.56412500597435,422.56450409185345,468.0214080891528,468.0214080891528,468.04635495458933,468.5459407503513,,,di,001,1,23,f,2024-02-09_16h20.31.132,eye_track_exp,2023.1.3,120.10242128822651,
270,180,180,-168,180,180,180,180,12,180,None,present,inhibit,freq_top,,,,,0,22,22,82,,,,,,,,,,,1.088926824534481,,,,,,,,,,,,,,,,,,,,,,,422.56503166906623,422.56585045607426,422.56586200183665,423.6546425030974,423.6546562938711,469.66164436677354,469.66164436677354,471.1520679583591,471.1520679583591,471.1520679583591,471.1520679583591,426.6860331870121,None,1,,,426.68642317722333,426.6871678789212,426.68717782110616,426.6878307981315,472.6424617233897,472.6424617233897,,,,,di,001,1,23,f,2024-02-09_16h20.31.132,eye_track_exp,2023.1.3,120.10242128822651,
168,0,0,0,0,0,0,0,168,180,f,abs,resp,freq_top,,,,,0,23,23,840,,,,,,,,,,,0.8523325631654561,,,,,,,,,,,,,,,,,,,,,,,426.6883237380571,426.96148782547607,426.9615012955328,427.8176645038693,427.81767797392604,473.82481357601864,473.82481357601864,,,,,429.0517198856869,f,1,1.1834256912843557,None,429.0522416900203,429.05228017589616,429.052289155934,429.052779530135,,,,,,,di,001,1,23,f,2024-02-09_16h20.31.132,eye_track_exp,2023.1.3,120.10242128822651,
0,270,0,0,12,0,180,180,180,12,j,present,resp,freq_top,,,,,0,24,24,564,,,,,,,,,,,0.8586551339049675,,,,,,,,,,,,,,,,,,,,,,,429.0532913922834,429.1507103690892,429.1507225562855,430.0168119134323,430.0168260249193,476.0229119247524,476.0229119247524,,,,,430.8502415149087,j,1,0.7938511301908875,None,430.85075914994013,430.8507985979595,430.85080789871427,430.8511677416536,,,,,,,di,001,1,23,f,2024-02-09_16h20.31.132,eye_track_exp,2023.1.3,120.10242128822651,
-168,180,0,180,-168,180,180,180,180,180,f,abs,resp,freq_top,,,,,0,25,25,749,,,,,,,,,,,0.9663538151721176,,,,,,,,,,,,,,,,,,,,,,,430.8516561915603,430.8527966563488,430.8528069192471,431.8231448925908,431.8231586833608,477.8380418129782,477.8380418129782,,,,,432.7232522361119,f,1,0.8505132437639986,None,432.7237644189772,432.72380322556637,432.7238122056042,432.72436928865864,,,,,,,di,001,1,23,f,2024-02-09_16h20.31.132,eye_track_exp,2023.1.3,120.10242128822651,
180,168,0,270,180,0,180,0,168,180,f,present,resp,freq_top,,,,,0,26,26,490,,,,,,,,,,,0.9261688514294516,,,,,,,,,,,,,,,,,,,,,,,432.72485773856533,433.03909074552575,433.0391045362994,433.97122218634104,433.971236297828,479.9862364886503,479.9862364886503,481.47668830321345,481.47668830321345,481.47668830321345,481.47668830321345,436.1538434401009,f,1,2.1263302908882906,None,436.1543546608191,436.15439378812516,436.154402768163,436.15486299509575,,,,,,,di,001,1,23,f,2024-02-09_16h20.31.132,eye_track_exp,2023.1.3,120.10242128822651,
0,-168,0,12,180,270,180,0,180,180,None,present,inhibit,freq_top,,,,,0,27,27,38,,,,,,,,,,,0.8661116862978719,,,,,,,,,,,,,,,,,,,,,,,436.1553463135533,436.4195778291869,436.41959194067385,437.2844542398125,437.28446803058614,483.29176944266146,483.29176944266146,484.7821664148505,484.7821664148505,484.7821664148505,484.7821664148505,440.31603222166086,None,1,,,440.3164032896457,440.31644081337436,440.31644947269524,440.3169036060317,486.27257108421327,486.27257108421327,,,,,di,001,1,23,f,2024-02-09_16h20.31.132,eye_track_exp,2023.1.3,120.10242128822651,
180,-168,180,0,90,-168,180,180,0,0,f,present,resp,freq_top,,,,,0,28,28,633,,,,,,,,,,,0.9682933808812151,,,,,,,,,,,,,,,,,,,,,,,440.3173789065986,440.882504545345,440.8825189775489,441.85634633696463,441.85636012773466,487.86288604941365,487.86288604941365,489.35327789015355,489.35327789015355,489.35327789015355,489.35327789015355,444.1971583312152,f,1,2.2967999500724545,None,444.1977025856431,444.19774203366615,444.1977513344209,444.19821027848957,,,,,,,di,001,1,23,f,2024-02-09_16h20.31.132,eye_track_exp,2023.1.3,120.10242128822651,
180,0,-168,180,-168,0,180,180,0,180,f,abs,resp,freq_top,,,,,0,29,29,846,,,,,,,,,,,1.0099415205354227,,,,,,,,,,,,,,,,,,,,,,,444.1986935969471,444.4377678576893,444.4377822898932,445.45321961612353,445.4532334068972,491.45983918676575,491.45983918676575,492.9502233303283,492.9502233303283,492.9502233303283,492.9502233303283,448.48455545766774,None,0,,,448.4849448064451,448.9908596044879,448.990870829537,448.99153599375495,494.4406296032721,494.4406296032721,494.4739349595111,,,,di,001,1,23,f,2024-02-09_16h20.31.132,eye_track_exp,2023.1.3,120.10242128822651,
-168,0,90,0,180,180,180,0,-168,0,f,present,resp,freq_top,,,,,0,30,30,699,,,,,,,,,,,1.0898793560968745,,,,,,,,,,,,,,,,,,,,,,,448.9920696645677,449.4085641336678,449.4085785658717,450.4989623245747,450.4989767567786,496.50553956075237,496.50553956075237,497.99592851505076,497.99592851505076,497.99592851505076,497.99592851505076,453.1886282575506,f,1,2.6464691479304747,None,453.1891385161216,453.1898742377816,453.1898845006799,453.19044703590043,,,,,,,di,001,1,23,f,2024-02-09_16h20.31.132,eye_track_exp,2023.1.3,120.10242128822651,
0,-168,0,0,0,-168,180,0,0,0,f,abs,resp,freq_top,,,,,0,31,31,991,,,,,,,,,,,1.0940793832762075,,,,,,,,,,,,,,,,,,,,,,,453.1909274679165,453.3883346744624,453.38834910666264,454.48714234995714,454.48716480004805,500.50215087938705,500.50215087938705,501.992566132365,501.992566132365,501.992566132365,501.992566132365,456.42032028587346,f,1,1.881896551221871,None,456.4209036676111,456.4209424742003,456.42095177495503,456.42141585047284,,,,,,,di,001,1,23,f,2024-02-09_16h20.31.132,eye_track_exp,2023.1.3,120.10242128822651,
0,168,0,270,180,180,168,0,0,0,f,present,resp,freq_top,,,,,0,32,32,659,,,,,,,,,,,0.7076369429158318,,,,,,,,,,,,,,,,,,,,,,,456.4218982067832,456.66892717734663,456.6689409681203,457.3762238107629,457.37623760153656,503.38300373922175,503.38300373922175,504.8734427251584,504.8734427251584,504.8734427251584,504.8734427251584,459.08457944719703,f,1,1.6720664246713568,None,459.0851419824139,459.08518014757647,459.0851891276143,459.0856663524755,,,,,,,di,001,1,23,f,2024-02-09_16h20.31.132,eye_track_exp,2023.1.3,120.10242128822651,
0,0,168,0,0,0,0,0,168,0,f,abs,resp,freq_top,,,,,0,33,33,955,,,,,,,,,,,0.9918156301116356,,,,,,,,,,,,,,,,,,,,,,,459.08614550162747,459.35777592689556,459.3577903590958,460.3486913359011,460.3487060888183,506.35550044948104,506.35550044948104,,,,,461.44917026055555,f,1,1.0517655100229604,None,461.44969751705503,461.4497366443611,461.4497459451122,461.4502058513317,,,,,,,di,001,1,23,f,2024-02-09_16h20.31.132,eye_track_exp,2023.1.3,120.10242128822651,
12,0,12,180,270,180,180,0,180,180,j,present,resp,freq_top,,,,,0,34,34,457,,,,,,,,,,,0.9045661760005712,,,,,,,,,,,,,,,,,,,,,,,461.45068788692515,461.6979019104074,461.69791570118105,462.6049395980226,462.6049537095096,508.6119321609476,508.6119321609476,510.1023416410426,510.1023416410426,510.1023416410426,510.1023416410426,465.2793984785894,f,0,2.6347607823554426,None,465.27993920514564,465.78493258717936,465.78494413294175,465.78553457041926,,,511.2680146772291,,,,di,001,1,23,f,2024-02-09_16h20.31.132,eye_track_exp,2023.1.3,120.10242128822651,
0,180,168,180,90,180,180,168,180,180,f,present,resp,freq_top,,,,,0,35,35,449,,,,,,,,,,,0.8007945690258034,,,,,,,,,,,,,,,,,,,,,,,465.7860701655263,466.1191221243462,466.1191359151162,466.9260721603787,466.92608627186564,512.9332484933584,512.9332484933584,,,,,468.2102467361583,f,1,1.2415323080676899,None,468.21077367194084,468.2115135629065,468.2115241465217,468.21212516761443,,,,,,,di,001,1,23,f,2024-02-09_16h20.31.132,eye_track_exp,2023.1.3,120.10242128822651,
0,0,180,90,180,-12,0,12,0,0,j,present,resp,freq_top,,,,,0,36,36,656,,,,,,,,,,,1.0663125609517328,,,,,,,,,,,,,,,,,,,,,,,468.21261778682674,468.4672403414115,468.4672544528985,469.53267306537236,469.5326871768593,515.5477168735233,515.5477168735233,,,,,470.7243619121982,j,1,1.139395925023564,None,470.72486511502575,470.72490199732056,470.7249109773584,470.7253949372498,,,,,,,di,001,1,23,f,2024-02-09_16h20.31.132,eye_track_exp,2023.1.3,120.10242128822651,
270,180,180,-168,180,180,12,180,180,180,None,present,inhibit,freq_top,,,,,0,37,37,17,,,,,,,,,,,0.7019274936365285,,,,,,,,,,,,,,,,,,,,,,,470.72588434930367,471.3145543640276,471.31456879623147,472.02207357409134,472.02208704414807,518.0289420200643,518.0289420200643,519.5276711843726,519.5276711843726,519.5276711843726,519.5276711843726,475.0540935020799,None,1,,,475.0544725879554,475.05450979096713,475.0545190917219,475.05508387195005,521.001416600946,521.001416600946,,,,,di,001,1,23,f,2024-02-09_16h20.31.132,eye_track_exp,2023.1.3,120.10242128822651,
0,12,0,90,180,180,168,0,0,0,None,present,inhibit,freq_top,,,,,0,38,38,247,,,,,,,,,,,0.8968059454309669,,,,,,,,,,,,,,,,,,,,,,,475.05557232185674,475.2861517876554,475.2861655784254,476.1853790874811,476.1853928782548,522.1920541419313,522.1920541419313,523.682496976453,523.682496976453,523.682496976453,523.682496976453,479.2166770845797,None,1,,,479.2170731683873,479.21711005068573,479.21711903072355,479.21767996236304,525.1728679706757,525.1728679706757,,,,,di,001,1,23,f,2024-02-09_16h20.31.132,eye_track_exp,2023.1.3,120.10242128822651,
0,12,0,12,180,90,180,180,0,0,j,present,resp,freq_top,,,,,0,39,39,631,,,,,,,,,,,1.0838077174380554,,,,,,,,,,,,,,,,,,,,,,,479.2181636015339,479.5579621343895,479.5579765665934,480.6479170962921,480.64793088706574,526.6549516729647,526.6549516729647,,,,,481.8980056939872,j,1,1.2151771802855365,None,481.89851915971303,481.8985573248756,481.8985666256267,481.89892646856606,,,,,,,di,001,1,23,f,2024-02-09_16h20.31.132,eye_track_exp,2023.1.3,120.10242128822651,
180,12,180,-168,180,270,180,180,0,180,None,present,inhibit,freq_top,,,,,0,40,40,106,,,,,,,,,,,0.8254566967093329,,,,,,,,,,,,,,,,,,,,,,,481.8994107491708,482.138896488068,482.1389099581247,482.970682421932,482.9706958919887,528.9779803061356,528.9779803061356,530.4683650911284,530.4683650911284,530.4683650911284,530.4683650911284,486.002217427882,None,1,,,486.0025942687498,486.00263275462567,486.0026417346635,486.0030814357924,531.9587627047476,531.9587627047476,,,,,di,001,1,23,f,2024-02-09_16h20.31.132,eye_track_exp,2023.1.3,120.10242128822651,
12,180,90,0,168,180,0,180,0,180,None,present,inhibit,freq_top,,,,,0,41,41,119,,,,,,,,,,,0.808912375882055,,,,,,,,,,,,,,,,,,,,,,,486.00356315067256,486.4931346008234,486.49314935374423,487.3092619146664,487.309276026157,533.3242794241341,533.3242794241341,534.8063519013776,534.8063519013776,534.8063519013776,534.8063519013776,489.6836422519773,f,0,2.3215681768997456,None,489.6841579627144,490.18921741216764,490.1892286372131,496.46048093874924,,,535.6722940500513,,,,di,001,1,23,f,2024-02-09_16h20.31.132,eye_track_exp,2023.1.3,120.10242128822651,
0,0,0,0,0,168,0,0,0,168,f,abs,resp,freq_top,,,,,0,42,42,928,,,,,,,,,,,0.928230032774062,,,,,,,,,,,,,,,,,,,,,,,496.4610444361133,496.76782721894415,496.7678413304311,497.70097051757693,497.7009846290639,543.70714365206,543.70714365206,,,,,498.88420177246735,f,1,1.138555650068156,None,498.88497630072015,498.8857357553352,498.8857469803843,498.88621330091337,,,,,,,di,001,1,23,f,2024-02-09_16h20.31.132,eye_track_exp,2023.1.3,120.10242128822651,
180,12,0,180,180,180,180,180,168,180,None,abs,inhibit,freq_top,,,,,0,43,43,375,,,,,,,,,,,0.8517831518106815,,,,,,,,,,,,,,,,,,,,,,,498.88670399583134,498.8874496596727,498.88745992257464,499.74879434976174,499.74880878196564,545.7554042989359,545.7554042989359,547.2458105718761,547.2458105718761,547.2458105718761,547.2458105718761,502.7800512952599,None,1,,,502.7804329468636,502.7804711120225,502.7804800920603,502.7810105557146,548.7361972811632,548.7361972811632,,,,,di,001,1,23,f,2024-02-09_16h20.31.132,eye_track_exp,2023.1.3,120.10242128822651,
168,180,180,0,0,168,0,0,0,0,f,abs,resp,freq_top,,,,,0,44,44,1004,,,,,,,,,,,0.9404203233418882,,,,,,,,,,,,,,,,,,,,,,,502.7815073442289,502.78250637342353,502.7825166363218,503.72001076321976,503.7200242332765,549.7270395670093,549.7270395670093,,,,,504.7540265045827,f,1,0.9901986922886863,None,504.75453997030854,504.7545784561844,504.7545874362222,504.755067226808,,,,,,,di,001,1,23,f,2024-02-09_16h20.31.132,eye_track_exp,2023.1.3,120.10242128822651,
180,180,168,0,180,0,-168,180,0,180,f,abs,resp,freq_top,,,,,0,45,45,872,,,,,,,,,,,0.8212872998576819,,,,,,,,,,,,,,,,,,,,,,,504.75554445166927,504.9615577414843,504.9615715322543,505.7856772888772,505.78569107965086,551.791927395112,551.791927395112,553.2823596460184,553.2823596460184,553.2823596460184,553.2823596460184,507.4098402611671,f,1,1.5810874177514052,None,507.41035404760987,507.4103925334857,507.41040151352354,507.41085853329787,,,,,,,di,001,1,23,f,2024-02-09_16h20.31.132,eye_track_exp,2023.1.3,120.10242128822651,
270,0,180,0,180,12,0,-168,0,0,None,present,inhibit,freq_top,,,,,0,46,46,293,,,,,,,,,,,0.961969550880768,,,,,,,,,,,,,,,,,,,,,,,507.4113412103252,508.27507202471315,508.2750858154868,509.24106301837674,509.24107712986734,555.2473131246115,555.2473131246115,556.7377277361593,556.7377277361593,556.7377277361593,556.7377277361593,512.2715374177351,None,1,,,512.271913617169,512.2719517823316,512.2719607623694,512.2725258633109,558.2281590249222,558.2281590249222,,,,,di,001,1,23,f,2024-02-09_16h20.31.132,eye_track_exp,2023.1.3,120.10242128822651,
0,180,0,180,168,180,12,180,0,180,None,abs,inhibit,freq_top,,,,,0,47,47,342,,,,,,,,,,,1.0890834904860982,,,,,,,,,,,,,,,,,,,,,,,512.2730152753647,512.9796926068957,512.9797073598165,514.0697489149388,514.0697630264294,560.0765596320998,560.0765596320998,561.5752942485742,561.5752942485742,561.5752942485742,561.5752942485742,517.1011941205143,None,1,,,517.1015812242804,517.1016177858655,517.1016264451864,517.102192828992,563.0490457587439,563.0490457587439,,,,,di,001,1,23,f,2024-02-09_16h20.31.132,eye_track_exp,2023.1.3,120.10242128822651,
270,180,180,180,12,0,168,180,180,180,None,present,inhibit,freq_top,,,,,0,48,48,12,,,,,,,,,,,1.0345623665242782,,,,,,,,,,,,,,,,,,,,,,,517.102679033891,517.3012116315876,517.3012251016444,518.3409531091311,518.3409668999047,564.3479296362711,564.3479296362711,565.8383464928302,565.8383464928302,565.8383464928302,565.8383464928302,521.3724605335374,None,1,,,521.3728684838206,521.3729066489832,521.372915629021,521.3734650148981,567.3287694429855,567.3287694429855,,,,,di,001,1,23,f,2024-02-09_16h20.31.132,eye_track_exp,2023.1.3,120.10242128822651,
0,0,180,180,180,12,0,-168,0,0,None,abs,inhibit,freq_top,,,,,0,49,49,364,,,,,,,,,,,0.7183954368985297,,,,,,,,,,,,,,,,,,,,,,,521.3739701420163,521.6389935045481,521.6390072953218,522.3623316924459,522.3623461246498,568.3695317583843,568.3695317583843,569.8599207126827,569.8599207126827,569.8599207126827,569.8599207126827,525.394471247364,None,1,,,525.3948500125261,525.3948878569718,525.3948968370096,525.3953442353159,571.3503394935324,571.3503394935324,,,,,di,001,1,23,f,2024-02-09_16h20.31.132,eye_track_exp,2023.1.3,120.10242128822651,
180,168,180,180,90,180,0,180,168,180,f,present,resp,freq_top,,,,,0,50,50,488,,,,,,,,,,,0.8027871771753667,,,,,,,,,,,,,,,,,,,,,,,525.3958246673319,525.4266727003996,525.4266858497394,526.2345133637391,526.2345274752297,572.2495828291394,572.2495828291394,573.7399903849437,573.7399903849437,573.7399903849437,573.7399903849437,527.9011823823239,f,1,1.619836921847309,None,527.901678208691,527.9017163738499,527.9017250331708,527.9021855808205,,,,,,,di,001,1,23,f,2024-02-09_16h20.31.132,eye_track_exp,2023.1.3,120.10242128822651,
12,0,90,0,0,-168,0,0,0,0,None,present,inhibit,freq_top,,,,,0,51,51,274,,,,,,,,,,,0.8614601920580609,,,,,,,,,,,,,,,,,,,,,,,527.9026660128366,528.1415808779093,528.141594668683,529.007474919239,529.0074883892921,575.0139084748153,575.0139084748153,576.5042996741213,576.5042996741213,576.5042996741213,576.5042996741213,532.038661948729,None,1,,,532.0390525803668,532.0390904248125,532.0390994048503,532.0396561671878,577.9946841383971,577.9946841383971,,,,,di,001,1,23,f,2024-02-09_16h20.31.132,eye_track_exp,2023.1.3,120.10242128822651,
0,90,180,-12,180,0,180,12,0,0,j,present,resp,freq_top,,,,,0,52,52,647,,,,,,,,,,,0.821876581662793,,,,,,,,,,,,,,,,,,,,,,,532.0406850229338,532.604367762051,532.6043825149718,533.4284186762998,533.4284408056774,579.4434897452775,579.4434897452775,,,,,534.8445715832495,f,0,1.3685042682191124,None,534.8451167998246,535.3508760507866,535.3508879172659,535.3520203641601,,,580.8339388979002,,,,di,001,1,23,f,2024-02-09_16h20.31.132,eye_track_exp,2023.1.3,120.10242128822651,
-168,180,0,180,-168,180,180,180,180,180,f,abs,resp,freq_top,,,,,0,53,53,747,,,,,,,,,,,0.7891974566179536,,,,,,,,,,,,,,,,,,,,,,,535.352545054935,536.2178986904219,536.2179128019125,537.008709674421,537.0087234651946,583.0154520791511,583.0154520791511,,,,,538.0924292830059,f,1,1.0443463953088212,None,538.0929385794298,538.0936726975124,538.0936832811276,538.0940514626745,,,,,,,di,001,1,23,f,2024-02-09_16h20.31.132,eye_track_exp,2023.1.3,120.10242128822651,
168,0,0,168,0,180,180,180,180,90,f,present,resp,freq_top,,,,,0,54,54,415,,,,,,,,,,,1.0252301763712919,,,,,,,,,,,,,,,,,,,,,,,538.094539271151,538.1088621105591,538.1088733356082,539.1399198916515,539.1399426624594,585.1469519025959,585.1469519025959,,,,,540.2745357881795,f,1,1.0895557536568958,None,540.275041556728,540.2750816461848,540.2750906262227,540.2756509164319,,,,,,,di,001,1,23,f,2024-02-09_16h20.31.132,eye_track_exp,2023.1.3,120.10242128822651,
0,270,180,180,180,-168,0,12,0,0,None,present,inhibit,freq_top,,,,,0,55,55,236,,,,,,,,,,,0.8628740783886132,,,,,,,,,,,,,,,,,,,,,,,540.2761303863008,540.5732968316188,540.5733109431094,541.4379958865029,541.4380099979899,587.4450205209905,587.4450205209905,588.9354069095607,588.9354069095607,588.9354069095607,588.9354069095607,544.4697236425491,None,1,,,544.4701017662774,544.4701399314399,544.4701489114777,544.4707085602531,590.425809975346,590.425809975346,,,,,di,001,1,23,f,2024-02-09_16h20.31.132,eye_track_exp,2023.1.3,120.10242128822651,
0,0,0,168,0,168,0,0,0,0,f,abs,resp,freq_top,,,,,0,56,56,1002,,,,,,,,,,,0.8187381208458397,,,,,,,,,,,,,,,,,,,,,,,544.4711902751333,544.4719583890728,544.4719686519711,545.2933778315601,545.293391943047,591.3000714875125,591.3000714875125,,,,,546.5767050766408,f,1,1.2395021781157993,None,546.5772153352118,546.5772544625179,546.5772637632726,546.5775318815395,,,,,,,di,001,1,23,f,2024-02-09_16h20.31.132,eye_track_exp,2023.1.3,120.10242128822651,
0,168,0,0,0,0,0,0,0,168,f,abs,resp,freq_top,,,,,0,57,57,934,,,,,,,,,,,1.0789187623170107,,,,,,,,,,,,,,,,,,,,,,,546.5780135964196,546.8502158576594,546.8502296484294,547.932491283751,547.9325050745247,593.9394992410271,593.9394992410271,595.4298930060577,595.4298930060577,595.4298930060577,595.4298930060577,549.7237708332868,j,0,1.7523675253360125,None,549.7242942412013,550.2299200744601,550.2299316202225,550.2308915221074,,,595.7129691308,,,,di,001,1,23,f,2024-02-09_16h20.31.132,eye_track_exp,2023.1.3,120.10242128822651,
180,180,168,0,0,0,0,168,0,180,f,abs,resp,freq_top,,,,,0,58,58,876,,,,,,,,,,,0.8089890073253396,,,,,,,,,,,,,,,,,,,,,,,550.2313992149539,550.7307387011097,550.7307524918833,551.5464712140092,551.546484684066,597.5530971989647,597.5530971989647,599.0434951333009,599.0434951333009,599.0434951333009,599.0434951333009,553.437344513055,f,1,1.8506226077952306,None,553.4378550923393,553.4385937004408,553.4386039633428,553.4391745164503,,,,,,,di,001,1,23,f,2024-02-09_16h20.31.132,eye_track_exp,2023.1.3,120.10242128822651,
90,180,180,0,168,0,-12,180,180,180,None,present,inhibit,freq_top,,,,,0,59,59,28,,,,,,,,,,,0.8600885503766502,,,,,,,,,,,,,,,,,,,,,,,553.4396632870739,553.4406491669251,553.4406594298271,554.3107490730545,554.3107631845414,600.3173894902138,600.3173894902138,601.8161398217526,601.8161398217526,601.8161398217526,601.8161398217526,557.3419306503783,None,1,,,557.3423151884199,557.3423523914353,557.3423610507562,557.3429223031126,603.2899041605488,603.2899041605488,,,,,di,001,1,23,f,2024-02-09_16h20.31.132,eye_track_exp,2023.1.3,120.10242128822651,
270,180,180,180,168,180,12,180,0,180,None,present,inhibit,freq_top,,,,,0,60,60,116,,,,,,,,,,,0.8367066942551868,,,,,,,,,,,,,,,,,,,,,,,557.3434123565967,557.9664124140072,557.9664265254942,558.8061633205871,558.8061771113607,604.8135862838899,604.8135862838899,606.303988708245,606.303988708245,606.303988708245,606.303988708245,561.8379279589317,None,1,,,561.8384292374649,561.8384670819105,561.8384757412314,561.8390828559241,607.7944241663063,607.7944241663063,,,,,di,001,1,23,f,2024-02-09_16h20.31.132,eye_track_exp,2023.1.3,120.10242128822651,
168,0,0,0,90,168,0,0,0,0,f,present,resp,freq_top,,,,,0,61,61,666,,,,,,,,,,,0.786392427381188,,,,,,,,,,,,,,,,,,,,,,,561.8395722679779,562.0547830406867,562.0547965107435,562.8453297550041,562.8453435457741,608.8518341887357,608.8518341887357,,,,,564.3281193523981,f,1,1.4467264901541057,None,564.3286482124786,564.3286873397847,564.3286966405358,564.3291815625744,,,,,,,di,001,1,23,f,2024-02-09_16h20.31.132,eye_track_exp,2023.1.3,120.10242128822651,
180,0,180,0,180,168,180,180,-168,180,f,abs,resp,freq_top,,,,,0,62,62,878,,,,,,,,,,,1.0027704679246794,,,,,,,,,,,,,,,,,,,,,,,564.3296626360207,565.0853979134881,565.085412345692,566.0920857965648,566.0920995873385,612.0990757937616,612.0990757937616,,,,,567.2591231570477,f,1,1.1283713251759764,None,567.2596308498942,567.259669656487,567.2596786365248,567.260140467035,,,,,,,di,001,1,23,f,2024-02-09_16h20.31.132,eye_track_exp,2023.1.3,120.10242128822651,
0,0,0,0,0,0,168,0,0,168,f,abs,resp,freq_top,,,,,0,63,63,925,,,,,,,,,,,1.0329675886239589,,,,,,,,,,,,,,,,,,,,,,,567.2606257097868,567.8246516146282,567.8246663675491,568.857059929247,568.8570743614473,614.8634094573245,614.8634094573245,,,,,569.7743191447698,f,1,0.8758238007321779,None,569.7748361383674,569.7748746242432,569.774883924998,569.7752415229261,,,,,,,di,001,1,23,f,2024-02-09_16h20.31.132,eye_track_exp,2023.1.3,120.10242128822651,
12,0,270,180,0,180,168,180,0,0,None,present,inhibit,freq_top,,,,,0,64,64,215,,,,,,,,,,,0.8583107691119867,,,,,,,,,,,,,,,,,,,,,,,569.7757190685006,570.6222098140934,570.6222239255803,571.4791491542601,571.479163265747,617.4861769959025,617.4861769959025,618.9765572908764,618.9765572908764,618.9765572908764,618.9765572908764,574.5109080197217,None,1,,,574.5112845398726,574.511321422171,574.5113304022088,574.5118862023992,620.4669725438544,620.4669725438544,,,,,di,001,1,23,f,2024-02-09_16h20.31.132,eye_track_exp,2023.1.3,120.10242128822651,
180,0,180,168,180,0,180,180,168,180,f,abs,resp,freq_top,,,,,0,65,65,831,,,,,,,,,,,0.8629676354800746,,,,,,,,,,,,,,,,,,,,,,,574.5123871602154,574.5131074875244,574.5131177504263,575.3755717958848,575.3755855866548,621.3828603793372,621.3828603793372,,,,,576.343802026091,f,1,0.9319477534700127,None,576.3443549398398,576.3443947085798,576.3444040093309,576.3449630166797,,,,,,,di,001,1,23,f,2024-02-09_16h20.31.132,eye_track_exp,2023.1.3,120.10242128822651,
0,90,0,-168,180,180,180,12,0,0,None,present,inhibit,freq_top,,,,,0,66,66,221,,,,,,,,,,,0.7874723466381347,,,,,,,,,,,,,,,,,,,,,,,576.3454716716697,576.667272926119,576.6672876790362,577.4577365750847,577.4577503658584,623.4644196474255,623.4644196474255,624.954822392494,624.954822392494,624.954822392494,624.954822392494,580.4886356019379,None,1,,,580.489028478587,580.4890749823535,580.4890839623913,580.4895342471391,626.4452283447172,626.4452283447172,,,,,di,001,1,23,f,2024-02-09_16h20.31.132,eye_track_exp,2023.1.3,120.10242128822651,
0,0,0,12,0,0,168,0,0,0,None,abs,inhibit,freq_top,,,,,0,67,67,359,,,,,,,,,,,0.7429285611294213,,,,,,,,,,,,,,,,,,,,,,,580.4900127548608,580.7881336499013,580.788147119958,581.5376893785724,581.5377031693461,627.5442970827389,627.5442970827389,629.0346860370337,629.0346860370337,629.0346860370337,629.0346860370337,584.5690277858412,None,1,,,584.5694129653166,584.569449847615,584.5694585069359,584.5699306003444,630.5250810849284,630.5250810849284,,,,,di,001,1,23,f,2024-02-09_16h20.31.132,eye_track_exp,2023.1.3,120.10242128822651,
180,180,0,180,180,12,180,180,0,-168,None,abs,inhibit,freq_top,,,,,0,68,68,379,,,,,,,,,,,0.8286899372116989,,,,,,,,,,,,,,,,,,,,,,,584.5704216159793,584.8269293370467,584.8269434485337,585.6591899300438,585.6592040415308,631.6657729391045,631.6657729391045,633.1645136491752,633.1645136491752,633.1645136491752,633.1645136491752,588.6901797194187,None,1,,,588.6905559188563,588.6905931218716,588.6906024226228,588.6911582228131,634.6382674043562,634.6382674043562,,,,,di,001,1,23,f,2024-02-09_16h20.31.132,eye_track_exp,2023.1.3,120.10242128822651,
0,180,0,180,168,180,-12,180,0,180,None,abs,inhibit,freq_top,,,,,0,69,69,408,,,,,,,,,,,1.0020796450940144,,,,,,,,,,,,,,,,,,,,,,,588.6916367305348,588.6923435877907,588.692353850689,589.6969901158664,589.6970045480703,635.704010260335,635.704010260335,637.1944607920341,637.1944607920341,637.1944607920341,637.1944607920341,592.7286245436626,None,1,,,592.7290148545871,592.7290523783158,592.7290610376367,592.7296206864157,638.6848183161965,638.6848183161965,,,,,di,001,1,23,f,2024-02-09_16h20.31.132,eye_track_exp,2023.1.3,120.10242128822651,
0,-168,0,-168,180,0,180,180,0,0,f,abs,resp,freq_top,,,,,0,70,70,957,,,,,,,,,,,1.0336279249356317,,,,,,,,,,,,,,,,,,,,,,,592.7301139470583,592.9528201648063,592.9528339555764,593.9935888945183,593.9936030060053,640.000362087947,640.000362087947,,,,,595.2680650295842,f,1,1.2253971046156948,None,595.2686057561405,595.2686452041635,595.2686541842013,595.2693360256344,,,,,,,di,001,1,23,f,2024-02-09_16h20.31.132,eye_track_exp,2023.1.3,120.10242128822651,
0,90,180,180,12,0,0,0,168,0,None,present,inhibit,freq_top,,,,,0,71,71,204,,,,,,,,,,,0.8821190231908166,,,,,,,,,,,,,,,,,,,,,,,595.2698337762959,595.9176376599717,595.9176524128889,596.799616552391,596.7996306638779,642.8146494562097,642.8146494562097,644.3050804242557,644.3050804242557,644.3050804242557,644.3050804242557,599.8395254434945,None,1,,,599.8399045293736,599.8399423738156,599.8399513538534,599.8404568016922,645.7788088429006,645.7788088429006,,,,,di,001,1,23,f,2024-02-09_16h20.31.132,eye_track_exp,2023.1.3,120.10242128822651,
90,180,180,-12,0,0,180,180,-12,0,j,present,resp,freq_top,,,,,0,72,72,706,,,,,,,,,,,0.8030146149243732,,,,,,,,,,,,,,,,,,,,,,,599.8409420444405,600.3387555656191,600.3387696771097,601.145851206551,601.145865318038,647.1526394736138,647.1526394736138,,,,,602.4628263321647,j,1,1.2730987441500474,None,602.4633622479887,602.4634013752948,602.4634106760459,602.4638843730354,,,,,,,di,001,1,23,f,2024-02-09_16h20.31.132,eye_track_exp,2023.1.3,120.10242128822651,
0,-168,0,0,0,12,0,180,0,0,None,abs,inhibit,freq_top,,,,,0,73,73,393,,,,,,,,,,,0.8441414525195478,,,,,,,,,,,,,,,,,,,,,,,602.4643628807607,602.6781477517688,602.6781612218256,603.5272327661078,603.5272465568778,649.5422794606966,649.5422794606966,651.0327065801539,651.0327065801539,651.0327065801539,651.0327065801539,606.5664883594691,None,1,,,606.5668761046654,606.5669126662469,606.5669216462848,606.5673914946856,652.5064295466327,652.5064295466327,,,,,di,001,1,23,f,2024-02-09_16h20.31.132,eye_track_exp,2023.1.3,120.10242128822651,
0,0,0,168,0,0,180,180,0,168,f,abs,resp,freq_top,,,,,0,74,74,904,,,,,,,,,,,0.9947148307655114,,,,,,,,,,,,,,,,,,,,,,,606.5678757752903,606.7164335010602,606.7164466504,607.7154719955943,607.7154857863643,653.7303939318044,653.7303939318044,,,,,608.798734263688,f,1,1.0303971896064468,None,608.7992512572855,608.7992887810142,608.799297761052,608.7997900595474,,,,,,,di,001,1,23,f,2024-02-09_16h20.31.132,eye_track_exp,2023.1.3,120.10242128822651,
168,180,180,12,180,180,180,0,270,0,None,present,inhibit,freq_top,,,,,0,75,75,181,,,,,,,,,,,0.7739109210646771,,,,,,,,,,,,,,,,,,,,,,,608.8002823580428,608.9977283711814,608.9977421619515,609.7718409750814,609.7718554072817,655.778668048737,655.778668048737,657.2773805358302,657.2773805358302,657.2773805358302,657.2773805358302,612.8029321105969,None,1,,,612.8033009335741,612.8033378158689,612.8033464751934,612.8038894467572,658.75111889666,658.75111889666,,,,,di,001,1,23,f,2024-02-09_16h20.31.132,eye_track_exp,2023.1.3,120.10242128822651,
168,0,12,180,180,0,180,0,180,90,None,present,inhibit,freq_top,,,,,0,76,76,0,,,,,,,,,,,0.8933388585716652,,,,,,,,,,,,,,,,,,,,,,,612.8043775759506,613.2365354758003,613.2365495872873,614.1347012068873,614.1347149976573,660.1416216087928,660.1416216087928,661.6403405101992,661.6403405101992,661.6403405101992,661.6403405101992,617.1661900297877,None,1,,,617.1665671913688,617.1666043943842,617.1666140158522,617.1672804629343,663.1140795124593,663.1140795124593,,,,,di,001,1,23,f,2024-02-09_16h20.31.132,eye_track_exp,2023.1.3,120.10242128822651,
270,0,12,180,180,180,0,0,-12,0,j,present,resp,freq_top,,,,,0,77,77,712,,,,,,,,,,,0.9174219320371582,,,,,,,,,,,,,,,,,,,,,,,617.1677785343127,617.415532001487,617.4155461129776,618.3396936588433,618.3397157882246,664.3463687132898,664.3463687132898,665.8367656854789,665.8367656854789,665.8367656854789,665.8367656854789,620.1139438497485,f,0,1.7264607580109441,None,620.1144576361912,620.6201338218052,620.6201453675676,620.6213737084399,,,666.1032258540399,,,,di,001,1,23,f,2024-02-09_16h20.31.132,eye_track_exp,2023.1.3,120.10242128822651,
180,-168,0,270,180,180,180,0,-168,180,f,present,resp,freq_top,,,,,0,78,78,537,,,,,,,,,,,0.7605357490357016,,,,,,,,,,,,,,,,,,,,,,,620.621956769457,621.4039647507889,621.403979824423,622.1694241262194,622.1694385584233,668.1764461949824,668.1764461949824,,,,,623.4530570132993,f,1,1.2396981353631418,None,623.4535704790251,623.454320632889,623.4543308957909,623.4547077366551,,,,,,,di,001,1,23,f,2024-02-09_16h20.31.132,eye_track_exp,2023.1.3,120.10242128822651,
180,180,90,180,180,12,180,180,12,180,j,present,resp,freq_top,,,,,0,79,79,494,,,,,,,,,,,0.754177715490848,,,,,,,,,,,,,,,,,,,,,,,623.4551753400483,624.9263476551059,624.9263624080231,625.6834982506589,625.6835120414289,671.6901479685694,671.6901479685694,,,,,626.6754338560895,j,1,0.9418055898568127,None,626.6760675901787,626.6761073589187,626.6761163389565,626.6765948466782,,,,,,,di,001,1,23,f,2024-02-09_16h20.31.132,eye_track_exp,2023.1.3,120.10242128822651,
270,0,168,0,168,0,180,180,180,180,f,present,resp,freq_top,,,,,0,80,80,423,,,,,,,,,,,0.8423279810156374,,,,,,,,,,,,,,,,,,,,,,,626.6770662986564,627.4492966225116,627.4493116961494,628.2976988332703,628.2977126240439,674.3045736935564,674.3045736935564,675.8033070271667,675.8033070271667,675.8033070271667,675.8033070271667,630.0642807134136,f,1,1.7196628694728133,None,630.064792896279,630.0648326650153,630.06484196577,630.06530315485,,,,,,,di,001,1,23,f,2024-02-09_16h20.31.132,eye_track_exp,2023.1.3,120.10242128822651,
90,0,180,0,0,0,-168,0,180,-168,f,present,resp,freq_top,,,,,0,81,81,720,,,,,,,,,,,0.7481373774296199,,,,,,,,,,,,,,,,,,,,,,,630.0657800589943,632.0035172883363,632.0035313998269,632.751835375384,632.7518488454407,678.7591396739008,678.7591396739008,,,,,633.6529311644845,f,1,0.8645394212144311,None,633.6534423852027,633.6534811917954,633.6534901718296,633.6539600202341,,,,,,,di,001,1,23,f,2024-02-09_16h20.31.132,eye_track_exp,2023.1.3,120.10242128822651,
0,12,0,270,180,168,0,0,0,0,None,present,inhibit,freq_top,,,,,0,82,82,258,,,,,,,,,,,1.078554037246319,,,,,,,,,,,,,,,,,,,,,,,633.6544333965066,634.4682570099649,634.4682717628821,635.5501382765469,635.550152067317,681.5567520743061,681.5567520743061,683.0471763073256,683.0471763073256,683.0471763073256,683.0471763073256,638.5813686026486,None,1,,,638.5817589135695,638.5817954751546,638.5818041344755,640.5465020027113,684.5375700723562,684.5375700723562,,,,,di,001,1,23,f,2024-02-09_16h20.31.132,eye_track_exp,2023.1.3,120.10242128822651,
168,0,0,180,180,0,168,180,0,180,f,abs,resp,freq_top,,,,,0,83,83,856,,,,,,,,,,,0.7545046293852604,,,,,,,,,,,,,,,,,,,,,,,640.547030221358,640.8044106096604,640.8044247211474,641.5616933400524,641.5617071308261,687.5683209285853,687.5683209285853,,,,,642.629127329561,f,1,1.031107574730413,None,642.6296379088453,642.6296767154381,642.6296856954759,642.630160354609,,,,,,,di,001,1,23,f,2024-02-09_16h20.31.132,eye_track_exp,2023.1.3,120.10242128822651,
180,12,180,270,180,0,180,0,0,-168,None,present,inhibit,freq_top,,,,,0,84,84,330,,,,,,,,,,,0.9987333932314335,,,,,,,,,,,,,,,,,,,,,,,642.6306427109193,643.593068950333,643.5930833825369,644.5920702418553,644.5920843533459,690.599076274837,690.599076274837,692.0895139779095,692.0895139779095,692.0895139779095,692.0895139779095,647.623934622763,None,1,,,647.6243085771894,647.6243457802011,647.624354439522,647.624997474366,693.5798715020755,693.5798715020755,,,,,di,001,1,23,f,2024-02-09_16h20.31.132,eye_track_exp,2023.1.3,120.10242128822651,
270,180,180,180,12,0,168,180,180,180,None,present,inhibit,freq_top,,,,,0,85,85,15,,,,,,,,,,,0.981568898316121,,,,,,,,,,,,,,,,,,,,,,,647.6254839999783,647.9479363071587,647.9479504186493,648.9304348551195,648.9304489666065,694.9370781587204,694.9370781587204,696.4274738480453,696.4274738480453,696.4274738480453,696.4274738480453,651.9616436932738,None,1,,,651.9620526057042,651.962091412297,651.9621000716179,651.9625779379094,697.9178442008342,697.9178442008342,,,,,di,001,1,23,f,2024-02-09_16h20.31.132,eye_track_exp,2023.1.3,120.10242128822651,
90,180,180,0,180,-168,180,0,12,180,None,present,inhibit,freq_top,,,,,0,86,86,92,,,,,,,,,,,0.7087091843325317,,,,,,,,,,,,,,,,,,,,,,,651.9630586906424,652.2527175037321,652.2527393123928,652.9605689751916,652.9605827659616,698.9669919471489,698.9669919471489,700.4573825050247,700.4573825050247,700.4573825050247,700.4573825050247,655.9911071969582,None,1,,,655.9914997528904,655.9915366351888,655.9915456152266,655.9920096907445,701.9477717800401,701.9477717800401,,,,,di,001,1,23,f,2024-02-09_16h20.31.132,eye_track_exp,2023.1.3,120.10242128822651,
180,12,0,270,180,180,0,180,12,180,j,present,resp,freq_top,,,,,0,87,87,497,,,,,,,,,,,0.9551502800229748,,,,,,,,,,,,,,,,,,,,,,,655.9925019892398,656.2579721086477,656.2579855787008,657.2150423970052,657.2150558670619,703.2216776827117,703.2216776827117,704.7120900492519,704.7120900492519,704.7120900492519,704.7120900492519,658.7733714300775,j,1,1.5217088427780254,None,658.7738746329014,658.773912477347,658.7739211366679,658.7743813636007,,,,,,,di,001,1,23,f,2024-02-09_16h20.31.132,eye_track_exp,2023.1.3,120.10242128822651,
0,90,0,0,0,-12,0,-12,0,0,j,present,resp,freq_top,,,,,0,88,88,694,,,,,,,,,,,1.0480940837470811,,,,,,,,,,,,,,,,,,,,,,,658.77485441916,658.9885921449713,658.9886059357414,660.037773566426,660.0377873571997,706.0442962809502,706.0442962809502,,,,,661.4040449296954,j,1,1.3223273108014837,None,661.4045583954212,661.4045959191535,661.4046045784744,661.4050609568185,,,,,,,di,001,1,23,f,2024-02-09_16h20.31.132,eye_track_exp,2023.1.3,120.10242128822651,
180,270,0,12,180,0,0,180,0,-168,None,present,inhibit,freq_top,,,,,0,89,89,315,,,,,,,,,,,1.0084927638483348,,,,,,,,,,,,,,,,,,,,,,,661.4055461995704,662.0363325910912,662.0363467025782,663.051818345386,663.051832456873,709.0584000715826,709.0584000715826,710.5488066652397,710.5488066652397,710.5488066652397,710.5488066652397,666.0827183343827,None,1,,,666.0830845916353,666.0831394340094,666.0831480933302,666.0836769534071,712.0392087688779,712.0392087688779,,,,,di,001,1,23,f,2024-02-09_16h20.31.132,eye_track_exp,2023.1.3,120.10242128822651,
12,0,270,0,180,180,180,180,12,0,j,present,resp,freq_top,,,,,0,90,90,619,,,,,,,,,,,0.705997142863134,,,,,,,,,,,,,,,,,,,,,,,666.0841641204534,667.0652960991065,667.0653108520237,667.7726876643501,667.772701775837,713.7794005632386,713.7794005632386,715.278121388943,715.278121388943,715.278121388943,715.278121388943,669.4139210468675,j,1,1.6031141673629463,None,669.4144701120313,669.4145082771902,669.414517257228,669.414993840659,,,,,,,di,001,1,23,f,2024-02-09_16h20.31.132,eye_track_exp,2023.1.3,120.10242128822651,
180,0,180,168,180,0,180,180,168,180,f,abs,resp,freq_top,,,,,0,91,91,832,,,,,,,,,,,1.0454146940951752,,,,,,,,,,,,,,,,,,,,,,,669.4154668962146,669.6547967673177,669.6548108788047,670.7034105221028,670.7034246335934,716.7102491415244,716.7102491415244,,,,,671.8869971299173,f,1,1.1363789530732902,None,671.8875125199374,671.8875503643831,671.8875593444209,671.8881465747436,,,,,,,di,001,1,23,f,2024-02-09_16h20.31.132,eye_track_exp,2023.1.3,120.10242128822651,
12,0,180,180,180,180,168,180,0,180,None,abs,inhibit,freq_top,,,,,0,92,92,362,,,,,,,,,,,0.8571534089441504,,,,,,,,,,,,,,,,,,,,,,,671.8886302139144,672.4022062669792,672.4022210198964,673.2596837679739,673.2596975587476,719.2747105781964,719.2747105781964,720.7651274347518,720.7651274347518,720.7651274347518,720.7651274347518,676.2993649509772,None,1,,,676.2997523754639,676.2997892577587,676.2997975963663,676.3001542321508,722.2388920942612,722.2388920942612,,,,,di,001,1,23,f,2024-02-09_16h20.31.132,eye_track_exp,2023.1.3,120.10242128822651,
180,180,180,0,0,180,168,180,12,180,None,abs,inhibit,freq_top,,,,,0,93,93,356,,,,,,,,,,,0.9646690654639618,,,,,,,,,,,,,,,,,,,,,,,676.3006362677443,676.5735623841647,676.5735771370819,677.5392942395956,677.5393080303693,723.5460898831225,723.5460898831225,725.0448293103291,725.0448293103291,725.0448293103291,725.0448293103291,680.5701554220032,None,1,,,680.5705338664484,680.5705723523242,680.570581332362,680.5710457285968,726.51858306551,726.51858306551,,,,,di,001,1,23,f,2024-02-09_16h20.31.132,eye_track_exp,2023.1.3,120.10242128822651,
-12,0,12,180,90,180,180,0,180,180,j,present,resp,freq_top,,,,,0,94,94,458,,,,,,,,,,,0.9379068121309868,,,,,,,,,,,,,,,,,,,,,,,680.5715248777524,680.5874545024817,680.5874663689574,681.5274720199668,681.5274861314574,727.5343795932495,727.5343795932495,729.0331110025654,729.0331110025654,729.0331110025654,729.0331110025654,683.2606953050781,j,1,1.6872603277406597,None,683.2612751589404,683.2613142862465,683.2613232662843,683.2617953596964,,,,,,,di,001,1,23,f,2024-02-09_16h20.31.132,eye_track_exp,2023.1.3,120.10242128822651,
0,270,180,180,-168,180,180,180,0,-168,f,present,resp,freq_top,,,,,0,95,95,721,,,,,,,,,,,0.7645077364900752,,,,,,,,,,,,,,,,,,,,,,,683.2622690566823,683.9174147626072,683.9174291948111,684.6834392389828,684.6834533504698,730.6900511124513,730.6900511124513,732.1804237102479,732.1804237102479,732.1804237102479,732.1804237102479,687.7145191494492,None,0,,,687.7149222890002,688.2210676815848,688.2210795480605,688.2215564522085,733.6708591683127,733.6708591683127,733.7041516959289,,,,di,001,1,23,f,2024-02-09_16h20.31.132,eye_track_exp,2023.1.3,120.10242128822651,
180,0,90,180,12,0,180,180,12,180,j,present,resp,freq_top,,,,,0,96,96,495,,,,,,,,,,,1.0949194638739261,,,,,,,,,,,,,,,,,,,,,,,688.2220878780099,688.497188125697,688.497202237184,689.5957170993097,689.5957308900797,735.6025412865238,735.6025412865238,737.0929190157731,737.0929190157731,737.0929190157731,737.0929190157731,691.2536177525108,j,1,1.6204507715665386,None,691.254142763999,691.2548772027985,691.2548871449799,691.2554804688989,,,,,,,di,001,1,23,f,2024-02-09_16h20.31.132,eye_track_exp,2023.1.3,120.10242128822651,
180,0,168,0,0,180,180,0,168,0,f,abs,resp,freq_top,,,,,0,97,97,945,,,,,,,,,,,0.8865064439551347,,,,,,,,,,,,,,,,,,,,,,,691.255972125964,691.444649773719,691.4446635644927,692.3346847221037,692.3346991543076,738.3418726008458,738.3418726008458,739.8322775909255,739.8322775909255,739.8322775909255,739.8322775909255,693.8605659925342,f,1,1.4872514759881597,None,693.8610813825544,693.8611189062831,693.8611275656076,693.8615938861367,,,,,,,di,001,1,23,f,2024-02-09_16h20.31.132,eye_track_exp,2023.1.3,120.10242128822651,
90,180,180,-168,0,180,-12,180,0,180,None,present,inhibit,freq_top,,,,,0,98,98,134,,,,,,,,,,,1.0607426811754197,,,,,,,,,,,,,,,,,,,,,,,693.8620669416923,694.134517116112,694.1345312276026,695.199177236118,695.1991910268916,741.20611046665,741.20611046665,742.7048441209772,742.7048441209772,742.7048441209772,742.7048441209772,698.2301426511076,None,1,,,698.2305201334057,698.2305582985682,698.2305682407496,698.2311243616568,744.1785728603354,744.1785728603354,,,,,di,001,1,23,f,2024-02-09_16h20.31.132,eye_track_exp,2023.1.3,120.10242128822651,
180,0,168,0,270,180,180,180,168,0,f,present,resp,freq_top,,,,,0,99,99,614,,,,,,,,,,,0.9842161388813195,,,,,,,,,,,,,,,,,,,,,,,698.2316519388733,698.9301295338373,698.9301439660412,699.9202954304128,699.9203095418998,745.9270965261021,745.9270965261021,,,,,701.1708615736825,f,1,1.2137163205807155,None,701.1713894716122,701.1714285989183,701.171437899673,701.1719160866814,,,,,,,di,001,1,23,f,2024-02-09_16h20.31.132,eye_track_exp,2023.1.3,120.10242128822651,
180,180,180,0,0,0,-168,0,0,168,f,abs,resp,freq_top,,,,,0,100,100,936,,,,,,,,,,,0.9406885617723038,,,,,,,,,,,,,,,,,,,,,,,701.1723891422371,701.7938933819387,701.7939084555728,702.7347056327635,702.7347194235335,748.7413608028401,748.7413608028401,,,,,703.4685126203221,f,1,0.6876374893217871,None,703.4690231996065,703.4690626476295,703.4690716276673,703.4696315971632,,,,,,,di,001,1,23,f,2024-02-09_16h20.31.132,eye_track_exp,2023.1.3,120.10242128822651,
12,0,90,180,180,180,0,0,168,0,None,present,inhibit,freq_top,,,,,0,101,101,201,,,,,,,,,,,0.9582033162382033,,,,,,,,,,,,,,,,,,,,,,,703.4701094634547,703.7006549333928,703.7006690448798,704.6580363159155,704.6580504274025,750.6647367068981,750.6647367068981,752.1551230954683,752.1551230954683,752.1551230954683,752.1551230954683,707.6892890921117,None,1,,,707.6896633672513,707.689701211697,707.6897098710178,707.6901556657467,753.6455415556047,753.6455415556047,,,,,di,001,1,23,f,2024-02-09_16h20.31.132,eye_track_exp,2023.1.3,120.10242128822651,
0,0,0,0,168,0,0,0,0,168,f,abs,resp,freq_top,,,,,0,102,102,930,,,,,,,,,,,0.9416068819043885,,,,,,,,,,,,,,,,,,,,,,,707.6906344941854,707.9719101213705,707.9719239121405,708.9129202537406,708.912935648088,754.9194205181666,754.9194205181666,,,,,709.6967271290487,f,1,0.7337076484327554,None,709.6972332183141,709.6972723456238,709.6972813256616,709.697757909089,,,,,,,di,001,1,23,f,2024-02-09_16h20.31.132,eye_track_exp,2023.1.3,120.10242128822651,
180,270,0,180,180,12,180,0,0,-168,None,present,inhibit,freq_top,,,,,0,103,103,323,,,,,,,,,,,0.8236286933943665,,,,,,,,,,,,,,,,,,,,,,,709.6982389825389,709.9543708248857,709.9543852570896,710.7778361123892,710.7778499031629,756.792869016208,756.792869016208,758.2832688748349,758.2832688748349,758.2832688748349,758.2832688748349,713.8178052980329,None,1,,,713.8182036268481,713.8182408298599,713.8182494891807,713.8187129232683,759.7570101221063,759.7570101221063,,,,,di,001,1,23,f,2024-02-09_16h20.31.132,eye_track_exp,2023.1.3,120.10242128822651,
180,90,180,-168,180,12,0,0,0,0,None,present,inhibit,freq_top,,,,,0,104,104,259,,,,,,,,,,,0.8849240721027554,,,,,,,,,,,,,,,,,,,,,,,713.8191952795823,713.9917637018552,713.9917778133422,714.8821777361154,714.8821915268854,760.8893887063823,760.8893887063823,762.3798020350696,762.3798020350696,762.3798020350696,762.3798020350696,717.9137868273756,None,1,,,717.9141755347227,717.9142120963043,717.9142207556251,717.9147678964946,763.87018906507,763.87018906507,,,,,di,001,1,23,f,2024-02-09_16h20.31.132,eye_track_exp,2023.1.3,120.10242128822651,
270,180,180,-12,180,-12,180,0,180,180,j,present,resp,freq_top,,,,,0,105,105,463,,,,,,,,,,,0.9870876182663552,,,,,,,,,,,,,,,,,,,,,,,717.9152448006389,718.3970709682762,718.3970854004801,719.3873651511058,719.3873795833097,765.4022524500251,765.4022524500251,,,,,720.3962874599893,j,1,0.9538074102383689,None,720.3968031707263,720.3968419773155,720.3968509573533,720.3973320308032,,,,,,,di,001,1,23,f,2024-02-09_16h20.31.132,eye_track_exp,2023.1.3,120.10242128822651,
270,180,180,180,180,-12,180,180,-12,180,j,present,resp,freq_top,,,,,0,106,106,543,,,,,,,,,,,0.7121310768741389,,,,,,,,,,,,,,,,,,,,,,,720.3978095763778,720.644877353534,720.6448905028737,721.360616184531,721.3606299753046,767.367221002256,767.367221002256,,,,,722.3276379582348,j,1,0.9254513376290561,None,722.3281514239643,722.3281899098401,722.3281992105913,722.3286401945879,,,,,,,di,001,1,23,f,2024-02-09_16h20.31.132,eye_track_exp,2023.1.3,120.10242128822651,
0,270,180,180,180,12,0,0,0,12,j,present,resp,freq_top,,,,,0,107,107,585,,,,,,,,,,,0.8688020547697451,,,,,,,,,,,,,,,,,,,,,,,722.3291174194455,722.6591690835266,722.6591831950172,723.533318345224,723.5333318152807,769.540368316244,769.540368316244,,,,,724.4009933204579,j,1,0.8320461169569171,None,724.4015151247913,724.4015545728143,724.4015638735655,724.4020285905171,,,,,,,di,001,1,23,f,2024-02-09_16h20.31.132,eye_track_exp,2023.1.3,120.10242128822651,
90,0,168,0,12,0,0,180,180,180,None,present,inhibit,freq_top,,,,,0,108,108,23,,,,,,,,,,,0.9541099844951453,,,,,,,,,,,,,,,,,,,,,,,724.4025054946615,724.7916172630976,724.7916313745845,725.7485692073897,725.7485829981597,771.7551525371637,771.7551525371637,,,,,726.6823058299378,j,0,0.8885815478570294,None,726.6828484807884,727.1879650176234,727.1879765633857,727.1886625741245,,,772.6710583327222,,,,di,001,1,23,f,2024-02-09_16h20.31.132,eye_track_exp,2023.1.3,120.10242128822651,
180,180,168,0,0,0,0,168,0,180,f,abs,resp,freq_top,,,,,0,109,109,873,,,,,,,,,,,0.9320637206617067,,,,,,,,,,,,,,,,,,,,,,,727.1891984899448,727.1900079761981,727.1900188805303,728.1209498827302,728.1209639942208,774.1281393650534,774.1281393650534,,,,,729.1558398949091,f,1,0.9957137182973383,None,729.1563437391669,729.1570778572495,729.1570881201478,729.1576567489647,,,,,,,di,001,1,23,f,2024-02-09_16h20.31.132,eye_track_exp,2023.1.3,120.10242128822651,
0,12,180,0,270,0,180,180,12,180,j,present,resp,freq_top,,,,,0,110,110,496,,,,,,,,,,,1.0628228526191998,,,,,,,,,,,,,,,,,,,,,,,729.1581484060298,729.4287695392013,729.4287839714052,730.4941948867054,730.4942089981923,776.5011281172337,776.5011281172337,,,,,731.4782639791156,j,1,0.9426170004044252,None,731.4787630126375,731.4788005363662,731.478809516404,731.4792758369331,,,,,,,di,001,1,23,f,2024-02-09_16h20.31.132,eye_track_exp,2023.1.3,120.10242128822651,
12,0,180,0,0,180,180,180,168,0,None,abs,inhibit,freq_top,,,,,0,111,111,376,,,,,,,,,,,1.0154385469359937,,,,,,,,,,,,,,,,,,,,,,,731.4797434403263,731.7016699983687,731.7016834684255,732.7174405481419,732.7174546596325,778.7325606866143,778.7325606866143,780.222959903811,780.222959903811,780.222959903811,780.222959903811,735.756788507606,None,1,,,735.7571768942362,735.7572134558177,735.7572217944253,735.7577663695665,781.6967386748074,781.6967386748074,,,,,di,001,1,23,f,2024-02-09_16h20.31.132,eye_track_exp,2023.1.3,120.10242128822651,
270,180,0,0,12,0,0,12,0,180,j,present,resp,freq_top,,,,,0,112,112,524,,,,,,,,,,,0.810153639169089,,,,,,,,,,,,,,,,,,,,,,,735.7582554609071,735.758989899703,735.758999841888,736.5724469351953,736.5724604052521,782.5793009489644,782.5793009489644,,,,,737.9232476178076,j,1,1.3123594689568563,None,737.9237604421032,737.9237986072621,737.9238075873,737.924264286361,,,,,,,di,001,1,23,f,2024-02-09_16h20.31.132,eye_track_exp,2023.1.3,120.10242128822651,
270,180,180,180,168,180,12,180,0,180,None,present,inhibit,freq_top,,,,,0,113,113,115,,,,,,,,,,,1.0937443713903834,,,,,,,,,,,,,,,,,,,,,,,737.9247479255318,738.5630685686847,738.5630836423188,739.6614605967188,739.6614743874925,785.668325835537,785.668325835537,787.1587471821113,787.1587471821113,787.1587471821113,787.1587471821113,742.6932662866639,None,1,,,742.6936405618071,742.6936966870417,742.6937056670795,742.694149858231,788.649128118519,788.649128118519,,,,,di,001,1,23,f,2024-02-09_16h20.31.132,eye_track_exp,2023.1.3,120.10242128822651,
0,180,180,180,168,0,0,0,0,12,None,abs,inhibit,freq_top,,,,,0,114,114,345,,,,,,,,,,,0.9533362594445391,,,,,,,,,,,,,,,,,,,,,,,742.6946277245224,742.6953788405299,742.6953887827149,743.6497127831171,743.6497262531739,789.6566158663773,789.6566158663773,791.1470173285852,791.1470173285852,791.1470173285852,791.1470173285852,746.6809245077093,None,1,,,746.681301669294,746.6813404758868,746.6813491352077,746.6818250772048,792.6374300158386,792.6374300158386,,,,,di,001,1,23,f,2024-02-09_16h20.31.132,eye_track_exp,2023.1.3,120.10242128822651,
180,0,168,0,0,0,12,0,0,0,None,abs,inhibit,freq_top,,,,,0,115,115,386,,,,,,,,,,,1.0462996524794859,,,,,,,,,,,,,,,,,,,,,,,746.682316413553,746.7065714953751,746.7065840032847,747.7544575463908,747.7544713371644,793.7614639000858,793.7614639000858,795.2601869707978,795.2601869707978,795.2601869707978,795.2601869707978,750.7862016589352,None,1,,,750.78659261129,750.7866301350186,750.7866391150565,750.7869925436826,796.7339477817222,796.7339477817222,,,,,di,001,1,23,f,2024-02-09_16h20.31.132,eye_track_exp,2023.1.3,120.10242128822651,
0,0,168,0,0,0,0,0,180,168,f,abs,resp,freq_top,,,,,0,116,116,899,,,,,,,,,,,0.7890709633656039,,,,,,,,,,,,,,,,,,,,,,,750.7874896529138,751.0357742251763,751.035787695233,751.826357821792,751.826371933279,797.8330181233177,797.8330181233177,,,,,753.1425898492889,j,0,1.2740419688234397,None,753.1431081257506,753.6488231179537,753.6488353051463,753.6499953335879,,,799.1319109808865,,,,di,001,1,23,f,2024-02-09_16h20.31.132,eye_track_exp,2023.1.3,120.10242128822651,
90,0,0,0,180,-168,0,-168,0,0,f,present,resp,freq_top,,,,,0,117,117,684,,,,,,,,,,,0.8722439913608514,,,,,,,,,,,,,,,,,,,,,,,753.6505104028947,754.5414167356503,754.5414314885675,755.4145804382097,755.4145945496966,801.4216249570636,801.4216249570636,,,,,756.6319072926599,f,1,1.173264778630255,None,756.6325063894583,756.6332449975598,756.6332552604581,756.6338142678069,,,,,,,di,001,1,23,f,2024-02-09_16h20.31.132,eye_track_exp,2023.1.3,120.10242128822651,
180,180,-12,180,90,180,0,180,0,-12,j,present,resp,freq_top,,,,,0,118,118,739,,,,,,,,,,,0.7428399291491644,,,,,,,,,,,,,,,,,,,,,,,756.6342914926681,756.9143118388674,756.9143253089242,757.6628765562346,757.6628906677215,803.6697299285734,803.6697299285734,,,,,758.7460782090748,j,1,1.0376735858662869,None,758.7466657601108,758.7467045667036,758.7467132260244,758.7471702458024,,,,,,,di,001,1,23,f,2024-02-09_16h20.31.132,eye_track_exp,2023.1.3,120.10242128822651,
180,180,168,180,0,0,180,0,0,168,f,abs,resp,freq_top,,,,,0,119,119,919,,,,,,,,,,,0.903524853548896,,,,,,,,,,,,,,,,,,,,,,,758.74764747066,758.9542226542617,758.9542364450353,759.8608665030806,759.8608799731373,805.867855217417,805.867855217417,,,,,761.0108318497587,f,1,1.110423436974088,None,761.0113475604958,761.0113866878019,761.0113956678397,761.0122664107803,,,,,,,di,001,1,23,f,2024-02-09_16h20.31.132,eye_track_exp,2023.1.3,120.10242128822651,
180,180,180,-168,180,180,-168,180,180,180,f,abs,resp,freq_top,,,,,0,120,120,768,,,,,,,,,,,1.051677162744959,,,,,,,,,,,,,,,,,,,,,,,761.0127535778265,761.8266894417538,761.8267048361049,762.8833589317874,762.8833730432743,808.89030018021,808.89030018021,,,,,763.8174246085764,f,1,0.8882393442763714,None,763.817941602174,763.8179797673365,763.8179884266574,763.818560583346,,,,,,,di,001,1,23,f,2024-02-09_16h20.31.132,eye_track_exp,2023.1.3,120.10242128822651,
168,0,168,180,0,0,180,180,0,180,f,abs,resp,freq_top,,,,,0,121,121,845,,,,,,,,,,,1.0355080990621044,,,,,,,,,,,,,,,,,,,,,,,763.819021130992,764.5321477331672,764.5321637689485,765.5730745756882,765.573088045745,811.5796508497187,811.5796508497187,,,,,766.6563240151554,f,1,1.0467806269516586,None,766.6569067554592,766.6569462034822,766.65695518352,766.6576373456701,,,,,,,di,001,1,23,f,2024-02-09_16h20.31.132,eye_track_exp,2023.1.3,120.10242128822651,
270,180,0,12,0,180,0,180,168,180,None,present,inhibit,freq_top,,,,,0,122,122,74,,,,,,,,,,,1.052694053683176,,,,,,,,,,,,,,,,,,,,,,,766.6581171362559,767.4381498300063,767.4381639414933,768.4954857671219,768.4955001993258,814.5021993074479,814.5021993074479,816.0009140395523,816.0009140395523,816.0009140395523,816.0009140395523,771.5264566342776,None,1,,,771.5268466244852,771.5268838275006,771.5268924868215,771.5274611156383,817.4746546453898,817.4746546453898,,,,,di,001,1,23,f,2024-02-09_16h20.31.132,eye_track_exp,2023.1.3,120.10242128822651,
0,90,180,180,180,180,168,0,168,0,f,present,resp,freq_top,,,,,0,123,123,615,,,,,,,,,,,0.8949821880411102,,,,,,,,,,,,,,,,,,,,,,,771.5279514898393,771.7841375331263,771.7841510031831,772.6834626512245,772.6834764419946,818.69028298985,818.69028298985,820.1806959978203,820.1806959978203,820.1806959978203,820.1806959978203,774.5083653861911,f,1,1.7762290890750592,None,774.5088721168868,774.5089109234796,774.5089195828004,774.5092797464567,,,,,,,di,001,1,23,f,2024-02-09_16h20.31.132,eye_track_exp,2023.1.3,120.10242128822651,
270,180,0,0,0,12,180,180,168,180,None,present,inhibit,freq_top,,,,,0,124,124,67,,,,,,,,,,,0.8688606857546736,,,,,,,,,,,,,,,,,,,,,,,774.5097528020124,774.7990283599211,774.7990424714117,775.6727100182288,775.6727238089989,821.6794383114684,821.6794383114684,823.1698160407213,823.1698160407213,823.1698160407213,823.1698160407213,778.7038701076053,None,1,,,778.704260097813,778.7042979422586,778.7043066015794,781.5015896270306,824.6602181443595,824.6602181443595,,,,,di,001,1,23,f,2024-02-09_16h20.31.132,eye_track_exp,2023.1.3,120.10242128822651,
180,12,0,270,180,0,180,0,168,180,None,present,inhibit,freq_top,,,,,0,125,125,75,,,,,,,,,,,0.7347195698118196,,,,,,,,,,,,,,,,,,,,,,,781.5021236185603,781.78460641938,781.7846205308706,782.5251182879438,782.5251327201477,828.5319411922974,828.5319411922974,830.0223391266336,830.0223391266336,830.0223391266336,830.0223391266336,785.556179276191,None,1,,,785.5565394398473,785.5565779257231,785.5565875471912,785.5570561127279,831.5127543796116,831.5127543796116,,,,,di,001,1,23,f,2024-02-09_16h20.31.132,eye_track_exp,2023.1.3,120.10242128822651,
0,0,270,0,168,0,0,-12,0,0,None,present,inhibit,freq_top,,,,,0,126,126,301,,,,,,,,,,,1.0424779821893901,,,,,,,,,,,,,,,,,,,,,,,785.5575452040684,785.7810201771827,785.7810336472394,786.8300476551376,786.8300617666246,832.8365924990394,832.8365924990394,834.3270423893046,834.3270423893046,834.3270423893046,834.3270423893046,789.8608353936652,None,1,,,789.8612189695632,789.861255851858,789.8612645111825,789.8618244806748,835.8174011963347,835.8174011963347,,,,,di,001,1,23,f,2024-02-09_16h20.31.132,eye_track_exp,2023.1.3,120.10242128822651,
0,0,168,180,0,180,180,168,180,180,f,abs,resp,freq_top,,,,,0,127,127,777,,,,,,,,,,,0.8579134771850698,,,,,,,,,,,,,,,,,,,,,,,789.8623196656117,790.4191163193937,790.4191304308806,791.2759244868648,791.2759382776385,837.2911658558442,837.2911658558442,838.7815637901767,838.7815637901767,838.7815637901767,838.7815637901767,792.8089272479046,f,1,1.4780251286865678,None,792.8094195464,792.8094570701287,792.8094657294532,792.8099278806767,,,,,,,di,001,1,23,f,2024-02-09_16h20.31.132,eye_track_exp,2023.1.3,120.10242128822651,
0,270,0,-168,0,0,-168,0,180,0,f,present,resp,freq_top,,,,,0,128,128,607,,,,,,,,,,,0.7024748932652077,,,,,,,,,,,,,,,,,,,,,,,792.8103877868925,793.8324148572174,793.8324292894213,794.5399802503343,794.5399940411044,840.5550516400253,840.5550516400253,,,,,795.5660877856426,f,1,0.9819431512041774,None,795.5666006099382,795.5666406993914,795.5666496794292,795.5671275457207,,,,,,,di,001,1,23,f,2024-02-09_16h20.31.132,eye_track_exp,2023.1.3,120.10242128822651,
0,-168,0,90,0,0,0,12,0,0,None,present,inhibit,freq_top,,,,,0,129,129,234,,,,,,,,,,,1.0606986548113508,,,,,,,,,,,,,,,,,,,,,,,795.5676233720878,796.1391367040778,796.1391511362817,797.2040261357615,797.2040405679618,843.2111347977407,843.2111347977407,844.7015170170089,844.7015170170089,844.7015170170089,844.7015170170089,800.2360380458558,None,1,,,800.2364152074406,800.2364543347467,800.2364633147845,800.2369119959512,846.1919316285566,846.1919316285566,,,,,di,001,1,23,f,2024-02-09_16h20.31.132,eye_track_exp,2023.1.3,120.10242128822651,
270,180,12,180,180,0,12,180,0,0,j,present,resp,freq_top,,,,,0,130,130,637,,,,,,,,,,,0.8021329021996602,,,,,,,,,,,,,,,,,,,,,,,800.2373889000992,800.4355093782069,800.4355234896939,801.2424571692318,801.2424706392885,847.2493631389334,847.2493631389334,848.7397793540586,848.7397793540586,848.7397793540586,848.7397793540586,804.2735877527703,None,0,,,804.2739758186835,804.7731741899624,804.7731847735777,804.7734490432595,850.2301676669231,850.2301676669231,850.2551401896126,850.7547468318917,,,di,001,1,23,f,2024-02-09_16h20.31.132,eye_track_exp,2023.1.3,120.10242128822651,
180,180,180,180,168,180,168,180,180,180,f,abs,resp,freq_top,,,,,0,131,131,751,,,,,,,,,,,0.8665726409630232,,,,,,,,,,,,,,,,,,,,,,,804.773970206159,804.9734784208122,804.9734925322991,805.8387130707997,805.8387271822867,851.8454628519903,851.8454628519903,,,,,806.8223918522854,f,1,0.9390249853240675,None,806.8229280888227,806.8237006927811,806.8237106349625,806.823964321029,,,,,,,di,001,1,23,f,2024-02-09_16h20.31.132,eye_track_exp,2023.1.3,120.10242128822651,
180,12,180,180,180,-168,180,180,180,180,None,abs,inhibit,freq_top,,,,,0,132,132,354,,,,,,,,,,,1.047953872696286,,,,,,,,,,,,,,,,,,,,,,,806.8244283965469,810.1527754570452,810.1527898892491,811.200413274164,811.2004398935642,857.207571967785,857.207571967785,858.6979885036271,858.6979885036271,858.6979885036271,858.6979885036271,814.2317837529954,None,1,,,814.2321474445234,814.2321843268219,814.2321933068597,814.2326410258793,860.1883992665862,860.1883992665862,,,,,di,001,1,23,f,2024-02-09_16h20.31.132,eye_track_exp,2023.1.3,120.10242128822651,
12,0,270,180,0,180,168,180,0,0,None,present,inhibit,freq_top,,,,,0,133,133,217,,,,,,,,,,,0.8751695944066058,,,,,,,,,,,,,,,,,,,,,,,814.233131400084,814.590068014164,814.5900824463679,815.463813815597,815.4638372278387,861.478946141262,861.478946141262,862.961005789879,862.961005789879,862.961005789879,862.961005789879,818.5031806972838,None,1,,,818.5035354087704,818.5035742153632,818.503583195401,818.5040321972847,864.4514457379628,864.4514457379628,,,,,di,001,1,23,f,2024-02-09_16h20.31.132,eye_track_exp,2023.1.3,120.10242128822651,
90,180,12,180,168,180,0,180,0,180,None,present,inhibit,freq_top,,,,,0,134,134,122,,,,,,,,,,,0.9850473932445691,,,,,,,,,,,,,,,,,,,,,,,818.5045193643309,818.8199425470048,818.8199563377748,819.8098480224835,819.8098624546874,865.816896710643,865.816896710643,867.3073363380099,867.3073363380099,867.3073363380099,867.3073363380099,822.8417165726933,None,1,,,822.8421007900215,822.8421389551804,822.8421476145013,822.8427637092318,868.797738762365,868.797738762365,,,,,di,001,1,23,f,2024-02-09_16h20.31.132,eye_track_exp,2023.1.3,120.10242128822651,
0,0,180,180,270,180,12,0,-12,0,j,present,resp,freq_top,,,,,0,135,135,711,,,,,,,,,,,0.8280979170567684,,,,,,,,,,,,,,,,,,,,,,,822.8432521591385,823.4490121477465,823.4490272213807,824.2816348286942,824.2816665795399,870.296460229496,870.296460229496,871.7868562395379,871.7868562395379,871.7868562395379,871.7868562395379,826.3808135721738,f,0,2.0558745187008753,None,826.3813991989191,826.8866061775625,826.8866180440418,826.8872309316139,,,872.3696706282535,,,,di,001,1,23,f,2024-02-09_16h20.31.132,eye_track_exp,2023.1.3,120.10242128822651,
0,168,0,0,168,180,180,270,0,0,f,present,resp,freq_top,,,,,0,136,136,628,,,,,,,,,,,0.9572141197344783,,,,,,,,,,,,,,,,,,,,,,,826.8877623574153,827.8117078524338,827.8117219639244,828.7691629995534,828.7691767903234,874.7759669816842,874.7759669816842,,,,,830.1945201244271,f,1,1.3841141394623264,None,830.1950278172735,830.1957869511716,830.1957968933566,830.1963658428904,,,,,,,di,001,1,23,f,2024-02-09_16h20.31.132,eye_track_exp,2023.1.3,120.10242128822651,
168,0,180,180,180,180,0,168,180,180,f,abs,resp,freq_top,,,,,0,137,137,780,,,,,,,,,,,1.0391064172877955,,,,,,,,,,,,,,,,,,,,,,,830.1968552549442,831.4086468782989,831.4086613105028,832.4491596769367,832.4491737884273,878.4561833492771,878.4561833492771,,,,,833.4993048488686,f,1,1.0005481857333507,None,833.499816711017,833.4998548761796,833.4998638562174,833.5003401189279,,,,,,,di,001,1,23,f,2024-02-09_16h20.31.132,eye_track_exp,2023.1.3,120.10242128822651,
12,180,180,90,0,12,0,0,180,180,j,present,resp,freq_top,,,,,0,138,138,470,,,,,,,,,,,1.080762490762839,,,,,,,,,,,,,,,,,,,,,,,833.5008141366343,834.1398201490883,834.1398349020092,835.2219118051253,835.221925275182,881.2288556192725,881.2288556192725,,,,,836.2719668559657,j,1,1.0103316160857503,None,836.2724620409026,836.2724998853446,836.2725085446691,836.2729787137832,,,,,,,di,001,1,23,f,2024-02-09_16h20.31.132,eye_track_exp,2023.1.3,120.10242128822651,
180,180,0,180,-168,180,0,180,-168,180,f,abs,resp,freq_top,,,,,0,139,139,882,,,,,,,,,,,0.7340732578813217,,,,,,,,,,,,,,,,,,,,,,,836.2734575422219,837.0541310258086,837.0541460994427,837.7946900395691,837.7947038303391,883.8016601523959,883.8016601523959,885.2920340330602,885.2920340330602,885.2920340330602,885.2920340330602,839.5199101867947,f,1,1.6858440475079988,None,839.5204358397168,839.5204746463096,839.5204836263474,839.5211154361423,,,,,,,di,001,1,23,f,2024-02-09_16h20.31.132,eye_track_exp,2023.1.3,120.10242128822651,
0,0,0,0,168,0,0,168,0,0,f,abs,resp,freq_top,,,,,0,140,140,980,,,,,,,,,,,0.7714144418935089,,,,,,,,,,,,,,,,,,,,,,,839.5215971510188,839.7269414280272,839.7269552187972,840.5008234373854,840.500837548876,886.5076870726261,886.5076870726261,,,,,841.3847926910203,f,1,0.8354787363641663,None,841.3852785752024,841.3853177025085,841.3853266825463,841.3857859473319,,,,,,,di,001,1,23,f,2024-02-09_16h20.31.132,eye_track_exp,2023.1.3,120.10242128822651,
180,12,180,270,180,0,180,0,0,-168,None,present,inhibit,freq_top,,,,,0,141,141,327,,,,,,,,,,,0.8770755811350914,,,,,,,,,,,,,,,,,,,,,,,841.3862654172044,841.7253692799968,841.7253833914874,842.6075479782594,842.6075620897464,888.622564204863,888.622564204863,890.1129461034179,890.1129461034179,890.1129461034179,890.1129461034179,845.6470963849897,None,1,,,845.6474777158764,845.6475155603221,845.6475245403599,845.6481624437511,891.5867200636822,891.5867200636822,,,,,di,001,1,23,f,2024-02-09_16h20.31.132,eye_track_exp,2023.1.3,120.10242128822651,
12,0,90,180,180,180,0,0,168,0,None,present,inhibit,freq_top,,,,,0,142,142,199,,,,,,,,,,,0.7931489745954898,,,,,,,,,,,,,,,,,,,,,,,845.6486451207784,845.6494007268084,845.6494109897067,846.4457151910501,846.4457293025371,892.4526346308085,892.4526346308085,893.9430469973486,893.9430469973486,893.9430469973486,893.9430469973486,849.4776815595251,None,1,,,849.4781055455933,849.4781424278881,849.4781507664957,849.478609389851,895.4334327444885,895.4334327444885,,,,,di,001,1,23,f,2024-02-09_16h20.31.132,eye_track_exp,2023.1.3,120.10242128822651,
180,180,0,180,180,180,180,12,0,-168,None,abs,inhibit,freq_top,,,,,0,143,143,377,,,,,,,,,,,0.8468273048905474,,,,,,,,,,,,,,,,,,,,,,,849.4791218934297,849.7438011280865,849.7438152395735,850.5918970554158,850.5919111669027,896.5991016113694,896.5991016113694,898.0895348244267,898.0895348244267,898.0895348244267,898.0895348244267,853.6237819621201,None,1,,,853.6241738766221,853.6242110796375,853.6242197389583,853.6248743195647,899.5799176851251,899.5799176851251,,,,,di,001,1,23,f,2024-02-09_16h20.31.132,eye_track_exp,2023.1.3,120.10242128822651,
0,0,168,0,0,0,0,0,168,0,f,abs,resp,freq_top,,,,,0,144,144,950,,,,,,,,,,,0.8488530602777943,,,,,,,,,,,,,,,,,,,,,,,853.6253435265317,854.3148766832383,854.3148907947252,855.1636749778008,855.1636890892878,901.1785828025204,901.1785828025204,,,,,856.5884830375107,f,1,1.3815567530073167,None,856.5890170290404,856.5890564770634,856.5890654571012,856.5895301740493,,,,,,,di,001,1,23,f,2024-02-09_16h20.31.132,eye_track_exp,2023.1.3,120.10242128822651,
180,-168,180,90,12,0,0,0,0,180,None,present,inhibit,freq_top,,,,,0,145,145,136,,,,,,,,,,,0.7178335739231368,,,,,,,,,,,,,,,,,,,,,,,856.5900061160501,857.3782125683974,857.3782273213183,858.1024574193907,858.1024708894438,904.1093964228021,904.1093964228021,905.5997978850064,905.5997978850064,905.5997978850064,905.5997978850064,861.1338179560371,None,1,,,861.1342028147956,861.1342400178073,861.1342483564149,861.1347954972807,907.0902115344106,907.0902115344106,,,,,di,001,1,23,f,2024-02-09_16h20.31.132,eye_track_exp,2023.1.3,120.10242128822651,
270,180,-12,180,180,180,180,12,180,180,j,present,resp,freq_top,,,,,0,146,146,452,,,,,,,,,,,0.9837374422900365,,,,,,,,,,,,,,,,,,,,,,,861.1352836264741,861.3755278578428,861.3755422900467,862.3657518039472,862.3657655947172,908.3807786141697,908.3807786141697,,,,,863.6404197269621,j,1,1.2179430318974482,None,863.6409338341218,863.6409719992807,863.6409806586053,863.6414472998476,,,,,,,di,001,1,23,f,2024-02-09_16h20.31.132,eye_track_exp,2023.1.3,120.10242128822651,
