ori10,ori11,ori12,ori13,ori14,ori16,ori17,ori18,ori19,ori20,corrAns,distractor,responses,dist_freq,practice_trials.thisRepN,practice_trials.thisTrialN,practice_trials.thisN,practice_trials.thisIndex,trials.thisRepN,trials.thisTrialN,trials.thisN,trials.thisIndex,intro_2.started,intro_2.stopped,key_resp.keys,key_resp.rt,key_resp.duration,start_et_record_2.started,start_et_record_2.stopped,fix_check_3.started,fix_check_3.stopped,fix_practice_2.started,fixdur,fix_practice_2.stopped,practice_search_2.started,int14_2.started,per15_2.started,practice_search_2.stopped,response_2.keys,response_2.corr,response_2.rt,response_2.duration,feedback_4.started,text_feedback.started,feedback_4.stopped,pause_pract_2.started,pause_pract_2.stopped,text_feedback.stopped,stop_et_record_2.started,stop_et_record_2.stopped,break_3.started,break_3.stopped,key_resp_2.keys,key_resp_2.rt,key_resp_2.duration,fix_check_2.started,fix_check_2.stopped,fixation_2.started,fixation_2.stopped,search_displays_2.started,int14.started,per15.started,search_displays_2.stopped,response.keys,response.corr,response.rt,response.duration,feedback_6.started,feedback_6.stopped,pause_4.started,pause_4.stopped,int14.stopped,int14_3.started,per15.stopped,per15_3.started,int14_3.stopped,per15_3.stopped,text_feedback_2.started,text_feedback_2.stopped,end_2.started,end_2.stopped,participant,session,group,age,gender,date,expName,psychopyVersion,frameRate,
,,,,,,,,,,,,,,,,,,,,,,1.122490675697918e-05,50.206186463019094,space,50.194944827727795,None,,,,,,,,,,,,,,,,,,,,,,,,,,,,,,,,,,,,,,,,,,,,,,,,,,,,,,,ds,001,1,29,m,2024-02-06_13h32.24.549,eye_track_exp,2023.1.3,120.15807504518719,
90,0,0,12,0,12,180,180,180,0,j,present,resp,freq_top,0,0,0,32,,,,,,,,,,120.55268907072525,121.05458640067275,121.18792482263046,121.18936674207669,121.189380853388,0.9258367902197796,122.11938137294078,122.1194028606194,207.81622999641445,207.81622999641445,123.56086849989708,f,0,1.4059105353171049,None,123.56169144591553,209.2399852985793,124.06672758049382,124.06673912611217,124.06779009809287,,,,,,,,,,,,,,,,,,,,,,,,,,,,,,,,,,,ds,001,1,29,m,2024-02-06_13h32.24.549,eye_track_exp,2023.1.3,120.15807504518719,
180,0,180,12,0,180,180,0,12,180,j,abs,resp,freq_top,0,1,1,3,,,,,,,,,,,,124.0683170272855,124.06903830772023,124.06904921191534,0.9870981264222705,125.05839485116735,125.05840896247867,210.75536502434522,210.75536502434522,126.6171562757171,j,1,1.5234635313087779,None,126.6179628654429,212.2957153568911,127.12243550970379,127.12244673461049,127.1229749466496,,,,,,,,,,,,,,,,,,,,,,,,,,,,,,,,,,,ds,001,1,29,m,2024-02-06_13h32.24.549,eye_track_exp,2023.1.3,120.15807504518719,
90,0,0,12,0,180,180,180,0,12,j,present,resp,freq_top,0,2,2,36,,,,,,,,,,,,127.12351759071169,127.12453232227926,127.12454354718597,0.8620355507918753,127.98918945269281,127.98920260186924,213.6861727750471,213.6861727750471,131.0027911532341,None,0,,,131.0033171202919,216.68361926912388,131.49367107687908,131.49368198107413,131.4946755456748,,,,,,,,,,,,,,,,,,,,,,,,,,,,,,,,,,,ds,001,1,29,m,2024-02-06_13h32.24.549,eye_track_exp,2023.1.3,120.15807504518719,
0,0,180,0,0,0,168,0,180,168,f,abs,resp,freq_top,0,3,3,15,,,,,,,,,,,,131.49521947258336,131.49618000388705,131.4961909080821,0.8180355488128896,132.318626032932,132.3186407856665,218.0157873502357,218.0157873502357,134.47648863109373,f,1,2.1181664657559622,None,134.47705180069954,,134.47785229690453,134.4778705774669,134.47839077171557,,,,,,,,,,,,,,,,,,,,,,,,,,,,,,,,,,,ds,001,1,29,m,2024-02-06_13h32.24.549,eye_track_exp,2023.1.3,120.15807504518719,
12,0,0,-168,0,0,180,180,180,180,None,abs,inhibit,freq_top,0,4,4,27,,,,,,,,,,,,134.47890326888523,134.67529006762527,134.67530417893659,0.9213307948126395,135.59926377440377,135.59927724429178,221.29630482484976,221.29630482484976,138.6128500807872,None,1,,,138.61325706383377,224.2853461087738,139.1037925431982,139.10380280597008,139.1047986155521,,,,,,,,,,,,,,,,,,,,,,,,,,,,,,,,,,,ds,001,1,29,m,2024-02-06_13h32.24.549,eye_track_exp,2023.1.3,120.15807504518719,
0,0,0,0,168,0,0,12,0,0,None,abs,inhibit,freq_top,0,5,5,29,,,,,,,,,,,,139.10532907257254,139.10625689129097,139.10626779548602,1.0232931794617608,140.12914992819265,140.12916403950396,225.82573556813742,225.82573556813742,143.1339310970326,None,1,,,143.13431595097734,,143.1350420420864,143.13505230485816,143.13601476043164,,,,,,,,,,,,,,,,,,,,,,,,,,,,,,,,,,,ds,001,1,29,m,2024-02-06_13h32.24.549,eye_track_exp,2023.1.3,120.15807504518719,
0,180,0,-168,180,0,180,0,12,180,None,abs,inhibit,freq_top,0,6,6,24,,,,,,,,,,,,143.13649967640197,143.13721807043214,143.1372286539156,0.921629423806064,144.05851030735073,144.05852409795045,229.75568637738905,229.75568637738905,147.07226017666085,None,1,,,147.0728422682522,,147.07289261997664,147.07290256203692,147.07438392901247,,,,,,,,,,,,,,,,,,,,,,,,,,,,,,,,,,,ds,001,1,29,m,2024-02-06_13h32.24.549,eye_track_exp,2023.1.3,120.15807504518719,
180,12,180,12,180,90,180,180,0,180,j,present,resp,freq_top,0,7,7,37,,,,,,,,,,,,147.0749230452467,147.07605483655573,147.07606638217408,1.0470877572073154,148.12168183739539,148.1216962694183,233.8188502103548,233.8188502103548,149.72100526416057,f,0,1.56187067214546,None,149.7215591331293,235.39245737582206,150.22021952069008,150.22023042488513,150.220598281114,235.89206065554737,,,,,,,,,,,,,,,,,,,,,,,,,,,,,,,,,,ds,001,1,29,m,2024-02-06_13h32.24.549,eye_track_exp,2023.1.3,120.15807504518719,
0,270,0,0,12,0,180,180,180,12,j,present,resp,freq_top,0,8,8,42,,,,,,,,,,,,150.22112905884615,150.46230066970998,150.4623154224446,0.7688072910690558,151.23559988787918,151.2356143199022,236.93284170379974,236.93284170379974,152.68590049088118,j,1,1.4085560854754249,None,152.6864553219849,,152.68723080268342,152.68724106545528,152.68785298322746,,,,,,,,,,,,,,,,,,,,,,,,,,,,,,,,,,,ds,001,1,29,m,2024-02-06_13h32.24.549,eye_track_exp,2023.1.3,120.15807504518719,
0,180,0,0,180,168,180,0,0,168,f,abs,resp,freq_top,0,9,9,16,,,,,,,,,,,,152.68838857163382,152.92707081889864,152.92708525092155,1.0911596759748043,154.01652979763742,154.01654294681384,239.71380336400836,239.71380336400836,154.90013392917274,f,1,0.8348116554344642,None,154.9006335978777,,154.90067176256048,154.90068042177427,154.90115667853092,,,,,,,,,,,,,,,,,,,,,,,,,,,,,,,,,,,ds,001,1,29,m,2024-02-06_13h32.24.549,eye_track_exp,2023.1.3,120.15807504518719,
0,180,180,180,168,0,0,0,0,12,None,abs,inhibit,freq_top,0,10,10,31,,,,,,,,,,,,154.90163582169203,155.06681449334303,155.06682828394264,1.0916098486936385,156.15699860105588,156.15701431592538,241.8536121429117,241.8536121429117,159.17014360824953,None,1,,,159.17052782077099,,159.17056726830026,159.17057656893735,159.17161920241585,,,,,,,,,,,,,,,,,,,,,,,,,,,,,,,,,,,ds,001,1,29,m,2024-02-06_13h32.24.549,eye_track_exp,2023.1.3,120.15807504518719,
180,12,180,12,0,180,0,180,180,180,j,abs,resp,freq_top,0,11,11,5,,,,,,,,,,,,159.17210796692564,159.1729786989756,159.17298896174748,0.9295397869145585,160.10337144884045,160.10338491872847,245.80019056684495,245.80019056684495,161.30289224153694,f,0,1.1650564289575414,None,161.3033893445488,246.98253276229565,161.80925291510823,161.80926446072658,161.81050048331247,,,,,,,,,,,,,,,,,,,,,,,,,,,,,,,,,,,ds,001,1,29,m,2024-02-06_13h32.24.549,eye_track_exp,2023.1.3,120.15807504518719,
0,168,180,90,0,180,0,168,0,0,f,present,resp,freq_top,0,12,12,48,,,,,,,,,,,,161.81105178658822,161.81191867009875,161.8119295742938,0.7059229529918626,162.51770905426633,162.51772220344276,248.21480302212973,248.21480302212973,163.78488107692397,f,1,1.229998928571149,None,163.78544552937626,,163.7862190858051,163.78622934857697,163.78672741372372,,,,,,,,,,,,,,,,,,,,,,,,,,,,,,,,,,,ds,001,1,29,m,2024-02-06_13h32.24.549,eye_track_exp,2023.1.3,120.15807504518719,
180,270,0,0,0,0,0,168,0,168,f,present,resp,freq_top,0,13,13,43,,,,,,,,,,,,163.7872399108935,163.97555760525916,163.97557299941695,0.7781246668177335,164.75721520968443,164.75722932099575,250.45454618343553,250.45454618343553,166.19089397081393,f,1,1.3894977974211997,None,166.19140422300234,,166.19144399124332,166.1914526504571,166.19190902309322,,,,,,,,,,,,,,,,,,,,,,,,,,,,,,,,,,,ds,001,1,29,m,2024-02-06_13h32.24.549,eye_track_exp,2023.1.3,120.15807504518719,
180,168,0,180,0,180,180,180,168,180,f,abs,resp,freq_top,0,14,14,12,,,,,,,,,,,,166.19239393906355,166.4235625544809,166.42357634508062,0.8086842981908793,167.23868160584163,167.23869539644124,252.93573356048267,252.93573356048267,168.3632363779343,f,1,1.0844035498972744,None,168.36373668806243,,168.36377453203363,168.36378287053583,168.36423058395815,,,,,,,,,,,,,,,,,,,,,,,,,,,,,,,,,,,ds,001,1,29,m,2024-02-06_13h32.24.549,eye_track_exp,2023.1.3,120.15807504518719,
180,270,180,12,180,0,12,180,0,180,j,present,resp,freq_top,0,15,15,33,,,,,,,,,,,,168.36473410120254,168.4800485300824,168.4800709798959,1.0458782220111433,169.5286437169707,169.52865943184008,255.2254025411906,255.2254025411906,170.66208027668438,j,1,1.098431155470621,None,170.66266878250815,,170.66271272000017,170.66272266206045,170.66324638413687,,,,,,,,,,,,,,,,,,,,,,,,,,,,,,,,,,,ds,001,1,29,m,2024-02-06_13h32.24.549,eye_track_exp,2023.1.3,120.15807504518719,
0,180,0,0,180,0,180,168,0,168,f,abs,resp,freq_top,0,16,16,14,,,,,,,,,,,,170.66374028003258,170.86100582861297,170.8610205813476,0.7083027926494637,171.568538959727,171.5685527503266,257.2653676990802,257.2653676990802,172.56027422126408,f,1,0.9461935184226604,None,172.56078992555,,172.5608284109445,172.5608370701583,172.56131011979858,,,,,,,,,,,,,,,,,,,,,,,,,,,,,,,,,,,ds,001,1,29,m,2024-02-06_13h32.24.549,eye_track_exp,2023.1.3,120.15807504518719,
90,0,180,168,180,180,0,168,0,0,f,present,resp,freq_top,0,17,17,46,,,,,,,,,,,,172.561773868802,172.65933274023064,172.65934556869547,0.9753378306600071,173.64169167682792,173.64170546742753,259.338541583148,259.338541583148,174.7248951754068,f,1,1.0491278373241357,None,174.72540157905576,,174.72544070587344,174.72544936508723,174.72592016974625,,,,,,,,,,,,,,,,,,,,,,,,,,,,,,,,,,,ds,001,1,29,m,2024-02-06_13h32.24.549,eye_track_exp,2023.1.3,120.15807504518719,
168,0,270,180,180,180,180,168,180,180,f,present,resp,freq_top,0,18,18,49,,,,,,,,,,,,174.72639803006098,174.72716645510388,174.72717703858734,1.0386000715610084,175.76491806138802,175.76493153127615,261.4617221059464,261.4617221059464,176.88190403923454,f,1,1.0696235548618915,None,176.88243674123646,,176.88247618876574,176.88248484797953,176.88297104679634,,,,,,,,,,,,,,,,,,,,,,,,,,,,,,,,,,,ds,001,1,29,m,2024-02-06_13h32.24.549,eye_track_exp,2023.1.3,120.15807504518719,
180,180,168,0,270,0,0,168,0,180,f,present,resp,freq_top,0,19,19,47,,,,,,,,,,,,176.88344345501343,176.98982766881784,176.98984178012915,0.9191140095834542,177.9134771361479,177.9134918888824,263.6098777254876,263.6098777254876,179.26222151808201,f,1,1.3052042000438178,None,179.26272375247993,,179.26276191716272,179.2627708970881,179.26324971953773,,,,,,,,,,,,,,,,,,,,,,,,,,,,,,,,,,,ds,001,1,29,m,2024-02-06_13h32.24.549,eye_track_exp,2023.1.3,120.15807504518719,
180,180,180,-168,180,180,12,180,0,180,None,abs,inhibit,freq_top,0,20,20,22,,,,,,,,,,,,179.2637314283918,179.45333742133744,179.45335217407205,0.9041771330919051,180.36089903164338,180.36091186010822,266.05776625639095,266.05776625639095,183.37431664371445,None,1,,,183.3752653086882,,183.37532111251016,183.37533073385873,183.37594714159354,,,,,,,,,,,,,,,,,,,,,,,,,,,,,,,,,,,ds,001,1,29,m,2024-02-06_13h32.24.549,eye_track_exp,2023.1.3,120.15807504518719,
180,168,180,0,180,0,180,0,0,168,f,abs,resp,freq_top,0,21,21,20,,,,,,,,,,,,183.37649299277177,183.4758058360535,183.47581898522992,1.0721083697164167,184.54916958140075,184.54918401342377,270.24585207625495,270.24585207625495,185.63307158988937,f,1,1.0371944786331824,None,185.63361615822112,271.31160308986404,186.13834569249013,186.13835755882008,186.1392709455156,,,,,,,,,,,,,,,,,,,,,,,,,,,,,,,,,,,ds,001,1,29,m,2024-02-06_13h32.24.549,eye_track_exp,2023.1.3,120.15807504518719,
0,270,0,0,12,0,0,12,0,0,j,present,resp,freq_top,0,22,22,40,,,,,,,,,,,,186.13979723328498,186.14058939098788,186.14060029518294,0.8584537096078106,186.99711808537734,186.99713347953514,272.6937518320652,272.6937518320652,188.41414934770467,j,1,1.3729837146531736,None,188.41475902049535,,188.41552359699892,188.4155335390592,188.41617688657004,,,,,,,,,,,,,,,,,,,,,,,,,,,,,,,,,,,ds,001,1,29,m,2024-02-06_13h32.24.549,eye_track_exp,2023.1.3,120.15807504518719,
0,180,180,180,12,0,180,12,0,0,j,abs,resp,freq_top,0,23,23,8,,,,,,,,,,,,188.41668072452603,188.4173846865333,188.41739527001675,0.9262426208969573,189.35325807728248,189.3532715471706,275.05006661180363,275.05006661180363,190.58599433110146,f,0,1.192846411594246,None,190.5865241466986,276.26565184957605,191.09240888422505,191.092420750555,191.09321868106701,,,,,,,,,,,,,,,,,,,,,,,,,,,,,,,,,,,ds,001,1,29,m,2024-02-06_13h32.24.549,eye_track_exp,2023.1.3,120.15807504518719,
180,180,0,168,180,180,180,0,0,168,f,abs,resp,freq_top,0,24,24,18,,,,,,,,,,,,191.09374913808756,191.0945461064647,191.09455701065986,0.732519340435548,191.82612427062156,191.8261374197981,277.52293056016134,277.52293056016134,192.8759965311831,f,1,1.007665276878015,None,192.8764978034461,,192.87724121298265,192.87725083433133,192.87773735385974,,,,,,,,,,,,,,,,,,,,,,,,,,,,,,,,,,,ds,001,1,29,m,2024-02-06_13h32.24.549,eye_track_exp,2023.1.3,120.15807504518719,
0,180,0,12,0,180,180,180,0,12,j,abs,resp,freq_top,0,25,25,4,,,,,,,,,,,,192.878220666272,192.8791879325197,192.87919851600316,1.0728146252157527,193.95752751866064,193.95754098854866,279.6544191174914,279.6544191174914,195.01702305210983,j,1,1.0203779648070395,None,195.0175810903297,,195.01762374497525,195.01763272490064,195.01802238951961,,,,,,,,,,,,,,,,,,,,,,,,,,,,,,,,,,,ds,001,1,29,m,2024-02-06_13h32.24.549,eye_track_exp,2023.1.3,120.15807504518719,
180,0,180,0,12,180,180,180,12,180,j,abs,resp,freq_top,0,26,26,9,,,,,,,,,,,,195.0185342452661,195.1066122397666,195.106627954636,0.7934089477592883,195.90593111242674,195.90594458231487,281.6027329120038,281.6027329120038,196.78968277130764,j,1,0.8481596730838419,None,196.7902347160067,,196.79027672922894,196.79028570915432,196.79075811737152,,,,,,,,,,,,,,,,,,,,,,,,,,,,,,,,,,,ds,001,1,29,m,2024-02-06_13h32.24.549,eye_track_exp,2023.1.3,120.15807504518719,
12,0,0,12,0,0,90,180,180,0,j,present,resp,freq_top,0,27,27,38,,,,,,,,,,,,196.79127093525278,196.93098831134432,196.93100338479042,1.0804926738150171,198.01246092930683,198.01247407848325,283.7092810094462,283.7092810094462,198.94590685379978,j,1,0.8848423475365053,None,198.9464761169263,,198.94651331947432,198.94652165797652,198.9468725164894,,,,,,,,,,,,,,,,,,,,,,,,,,,,,,,,,,,ds,001,1,29,m,2024-02-06_13h32.24.549,eye_track_exp,2023.1.3,120.15807504518719,
90,0,180,180,180,168,0,168,0,0,f,present,resp,freq_top,0,28,28,44,,,,,,,,,,,,198.947336906916,198.96994354834055,198.9699547732473,1.0583179149321909,200.02732815790307,200.0273413070795,285.72418576130207,285.72418576130207,201.04461355211856,f,1,0.9820574161079776,None,201.04516549681762,,201.04520398221212,201.04521296213738,201.0457001230891,,,,,,,,,,,,,,,,,,,,,,,,,,,,,,,,,,,ds,001,1,29,m,2024-02-06_13h32.24.549,eye_track_exp,2023.1.3,120.15807504518719,
0,180,0,12,0,12,0,180,180,180,j,abs,resp,freq_top,0,29,29,0,,,,,,,,,,,,201.04618568048272,201.24357309947902,201.24358721079034,0.7315575002968417,201.97574009017126,201.97575388077098,287.6725264955906,287.6725264955906,203.77510354174672,f,0,1.7533826542523911,None,203.7756070589911,289.45431591249195,204.28108288920123,204.28109379339628,204.28206426676024,,,,,,,,,,,,,,,,,,,,,,,,,,,,,,,,,,,ds,001,1,29,m,2024-02-06_13h32.24.549,eye_track_exp,2023.1.3,120.15807504518719,
180,180,0,168,180,180,180,180,168,180,f,abs,resp,freq_top,0,30,30,10,,,,,,,,,,,,204.28259023381804,204.28345326878912,204.28346513511906,0.9048200041343157,205.18991900748733,205.18993183595217,290.8864459572056,290.8864459572056,206.08952344177453,f,1,0.8596988771930683,None,206.09008661138023,,206.09079442192694,206.09080372256392,245.97167346682204,,,,,,,,,,,,,,,,,,,,,,,,,,,,,,,,,,,ds,001,1,29,m,2024-02-06_13h32.24.549,eye_track_exp,2023.1.3,120.15807504518719,
180,0,180,0,168,180,0,180,12,180,None,abs,inhibit,freq_top,0,31,31,30,,,,,,,,,,,,245.97226036908773,246.17098130700253,246.17099477689055,0.925734711345045,247.10329479876305,247.10330826865118,332.80036471325496,332.80036471325496,250.11693273971753,None,1,,,250.1173320256852,,250.11737371819584,250.1173833395444,250.11843206654385,,,,,,,,,,,,,,,,,,,,,,,,,,,,,,,,,,,ds,001,1,29,m,2024-02-06_13h32.24.549,eye_track_exp,2023.1.3,120.15807504518719,
0,180,0,180,168,180,12,180,0,180,None,abs,inhibit,freq_top,0,32,32,28,,,,,,,,,,,,250.1189160203793,250.11976686830872,250.1197774517923,0.940325853649507,251.05884224387808,251.0588569966127,336.7553005613095,336.7553005613095,254.07185030720962,None,1,,,254.0722322747498,,254.07227236370238,254.07228166433936,254.07350036849766,,,,,,,,,,,,,,,,,,,,,,,,,,,,,,,,,,,ds,001,1,29,m,2024-02-06_13h32.24.549,eye_track_exp,2023.1.3,120.15807504518719,
168,0,180,0,0,180,180,0,168,0,f,abs,resp,freq_top,0,33,33,13,,,,,,,,,,,,254.07397983237047,254.07489321906598,254.07490412326104,0.9598848664774461,255.03840521656696,255.03841964858987,340.73520188475806,340.73520188475806,256.16359756336135,f,1,1.087922077086887,None,256.16409947704767,,256.16413796244217,256.16414662165585,256.1646055599849,,,,,,,,,,,,,,,,,,,,,,,,,,,,,,,,,,,ds,001,1,29,m,2024-02-06_13h32.24.549,eye_track_exp,2023.1.3,120.15807504518719,
0,180,0,12,0,180,180,12,0,0,j,abs,resp,freq_top,0,34,34,2,,,,,,,,,,,,256.16508374101124,256.3207982127383,256.3208123240496,0.996676600982402,257.31999418870544,257.32000894143994,343.016604523445,343.016604523445,258.4281808018176,j,1,1.0626692440807801,None,258.42872344587965,,258.428764496967,258.4287737976041,258.42927282488574,,,,,,,,,,,,,,,,,,,,,,,,,,,,,,,,,,,ds,001,1,29,m,2024-02-06_13h32.24.549,eye_track_exp,2023.1.3,120.15807504518719,
180,0,180,0,12,0,12,180,180,180,j,abs,resp,freq_top,0,35,35,7,,,,,,,,,,,,258.4297465159493,258.53526737407094,258.53528148538226,0.7962681615271872,259.3348129898469,259.33482613902333,345.0315185759378,345.0315185759378,260.63391955141424,j,1,1.2554611862655065,None,260.63438394184084,,260.63442146510044,260.63443012431424,260.63515204617227,,,,,,,,,,,,,,,,,,,,,,,,,,,,,,,,,,,ds,001,1,29,m,2024-02-06_13h32.24.549,eye_track_exp,2023.1.3,120.15807504518719,
180,12,180,-168,180,180,0,180,180,180,None,abs,inhibit,freq_top,0,36,36,26,,,,,,,,,,,,260.6356385657007,260.6365981348695,260.63660807692975,0.9543342052037647,261.59079474263854,261.59080885394985,347.2879220645105,347.2879220645105,264.60448399745223,None,1,,,264.60488649053616,,264.60492625877714,264.6049358801257,264.6056003946036,,,,,,,,,,,,,,,,,,,,,,,,,,,,,,,,,,,ds,001,1,29,m,2024-02-06_13h32.24.549,eye_track_exp,2023.1.3,120.15807504518719,
0,0,0,-168,180,180,180,180,0,12,None,abs,inhibit,freq_top,0,37,37,25,,,,,,,,,,,,264.60609781832716,264.6068710540444,264.60688163752786,1.083907031965213,265.6958197805948,265.6958329297712,351.3927046444815,351.3927046444815,268.70924476903315,None,1,,,268.7096363579219,,268.7096754847396,268.70968478537657,268.71040285869515,,,,,,,,,,,,,,,,,,,,,,,,,,,,,,,,,,,ds,001,1,29,m,2024-02-06_13h32.24.549,eye_track_exp,2023.1.3,120.15807504518719,
180,270,0,0,168,0,0,168,180,0,f,present,resp,freq_top,0,38,38,45,,,,,,,,,,,,268.71089739601405,268.7117543374643,268.71176492094776,1.0170258870558255,269.73385040598885,269.73386387587686,355.43092769684796,355.43092769684796,271.158422881363,j,0,1.3838914375814966,None,271.15892928501194,356.8380229924575,271.66475597373505,271.6647681607766,271.66548847907643,,,,,,,,,,,,,,,,,,,,,,,,,,,,,,,,,,,ds,001,1,29,m,2024-02-06_13h32.24.549,eye_track_exp,2023.1.3,120.15807504518719,
0,0,0,-168,0,0,0,12,0,0,None,abs,inhibit,freq_top,0,39,39,23,,,,,,,,,,,,271.6660301610036,271.6668085281069,271.66681975301356,1.028039785375689,272.6976285941349,272.69764206402306,358.3950282001728,358.3950282001728,275.7115801910543,None,1,,,275.7119894190822,,275.7127219244237,275.71273186648386,275.71408174169505,,,,,,,,,,,,,,,,,,,,,,,,,,,,,,,,,,,ds,001,1,29,m,2024-02-06_13h32.24.549,eye_track_exp,2023.1.3,120.15807504518719,
0,0,168,0,0,0,0,0,168,0,f,abs,resp,freq_top,0,40,40,11,,,,,,,,,,,,275.7145714683397,275.7154110913624,275.71542199555756,0.7655678195994328,276.4785235463265,276.47853733692614,362.17512073188954,362.17512073188954,277.295695152059,f,1,0.7833849056479494,None,277.2962422860837,,277.2962814129015,277.2962900721152,277.2967839680109,,,,,,,,,,,,,,,,,,,,,,,,,,,,,,,,,,,ds,001,1,29,m,2024-02-06_13h32.24.549,eye_track_exp,2023.1.3,120.15807504518719,
90,0,0,12,0,0,0,12,0,0,j,present,resp,freq_top,0,41,41,34,,,,,,,,,,,,277.29726118690246,277.31203156058916,277.3120427854959,0.9732495629940452,278.2849080167001,278.28492116587654,363.9819016018262,363.9819016018262,279.5181314314707,j,1,1.1842965605005702,None,279.5186942803648,,279.51873597287556,279.51874527351254,279.5192487907568,,,,,,,,,,,,,,,,,,,,,,,,,,,,,,,,,,,ds,001,1,29,m,2024-02-06_13h32.24.549,eye_track_exp,2023.1.3,120.15807504518719,
12,0,0,12,0,0,180,0,180,180,j,abs,resp,freq_top,0,42,42,6,,,,,,,,,,,,279.51975551511737,279.7769476335652,279.7769620655881,0.708997115341341,280.4912394413717,280.4912532319713,366.18835168979746,366.18835168979746,281.4245525912537,j,1,0.897874464239635,None,281.4250634848653,,281.4251029323947,281.42511191232006,281.4255804719977,,,,,,,,,,,,,,,,,,,,,,,,,,,,,,,,,,,ds,001,1,29,m,2024-02-06_13h32.24.549,eye_track_exp,2023.1.3,120.15807504518719,
180,270,180,12,180,180,180,180,12,180,j,present,resp,freq_top,0,43,43,35,,,,,,,,,,,,281.4260769335864,281.59135085658863,281.59136432647676,0.8334863662024286,282.42335248836946,282.4233659582575,368.1200013085034,368.1200013085034,283.48979623907894,j,1,1.0300009169831128,None,283.49029815276526,,283.49033695887135,283.49034593879674,283.49081064993493,,,,,,,,,,,,,,,,,,,,,,,,,,,,,,,,,,,ds,001,1,29,m,2024-02-06_13h32.24.549,eye_track_exp,2023.1.3,120.15807504518719,
0,0,180,0,168,0,0,0,180,168,f,abs,resp,freq_top,0,44,44,17,,,,,,,,,,,,283.49129524519367,283.6386968717147,283.63871162444923,0.8912377961527607,284.5297931474189,284.5298069380186,370.22650386489573,370.22650386489573,285.3297229757163,f,1,0.7632227281956148,None,285.3302258515374,,285.3302649783552,285.3302736375689,285.33074348009313,,,,,,,,,,,,,,,,,,,,,,,,,,,,,,,,,,,ds,001,1,29,m,2024-02-06_13h32.24.549,eye_track_exp,2023.1.3,120.15807504518719,
0,0,0,-168,0,12,0,0,0,0,None,abs,inhibit,freq_top,0,45,45,21,,,,,,,,,,,,285.3312399416818,285.4871728180225,285.4871866086221,0.9876395565142838,286.478037026798,286.47805017597443,372.17481413158026,372.17481413158026,289.49140300429815,None,1,,,289.4918189672701,,289.49186033906915,289.49186996041783,289.49284332018635,,,,,,,,,,,,,,,,,,,,,,,,,,,,,,,,,,,ds,001,1,29,m,2024-02-06_13h32.24.549,eye_track_exp,2023.1.3,120.15807504518719,
0,0,168,0,0,0,0,0,180,168,f,abs,resp,freq_top,0,46,46,19,,,,,,,,,,,,289.49333048113795,289.4941486164821,289.49416016210046,0.8618910992755018,290.3580956913677,290.3581094819674,376.0548307829276,376.0548307829276,291.16656190087065,f,1,0.7741426381653582,None,291.1671228254951,,291.1671680458336,291.167177025759,291.1676924093332,,,,,,,,,,,,,,,,,,,,,,,,,,,,,,,,,,,ds,001,1,29,m,2024-02-06_13h32.24.549,eye_track_exp,2023.1.3,120.15807504518719,
180,0,180,12,180,180,12,180,180,180,j,abs,resp,freq_top,0,47,47,1,,,,,,,,,,,,291.1682033029449,291.3415392746658,291.3415540274003,0.8254767752336301,292.1728940311077,292.17290782170744,377.8699815847388,377.8699815847388,293.17362974356536,j,1,0.9595748900806029,None,293.1741839332458,,293.17422530504484,293.17423396425863,293.1747079760339,,,,,,,,,,,,,,,,,,,,,,,,,,,,,,,,,,,ds,001,1,29,m,2024-02-06_13h32.24.549,eye_track_exp,2023.1.3,120.15807504518719,
180,180,90,180,12,180,12,0,0,180,j,present,resp,freq_top,0,48,48,39,,,,,,,,,,,,293.175210851855,293.17612936993635,293.1761402741315,0.852001520798342,294.0378301806312,294.0378439712309,379.7350152305949,379.7350152305949,295.37094211604244,j,1,1.28621229929513,None,295.3715171519782,,295.3715559580843,295.3715646172981,295.37226569290067,,,,,,,,,,,,,,,,,,,,,,,,,,,,,,,,,,,ds,001,1,29,m,2024-02-06_13h32.24.549,eye_track_exp,2023.1.3,120.15807504518719,
180,0,90,180,12,0,180,180,12,180,j,present,resp,freq_top,0,49,49,41,,,,,,,,,,,,295.37275381598727,295.3735055640259,295.37351614750935,0.8573185523745807,296.2279182031426,296.22793167303064,381.92477324084865,381.92477324084865,297.02788427185317,j,1,0.760123371094096,None,297.0283868269627,,297.02842595378036,297.02843493370574,297.0289044555183,,,,,,,,,,,,,,,,,,,,,,,,,,,,,,,,,,,ds,001,1,29,m,2024-02-06_13h32.24.549,eye_track_exp,2023.1.3,120.15807504518719,
,,,,,,,,,,,,,,,,,,,,,,,,,,,,,,,,,,,,,,,,,,,,,,,,297.0289554486659,297.53217507262514,297.53219688101535,310.8984168391561,space,13.348592313060067,None,,,,,,,,,,,,,,,,,,,,,,,,,,,ds,001,1,29,m,2024-02-06_13h32.24.549,eye_track_exp,2023.1.3,120.15807504518719,
270,180,12,180,180,12,180,0,0,180,j,present,resp,freq_top,,,,,0,0,0,527,,,,,,310.8984450617787,311.4003292425497,,,,0.9617773573993076,,,,,,,,,,,,,,,,,,,,,,,311.5601959676287,311.5619037570084,311.561917547608,312.5302649142128,312.5302803083706,398.22743841855817,398.22743841855817,313.8807728893487,j,1,1.3043623320397728,None,313.8821955660977,313.88223982430134,313.88224944565,313.88261922614856,,,,,,,,,,,ds,001,1,29,m,2024-02-06_13h32.24.549,eye_track_exp,2023.1.3,120.15807504518719,
270,180,0,0,12,0,0,12,0,180,j,present,resp,freq_top,,,,,0,1,1,524,,,,,,,,,,,0.7481508858824835,,,,,,,,,,,,,,,,,,,,,,,313.8831095942164,313.97983910539415,313.97985385812876,314.7283546916582,314.7283694443928,400.42554455229623,400.42554455229623,316.02879252716264,j,1,1.2503333281637197,None,316.0293669216752,316.0294060484929,316.0294147077067,316.0298829466727,,,,,,,,,,,ds,001,1,29,m,2024-02-06_13h32.24.549,eye_track_exp,2023.1.3,120.15807504518719,
180,-12,180,180,-12,0,90,0,180,0,j,present,resp,freq_top,,,,,0,2,2,603,,,,,,,,,,,0.7875393610969281,,,,,,,,,,,,,,,,,,,,,,,316.03041276227,316.1026046273555,316.10261809724364,316.8936780042501,316.8936927569846,402.5903521606021,402.5903521606021,317.87757058381703,j,1,0.9416615425119517,None,317.87807249750324,317.8781125864558,317.8781215663812,317.8785994266959,,,,,,,,,,,ds,001,1,29,m,2024-02-06_13h32.24.549,eye_track_exp,2023.1.3,120.15807504518719,
180,180,-168,0,0,180,180,168,180,180,f,abs,resp,freq_top,,,,,0,3,3,776,,,,,,,,,,,0.9084548515118982,,,,,,,,,,,,,,,,,,,,,,,317.8790965297078,317.967995545957,317.96800869513345,318.8749067530963,318.8749218265425,404.5719789125695,404.5719789125695,320.2165156221838,f,1,1.2957226816923821,None,320.2170396649718,320.2170797539244,320.21708905456137,320.2175662734528,,,,,,,,,,,ds,001,1,29,m,2024-02-06_13h32.24.549,eye_track_exp,2023.1.3,120.15807504518719,
180,180,-12,180,270,180,-12,0,0,180,j,present,resp,freq_top,,,,,0,4,4,533,,,,,,,,,,,0.9021628498388238,,,,,,,,,,,,,,,,,,,,,,,320.21807299781335,320.29966171338265,320.29967582469396,321.205917706681,321.20593213870393,406.90328395871035,406.90328395871035,322.290645226881,j,1,1.0445779015626613,None,322.2911644589948,322.29120358581247,322.29121288644944,322.2920262111194,,,,,,,,,,,ds,001,1,29,m,2024-02-06_13h32.24.549,eye_track_exp,2023.1.3,120.15807504518719,
180,168,0,180,0,180,180,180,168,180,f,abs,resp,freq_top,,,,,0,5,5,821,,,,,,,,,,,0.8338234483662985,,,,,,,,,,,,,,,,,,,,,,,322.2925351804612,322.33036953034355,322.3303823588084,323.17183472062493,323.17184947335943,408.87661999457356,408.87661999457356,324.0142440859174,f,1,0.7988284530263172,None,324.0147386232363,324.0147774293424,324.0147867299794,324.0152652317173,,,,,,,,,,,ds,001,1,29,m,2024-02-06_13h32.24.549,eye_track_exp,2023.1.3,120.15807504518719,
0,-168,0,-168,180,0,180,180,0,0,f,abs,resp,freq_top,,,,,0,6,6,957,,,,,,,,,,,1.010896633091865,,,,,,,,,,,,,,,,,,,,,,,324.01574950626446,324.2132164617426,324.2132308937656,325.22780948190325,325.22782423463775,410.92485085306083,410.92485085306083,326.17886536077174,f,1,0.9103264136211919,None,326.1793711229974,326.17941185337327,326.17942147472183,326.1797912552204,,,,,,,,,,,ds,001,1,29,m,2024-02-06_13h32.24.549,eye_track_exp,2023.1.3,120.15807504518719,
180,180,0,0,180,180,180,168,0,168,f,abs,resp,freq_top,,,,,0,7,7,911,,,,,,,,,,,0.9136912166367209,,,,,,,,,,,,,,,,,,,,,,,326.18028001973016,326.1948040868923,326.19481531179906,327.10958684004765,327.10960159278216,412.8148961567844,412.8148961567844,328.00133672603465,f,1,0.844422099857411,None,328.0018610895344,328.00190117848695,328.0019104791239,328.0024746108645,,,,,,,,,,,ds,001,1,29,m,2024-02-06_13h32.24.549,eye_track_exp,2023.1.3,120.15807504518719,
0,0,180,0,180,180,168,0,168,0,f,abs,resp,freq_top,,,,,0,8,8,947,,,,,,,,,,,1.0825665049699007,,,,,,,,,,,,,,,,,,,,,,,328.0029697896068,328.1756171934783,328.1756316255012,329.2576449632561,329.257659395279,414.95471263276664,414.95471263276664,329.9745124060877,f,1,0.672398159376371,None,329.9750422216848,329.9750810277909,329.9750900077163,329.97568107923314,,,,,,,,,,,ds,001,1,29,m,2024-02-06_13h32.24.549,eye_track_exp,2023.1.3,120.15807504518719,
0,270,0,-168,0,180,180,180,0,-12,None,present,inhibit,freq_top,,,,,0,9,9,334,,,,,,,,,,,1.0697291184947126,,,,,,,,,,,,,,,,,,,,,,,329.9761801065148,330.1572410590411,330.1572561324873,331.23104674500155,331.23106213915935,416.9363874914771,416.9363874914771,334.2707604649805,None,1,,,334.27113986682775,334.27117867293384,334.2711876528592,334.27172484482367,418.4183769682874,418.4183769682874,418.4183769682874,418.4183769682874,419.90877422094337,419.90877422094337,,,,,ds,001,1,29,m,2024-02-06_13h32.24.549,eye_track_exp,2023.1.3,120.15807504518719,
168,180,0,90,180,180,0,168,0,0,f,present,resp,freq_top,,,,,0,10,10,642,,,,,,,,,,,0.9817060106777572,,,,,,,,,,,,,,,,,,,,,,,334.2722184200078,334.46221985038164,334.46223428240455,335.4442211935219,335.4442356255448,421.1410637234747,421.1410637234747,337.20267851931294,f,1,1.7179918062073511,None,337.2031701702273,337.2032086556218,337.20321763554716,337.2036964579968,422.63144782695423,422.63144782695423,422.63144782695423,422.63144782695423,,,,,,,ds,001,1,29,m,2024-02-06_13h32.24.549,eye_track_exp,2023.1.3,120.15807504518719,
0,180,0,180,180,168,180,180,168,180,f,abs,resp,freq_top,,,,,0,11,11,828,,,,,,,,,,,1.0523879158627967,,,,,,,,,,,,,,,,,,,,,,,337.20416950763706,337.46757381017596,337.46758888362206,338.52498343524485,338.52499818797935,424.2217387316369,424.2217387316369,339.22557636688896,f,1,0.6530101797761745,None,339.2261812290054,339.22623831567387,339.22624761631084,339.22697851809426,,,,,,,,,,,ds,001,1,29,m,2024-02-06_13h32.24.549,eye_track_exp,2023.1.3,120.15807504518719,
0,168,0,180,0,180,180,168,0,0,f,abs,resp,freq_top,,,,,0,12,12,962,,,,,,,,,,,0.9461227736100157,,,,,,,,,,,,,,,,,,,,,,,339.2274695275854,339.4249573293189,339.4249720820534,340.3730325143855,340.3730475878317,426.07016143981554,426.07016143981554,341.2565494123601,f,1,0.8367279073676173,None,341.25705485387414,341.2570943014035,341.2571036020405,341.25756510606254,,,,,,,,,,,ds,001,1,29,m,2024-02-06_13h32.24.549,eye_track_exp,2023.1.3,120.15807504518719,
0,270,0,-168,180,180,180,-12,0,0,None,present,inhibit,freq_top,,,,,0,13,13,297,,,,,,,,,,,0.9776129311206537,,,,,,,,,,,,,,,,,,,,,,,341.2580737546929,341.3895023389499,341.3895170916844,342.37126122410496,342.37127565612786,428.06841676859955,428.06841676859955,345.40290551899795,None,1,,,345.40328075159414,345.4033201991234,345.4033294997604,345.4038843308641,429.55881722837165,429.55881722837165,429.55881722837165,429.55881722837165,431.04920229398607,431.04920229398607,,,,,ds,001,1,29,m,2024-02-06_13h32.24.549,eye_track_exp,2023.1.3,120.15807504518719,
180,90,180,180,168,0,0,180,-12,180,None,present,inhibit,freq_top,,,,,0,14,14,143,,,,,,,,,,,0.8086647745744394,,,,,,,,,,,,,,,,,,,,,,,345.404365398295,345.40510046932934,345.4051110528129,346.2185024306734,346.2185171834079,431.915119500357,431.915119500357,349.2496768830423,None,1,,,349.2500886767631,349.25012876571566,349.25013806635263,349.25070957446064,433.4138065069822,433.4138065069822,433.4138065069822,433.4138065069822,434.8875645993382,434.8875645993382,,,,,ds,001,1,29,m,2024-02-06_13h32.24.549,eye_track_exp,2023.1.3,120.15807504518719,
0,0,12,0,0,-168,0,0,0,0,None,abs,inhibit,freq_top,,,,,0,15,15,353,,,,,,,,,,,1.023484129218434,,,,,,,,,,,,,,,,,,,,,,,349.2512284858627,349.2519837617292,349.25199466592437,350.2727674783023,350.2727822310368,435.9699676017121,435.9699676017121,352.3806343419286,j,0,2.0722982897776774,None,352.3812068121714,352.886570714026,352.8865838632024,352.88779968095605,437.46035651586595,437.46035651586595,437.46035651586595,437.46035651586595,,,438.0598210557442,,,,ds,001,1,29,m,2024-02-06_13h32.24.549,eye_track_exp,2023.1.3,120.15807504518719,
0,0,168,0,0,0,0,0,168,0,f,abs,resp,freq_top,,,,,0,16,16,950,,,,,,,,,,,0.9866783074763377,,,,,,,,,,,,,,,,,,,,,,,352.8883445699995,352.8892598809647,352.88927110587144,353.87841373466756,353.87842912882536,439.5751911601615,439.5751911601615,354.9288360156585,f,1,1.010336163254351,None,354.9294415191981,354.9301955122181,354.9302060957017,354.9308237862829,,,,,,,,,,,ds,001,1,29,m,2024-02-06_13h32.24.549,eye_track_exp,2023.1.3,120.15807504518719,
270,180,180,180,180,0,-12,0,0,12,j,present,resp,freq_top,,,,,0,17,17,586,,,,,,,,,,,1.02724292570887,,,,,,,,,,,,,,,,,,,,,,,354.93135809184287,355.1194237068747,355.1194397424557,356.15117319517935,356.15118891004875,441.8482501653269,441.8482501653269,358.19352861677726,j,1,2.0019104275579593,None,358.1940346997145,358.1940754300904,358.19408473072735,358.19464790033305,443.3386243267461,443.3386243267461,443.3386243267461,443.3386243267461,,,,,,,ds,001,1,29,m,2024-02-06_13h32.24.549,eye_track_exp,2023.1.3,120.15807504518719,
-12,180,180,90,180,180,0,12,0,0,j,present,resp,freq_top,,,,,0,18,18,651,,,,,,,,,,,0.8089064028621902,,,,,,,,,,,,,,,,,,,,,,,358.1951254399362,358.39967627369015,358.39969102642476,359.2153042943928,359.215318405704,444.91225779056634,444.91225779056634,360.7161102426953,j,1,1.44975951093204,None,360.71663268192526,360.7166907307286,360.716699710654,360.71716794962003,446.3943367459188,446.3943367459188,446.3943367459188,446.3943367459188,,,,,,,ds,001,1,29,m,2024-02-06_13h32.24.549,eye_track_exp,2023.1.3,120.15807504518719,
0,90,0,0,168,0,0,12,0,0,None,present,inhibit,freq_top,,,,,0,19,19,229,,,,,,,,,,,0.7916691348078148,,,,,,,,,,,,,,,,,,,,,,,360.71767723967355,360.897677278159,360.8976920308935,361.6877660703783,361.6877805024012,447.38514611300724,447.38514611300724,364.7193574478539,None,1,,,364.71972658692926,364.71976603445853,364.7197750143839,364.72034267395236,448.87553983783533,448.87553983783533,448.87553983783533,448.87553983783533,450.3659123956966,450.3659123956966,,,,,ds,001,1,29,m,2024-02-06_13h32.24.549,eye_track_exp,2023.1.3,120.15807504518719,
0,270,0,0,-12,0,0,12,0,0,j,present,resp,freq_top,,,,,0,20,20,655,,,,,,,,,,,0.8935221423141976,,,,,,,,,,,,,,,,,,,,,,,364.72084587048516,364.7215748479987,364.72158511077055,365.6179234179135,365.61793752922483,451.3151107128586,451.3151107128586,366.8849225770077,f,0,1.2218230272270603,None,366.8854293013683,367.3907669048699,367.39077909191144,367.3916892714907,,,,,,,452.5640313578994,,,,ds,001,1,29,m,2024-02-06_13h32.24.549,eye_track_exp,2023.1.3,120.15807504518719,
180,-168,180,270,0,180,180,180,12,0,None,present,inhibit,freq_top,,,,,0,21,21,214,,,,,,,,,,,0.8609255742581646,,,,,,,,,,,,,,,,,,,,,,,367.3922309534179,367.3931436986902,367.39315460288526,368.2577600987279,368.2577748514624,453.95448268253466,453.95448268253466,371.2886112737832,None,1,,,371.2890692499774,371.28981939445794,371.2898290158066,371.29037454627326,455.44488634942303,455.44488634942303,455.44488634942303,455.44488634942303,456.9352499273588,456.9352499273588,,,,,ds,001,1,29,m,2024-02-06_13h32.24.549,eye_track_exp,2023.1.3,120.15807504518719,
0,270,0,-12,180,0,180,0,0,12,j,present,resp,freq_top,,,,,0,22,22,581,,,,,,,,,,,0.953099262752517,,,,,,,,,,,,,,,,,,,,,,,371.2908678007457,371.2916115309939,371.2916217937658,372.24587067752896,372.24588510955186,457.94273629871856,457.94273629871856,373.5961814150181,j,1,1.3137149243196973,None,373.59669006364845,373.59672886975454,373.59673752896833,373.597206088646,,,,,,,,,,,ds,001,1,29,m,2024-02-06_13h32.24.549,eye_track_exp,2023.1.3,120.15807504518719,
180,180,270,0,-12,0,0,12,180,0,j,present,resp,freq_top,,,,,0,23,23,601,,,,,,,,,,,0.7295447907595694,,,,,,,,,,,,,,,,,,,,,,,373.59769517386735,373.77009723334913,373.77011134466045,374.50203010455846,374.50204485729296,460.1991208653056,460.1991208653056,375.7111145177812,j,1,1.169931887013945,None,375.7116116207932,376.21651209435595,376.2165239606859,376.21732638116066,,,,,,,461.3897714159995,,,,ds,001,1,29,m,2024-02-06_13h32.24.549,eye_track_exp,2023.1.3,120.15807504518719,
180,0,180,0,180,180,-168,180,168,180,f,abs,resp,freq_top,,,,,0,24,24,839,,,,,,,,,,,0.8987213676635207,,,,,,,,,,,,,,,,,,,,,,,376.21785138608357,376.21876573491386,376.218776639109,377.11617810527423,377.11619285800884,462.813508437602,462.813508437602,379.0753714000922,f,1,1.9149273425301772,None,379.07590057426626,379.0766305139148,379.07664077668653,379.0772241511245,464.30393230932253,464.30393230932253,464.30393230932253,464.30393230932253,,,,,,,ds,001,1,29,m,2024-02-06_13h32.24.549,eye_track_exp,2023.1.3,120.15807504518719,
0,90,0,-168,0,0,180,180,180,-168,f,present,resp,freq_top,,,,,0,25,25,717,,,,,,,,,,,0.7228711051500175,,,,,,,,,,,,,,,,,,,,,,,379.077733441178,379.0786907653654,379.078701348849,379.8055406780999,379.8055551101228,465.50288063177624,465.50288063177624,381.15649893235104,f,1,1.3056730804331664,None,381.1569806412052,381.1570204094461,381.15702971008307,381.1575364344436,,,,,,,,,,,ds,001,1,29,m,2024-02-06_13h32.24.549,eye_track_exp,2023.1.3,120.15807504518719,
90,180,12,180,168,180,0,180,0,180,None,present,inhibit,freq_top,,,,,0,26,26,126,,,,,,,,,,,0.7937320632089641,,,,,,,,,,,,,,,,,,,,,,,381.15801204977697,381.2553733628474,381.25538779487033,382.0539943670211,382.0540091197556,467.75096421948734,467.75096421948734,383.12141885386643,f,0,1.0257373766988849,None,383.12192012612945,383.62681065763206,383.6268218825387,383.62813615875996,,,,,,,468.8000513780017,,,,ds,001,1,29,m,2024-02-06_13h32.24.549,eye_track_exp,2023.1.3,120.15807504518719,
180,180,180,-168,180,180,12,180,0,180,None,abs,inhibit,freq_top,,,,,0,27,27,336,,,,,,,,,,,0.9235776713061691,,,,,,,,,,,,,,,,,,,,,,,383.6286585979899,383.6295363856955,383.62954728989064,384.551931870589,384.5519463026119,470.2487987746251,470.2487987746251,387.5831784830725,None,1,,,387.5835687891148,387.5843166886141,387.58432695138595,387.58490455301455,471.73916940821647,471.73916940821647,471.73916940821647,471.73916940821647,473.2295631330447,473.2295631330447,,,,,ds,001,1,29,m,2024-02-06_13h32.24.549,eye_track_exp,2023.1.3,120.15807504518719,
180,180,180,180,168,180,168,180,180,180,f,abs,resp,freq_top,,,,,0,28,28,758,,,,,,,,,,,1.0680612041907567,,,,,,,,,,,,,,,,,,,,,,,387.58540229744983,387.58614763125604,387.5861585354512,388.6561291518525,388.6561448667219,474.3535951451958,474.3535951451958,389.673825377654,f,1,0.9821430461106502,None,389.67436192819525,389.67440041358975,389.6744090728034,389.674886291695,,,,,,,,,,,ds,001,1,29,m,2024-02-06_13h32.24.549,eye_track_exp,2023.1.3,120.15807504518719,
0,-12,180,270,180,0,180,-12,0,0,j,present,resp,freq_top,,,,,0,29,29,687,,,,,,,,,,,1.0467658910363604,,,,,,,,,,,,,,,,,,,,,,,389.6753801875907,389.8391195054884,389.8391336167997,390.8881094883816,390.8881239204045,476.5850193677748,476.5850193677748,391.80567954623154,j,1,0.878484239658178,None,391.8061881948619,391.80622796310274,391.80623662231653,391.8068007540571,,,,,,,,,,,ds,001,1,29,m,2024-02-06_13h32.24.549,eye_track_exp,2023.1.3,120.15807504518719,
90,180,180,0,168,0,-12,180,180,180,None,present,inhibit,freq_top,,,,,0,30,30,29,,,,,,,,,,,0.9328318836131767,,,,,,,,,,,,,,,,,,,,,,,391.80728021792993,391.89532646197995,391.8953402525797,392.828474766089,392.8284895188235,478.53335112213784,478.53335112213784,395.86746720563326,None,1,,,395.86787130227515,395.8679123533626,395.8679219747113,395.8684848236054,480.01541211763964,480.01541211763964,480.01541211763964,480.01541211763964,481.5058106531421,481.5058106531421,,,,,ds,001,1,29,m,2024-02-06_13h32.24.549,eye_track_exp,2023.1.3,120.15807504518719,
0,0,180,180,12,0,0,0,168,0,None,abs,inhibit,freq_top,,,,,0,31,31,372,,,,,,,,,,,0.9053020187935905,,,,,,,,,,,,,,,,,,,,,,,395.86900020717974,395.8697740843203,395.86978466780374,396.7746478105338,396.7746632046916,482.47995841011704,482.47995841011704,399.8143361942948,None,1,,,399.81473708382055,399.81477556921504,399.8147845491404,399.815281972864,483.9703454000011,483.9703454000011,483.9703454000011,483.9703454000011,485.444051216363,485.444051216363,,,,,ds,001,1,29,m,2024-02-06_13h32.24.549,eye_track_exp,2023.1.3,120.15807504518719,
12,0,168,0,0,90,0,0,180,180,None,present,inhibit,freq_top,,,,,0,32,32,56,,,,,,,,,,,0.9345608495728542,,,,,,,,,,,,,,,,,,,,,,,399.81576656812274,399.81677713043916,399.81678739321103,400.75437306330275,400.75438717461407,486.45153438060646,486.45153438060646,403.7860455808184,None,1,,,403.7864310761863,403.7864708444273,403.78648046577587,403.78705453957684,487.94193035041593,487.94193035041593,487.94193035041593,487.94193035041593,489.4322968147563,489.4322968147563,,,,,ds,001,1,29,m,2024-02-06_13h32.24.549,eye_track_exp,2023.1.3,120.15807504518719,
90,0,0,168,0,0,168,180,180,180,f,present,resp,freq_top,,,,,0,33,33,430,,,,,,,,,,,0.8019920384913615,,,,,,,,,,,,,,,,,,,,,,,403.7875542082817,403.7883213504782,403.7883319339617,404.59313208892945,404.5931465209525,490.2898957238237,490.2898957238237,405.79288122829985,f,1,1.1575931488345077,None,405.79344439790566,405.79348448685823,405.7934934667836,405.7939578572102,,,,,,,,,,,ds,001,1,29,m,2024-02-06_13h32.24.549,eye_track_exp,2023.1.3,120.15807504518719,
0,270,0,0,0,12,0,-12,0,0,j,present,resp,freq_top,,,,,0,34,34,689,,,,,,,,,,,1.0755936943091793,,,,,,,,,,,,,,,,,,,,,,,405.7944479045665,405.7951865034288,405.79519708691225,406.8741925283173,406.8742072810518,492.579610887005,492.579610887005,408.03323310026155,j,1,1.107598055722292,None,408.0337459181428,408.0337853656722,408.0337946663092,408.03405668770324,,,,,,,,,,,ds,001,1,29,m,2024-02-06_13h32.24.549,eye_track_exp,2023.1.3,120.15807504518719,
0,-168,0,0,0,-168,180,0,0,0,f,abs,resp,freq_top,,,,,0,35,35,991,,,,,,,,,,,0.908498858112002,,,,,,,,,,,,,,,,,,,,,,,408.03452909592033,408.03526737407094,408.0352779575545,408.94784491412304,408.94785902543435,494.6444834714852,494.6444834714852,410.1813896819375,f,1,1.1859677887555335,None,410.1819089140512,410.18194900300375,410.18195830364084,410.1823187835023,,,,,,,,,,,ds,001,1,29,m,2024-02-06_13h32.24.549,eye_track_exp,2023.1.3,120.15807504518719,
270,180,0,12,0,180,0,180,168,180,None,present,inhibit,freq_top,,,,,0,36,36,74,,,,,,,,,,,0.9690006787218194,,,,,,,,,,,,,,,,,,,,,,,410.18279536097054,410.38862390982104,410.38863898326724,411.3622097800368,411.3622242120597,497.0590593656453,497.0590593656453,414.39362797323724,None,1,,,414.3940057715263,414.39404586047885,414.39405516111594,414.394607105815,498.5577861405115,498.5577861405115,498.5577861405115,498.5577861405115,500.0315198587843,500.0315198587843,,,,,ds,001,1,29,m,2024-02-06_13h32.24.549,eye_track_exp,2023.1.3,120.15807504518719,
180,-12,0,12,180,180,90,180,0,180,j,present,resp,freq_top,,,,,0,37,37,501,,,,,,,,,,,0.76058758211275,,,,,,,,,,,,,,,,,,,,,,,414.3951189615615,414.395878406679,414.39588899016246,415.159258014423,415.1592734085808,500.8558112624941,500.8558112624941,416.35859119082147,j,1,1.1503181264328077,None,416.3591052915493,416.3591453805019,416.3591543604273,416.3596229201049,,,,,,,,,,,ds,001,1,29,m,2024-02-06_13h32.24.549,eye_track_exp,2023.1.3,120.15807504518719,
90,0,-12,180,180,180,180,0,180,12,j,present,resp,freq_top,,,,,0,38,38,566,,,,,,,,,,,1.0298924315886087,,,,,,,,,,,,,,,,,,,,,,,416.3601065532289,416.36699672168584,416.3670082673042,417.39817662615224,417.39819105817514,503.09552010765645,503.09552010765645,418.4657633930776,j,1,1.022718838925698,None,418.46628839800053,418.4663281662415,418.4663371461669,418.4668012158819,,,,,,,,,,,ds,001,1,29,m,2024-02-06_13h32.24.549,eye_track_exp,2023.1.3,120.15807504518719,
180,-168,180,180,0,180,0,180,0,168,f,abs,resp,freq_top,,,,,0,39,39,908,,,,,,,,,,,0.719758192543828,,,,,,,,,,,,,,,,,,,,,,,418.46728516971734,418.67301333583066,418.67302808856516,419.3970849237958,419.3970993558187,505.09383027812754,505.09383027812754,420.53058979508455,f,1,1.0883354743657492,None,420.5311969021823,420.53123699113485,420.53124597106023,420.5317203035471,,,,,,,,,,,ds,001,1,29,m,2024-02-06_13h32.24.549,eye_track_exp,2023.1.3,120.15807504518719,
180,180,270,180,168,180,180,180,12,180,None,present,inhibit,freq_top,,,,,0,40,40,83,,,,,,,,,,,1.0956435806448341,,,,,,,,,,,,,,,,,,,,,,,420.5321984845734,420.746522363542,420.7465537932809,421.8449615883692,421.8449760203921,507.5417284303796,507.5417284303796,424.87566523607904,None,1,,,424.8760632392002,424.8761033281528,424.87611262878977,424.87666393206564,509.03210836460806,509.03210836460806,509.03210836460806,509.03210836460806,510.5224748289484,510.5224748289484,,,,,ds,001,1,29,m,2024-02-06_13h32.24.549,eye_track_exp,2023.1.3,120.15807504518719,
0,180,0,0,180,0,180,168,0,168,f,abs,resp,freq_top,,,,,0,41,41,913,,,,,,,,,,,0.8812528597635616,,,,,,,,,,,,,,,,,,,,,,,424.87717225998426,424.8778945025539,424.87790572746053,425.7579255859241,425.7579403386586,511.4550304579827,511.4550304579827,427.10836011809886,f,1,1.302655504795041,None,427.10886459747803,427.1089046864306,427.1089139870676,458.66397055097616,,,,,,,,,,,ds,001,1,29,m,2024-02-06_13h32.24.549,eye_track_exp,2023.1.3,120.15807504518719,
168,180,270,180,180,0,180,12,0,0,None,present,inhibit,freq_top,,,,,0,42,42,223,,,,,,,,,,,0.9997128149404679,,,,,,,,,,,,,,,,,,,,,,,458.66451864713576,458.82992566546056,458.8299404181952,459.8289090096233,459.8289237623578,545.5256934907727,545.5256934907727,462.8596328621652,None,1,,,462.86001803682154,462.8600597293322,462.8600693506809,462.86052860972154,547.0161010062006,547.0161010062006,547.0161010062006,547.0161010062006,548.5064719605036,548.5064719605036,,,,,ds,001,1,29,m,2024-02-06_13h32.24.549,eye_track_exp,2023.1.3,120.15807504518719,
0,0,168,0,0,168,0,180,180,180,f,abs,resp,freq_top,,,,,0,43,43,765,,,,,,,,,,,0.786561991710229,,,,,,,,,,,,,,,,,,,,,,,462.86102699558,462.86192113957816,462.8619320437733,463.6505587117142,463.6505728230255,549.3557647593091,549.3557647593091,465.31716743648144,f,1,1.6084639770978697,None,465.31767031230254,465.3177097598319,465.3177187397573,465.31807986104207,550.8461421278446,550.8461421278446,550.8461421278446,550.8461421278446,,,,,,,ds,001,1,29,m,2024-02-06_13h32.24.549,eye_track_exp,2023.1.3,120.15807504518719,
0,-168,0,90,0,0,0,12,0,0,None,present,inhibit,freq_top,,,,,0,44,44,234,,,,,,,,,,,1.0340007270854277,,,,,,,,,,,,,,,,,,,,,,,465.31855515566383,465.31936206610123,465.3193726495847,466.36470138861716,466.3647161413518,552.0617514189885,552.0617514189885,469.39616544357943,None,1,,,469.3965409968872,469.3965798029933,469.3965887829187,469.3971057700511,553.5521377674495,553.5521377674495,553.5521377674495,553.5521377674495,555.0425071181944,555.0425071181944,,,,,ds,001,1,29,m,2024-02-06_13h32.24.549,eye_track_exp,2023.1.3,120.15807504518719,
270,0,168,0,180,180,180,180,12,0,None,present,inhibit,freq_top,,,,,0,45,45,207,,,,,,,,,,,0.9280538886927321,,,,,,,,,,,,,,,,,,,,,,,469.39758972388654,469.3982231293372,469.3982333921091,470.32805303030796,470.32806778304246,556.0250049229235,556.0250049229235,473.35950521894017,None,1,,,473.35988205509443,473.359922144047,473.3599311239724,473.36066491216036,557.5236973816461,557.5236973816461,557.5236973816461,557.5236973816461,558.9974429662489,558.9974429662489,,,,,ds,001,1,29,m,2024-02-06_13h32.24.549,eye_track_exp,2023.1.3,120.15807504518719,
0,168,0,168,180,0,180,0,0,0,f,abs,resp,freq_top,,,,,0,46,46,990,,,,,,,,,,,0.937810037235781,,,,,,,,,,,,,,,,,,,,,,,473.3611498281307,473.3619262709641,473.36194519294975,474.2998547817782,474.2998692138011,559.9965731963339,559.9965731963339,475.69940950576415,j,0,1.3509703897269105,None,475.6999762031977,476.2054764074911,476.20548859453265,476.2068262827022,,,,,,,561.3787209764,,,,ds,001,1,29,m,2024-02-06_13h32.24.549,eye_track_exp,2023.1.3,120.15807504518719,
12,180,90,180,-12,180,0,180,180,180,j,present,resp,freq_top,,,,,0,47,47,437,,,,,,,,,,,0.7899820764364033,,,,,,,,,,,,,,,,,,,,,,,476.2073650782248,476.20816300873685,476.2081739129319,476.9974163471844,476.997431099919,562.6942742712952,562.6942742712952,478.0473614092839,j,1,1.0044867040062968,None,478.04789795982515,478.0486949282023,478.04871417089953,478.049396003805,,,,,,,,,,,ds,001,1,29,m,2024-02-06_13h32.24.549,eye_track_exp,2023.1.3,120.15807504518719,
0,0,180,0,12,0,0,0,180,-168,None,abs,inhibit,freq_top,,,,,0,48,48,380,,,,,,,,,,,0.9873049082182932,,,,,,,,,,,,,,,,,,,,,,,478.0499290265184,478.34691536356195,478.34693075771975,479.3372285897733,479.3372433425078,565.0338892762372,565.0338892762372,482.3678911863957,None,1,,,482.3682811717264,482.36832029854406,482.36832927846945,482.3687917446264,566.5242855667584,566.5242855667584,566.5242855667584,566.5242855667584,568.0146773673168,568.0146773673168,,,,,ds,001,1,29,m,2024-02-06_13h32.24.549,eye_track_exp,2023.1.3,120.15807504518719,
0,270,0,0,-12,0,0,-12,0,0,j,present,resp,freq_top,,,,,0,49,49,691,,,,,,,,,,,0.7137727034724787,,,,,,,,,,,,,,,,,,,,,,,482.3692766605967,482.3701836330597,482.37019421654327,483.08392349616713,483.08393792819015,568.7890330095643,568.7890330095643,484.3253244158399,j,1,1.1981772801518105,None,484.32581382177284,484.32585262787893,484.3258612870927,484.3263651250487,,,,,,,,,,,ds,001,1,29,m,2024-02-06_13h32.24.549,eye_track_exp,2023.1.3,120.15807504518719,
-168,0,0,180,0,180,168,180,180,180,f,abs,resp,freq_top,,,,,0,50,50,754,,,,,,,,,,,0.754222409422447,,,,,,,,,,,,,,,,,,,,,,,484.32691129693853,484.3277884432209,484.3277987059928,485.08239177746725,485.08240653020175,570.7789520811939,570.7789520811939,486.01613756732536,f,1,0.8874128511756112,None,486.0166686657691,486.0167081132985,486.01671741393545,486.0173219553403,,,,,,,,,,,ds,001,1,29,m,2024-02-06_13h32.24.549,eye_track_exp,2023.1.3,120.15807504518719,
168,180,0,180,168,180,0,180,0,180,f,abs,resp,freq_top,,,,,0,51,51,867,,,,,,,,,,,0.9741097242500982,,,,,,,,,,,,,,,,,,,,,,,486.0177975706737,486.1979207624213,486.1979361565791,487.1715633985939,487.1715778306168,572.8688430584857,572.8688430584857,488.3056615863808,j,0,1.0857001869792953,None,488.3061570858347,488.8112980931129,488.81131028015443,488.8119998101388,,,,,,,573.9845641497004,,,,ds,001,1,29,m,2024-02-06_13h32.24.549,eye_track_exp,2023.1.3,120.15807504518719,
180,0,168,180,0,180,168,180,180,180,f,abs,resp,freq_top,,,,,0,52,52,753,,,,,,,,,,,0.89932209025237,,,,,,,,,,,,,,,,,,,,,,,488.8125293050243,489.0376239630592,489.0376393572169,489.9361450334919,489.93615946551483,575.63312514873,575.63312514873,491.08650490400146,f,1,1.1057000843516676,None,491.08700681768767,491.08773900231745,491.0877489443777,491.0883281495645,,,,,,,,,,,ds,001,1,29,m,2024-02-06_13h32.24.549,eye_track_exp,2023.1.3,120.15807504518719,
90,180,168,0,0,180,180,12,180,180,None,present,inhibit,freq_top,,,,,0,53,53,32,,,,,,,,,,,0.8601452889682051,,,,,,,,,,,,,,,,,,,,,,,491.08881242411167,491.32675703464906,491.32677242880686,492.19244653576925,492.1924609677923,577.8895164502612,577.8895164502612,495.2234939863364,None,1,,,495.2238993658249,495.22393977548904,495.2239487554144,495.22451224573183,579.3799101750892,579.3799101750892,579.3799101750892,579.3799101750892,580.8703019756476,580.8703019756476,,,,,ds,001,1,29,m,2024-02-06_13h32.24.549,eye_track_exp,2023.1.3,120.15807504518719,
90,0,180,0,180,180,12,0,180,-168,None,present,inhibit,freq_top,,,,,0,54,54,305,,,,,,,,,,,1.0025688811677305,,,,,,,,,,,,,,,,,,,,,,,495.22499716170216,495.22573704341085,495.225747947606,496.2309357787808,496.230950852227,581.9360462543127,581.9360462543127,499.27059080853326,None,1,,,499.27096251330147,499.2710013194077,499.27101029933294,499.2717312590561,583.4264297163691,583.4264297163691,583.4264297163691,583.4264297163691,584.9001676038929,584.9001676038929,,,,,ds,001,1,29,m,2024-02-06_13h32.24.549,eye_track_exp,2023.1.3,120.15807504518719,
90,0,180,0,180,12,0,180,-12,0,j,present,resp,freq_top,,,,,0,55,55,709,,,,,,,,,,,1.0608108779914407,,,,,,,,,,,,,,,,,,,,,,,499.2722235513937,499.2729397004425,499.2729499632144,500.33546499657166,500.33547910788286,586.032482955781,586.032482955781,501.08555303191145,f,0,0.705018379730916,None,501.0860761125647,501.59194289024026,501.5919550772819,501.59280624592293,,,,,,,586.7652243409857,,,,ds,001,1,29,m,2024-02-06_13h32.24.549,eye_track_exp,2023.1.3,120.15807504518719,
0,0,180,0,180,180,168,0,168,0,f,abs,resp,freq_top,,,,,0,56,56,948,,,,,,,,,,,1.021483524165236,,,,,,,,,,,,,,,,,,,,,,,501.59336235987314,501.65930868685916,501.65932279817036,502.68309811274037,502.68311350689817,588.3805086229734,588.3805086229734,503.5169932259291,f,1,0.7897821403441299,None,503.5174813490157,503.51822700353364,503.5182372663055,503.5188318656501,,,,,,,,,,,ds,001,1,29,m,2024-02-06_13h32.24.549,eye_track_exp,2023.1.3,120.15807504518719,
270,180,180,-168,180,180,180,180,12,180,None,present,inhibit,freq_top,,,,,0,57,57,85,,,,,,,,,,,0.8628044338288992,,,,,,,,,,,,,,,,,,,,,,,503.5193097259647,503.73332379750786,503.73333855024237,504.59849534936075,504.59850978138377,590.295521967784,590.295521967784,507.6298144426705,None,1,,,507.63020186230824,507.6302409891259,507.6302499690513,507.6307890852855,591.7858909978172,591.7858909978172,591.7858909978172,591.7858909978172,593.2762661213715,593.2762661213715,,,,,ds,001,1,29,m,2024-02-06_13h32.24.549,eye_track_exp,2023.1.3,120.15807504518719,
0,0,168,0,90,0,0,0,168,0,f,present,resp,freq_top,,,,,0,58,58,617,,,,,,,,,,,0.9700172591613809,,,,,,,,,,,,,,,,,,,,,,,507.63129131968344,507.6321684659657,507.6321787287376,508.60352410757184,508.603548481655,594.3087314380132,594.3087314380132,510.2452106530137,f,1,1.5970697346412521,None,510.24572475374157,510.24576452198255,510.2457738226195,510.246269642785,595.7907699837015,595.7907699837015,595.7907699837015,595.7907699837015,,,,,,,ds,001,1,29,m,2024-02-06_13h32.24.549,eye_track_exp,2023.1.3,120.15807504518719,
-12,0,0,-168,0,0,270,0,0,0,None,present,inhibit,freq_top,,,,,0,59,59,241,,,,,,,,,,,0.7878788345413629,,,,,,,,,,,,,,,,,,,,,,,510.24675520017854,510.24768366032026,510.24769392309213,511.04309818971115,511.04311230102246,596.7399631694775,596.7399631694775,514.0744554477038,None,1,,,514.0748419052067,514.0748816734476,514.074890653373,514.0755545264276,598.2386851336694,598.2386851336694,598.2386851336694,598.2386851336694,599.712415644826,599.712415644826,,,,,ds,001,1,29,m,2024-02-06_13h32.24.549,eye_track_exp,2023.1.3,120.15807504518719,
270,180,12,180,0,180,168,180,0,180,None,present,inhibit,freq_top,,,,,0,60,60,112,,,,,,,,,,,0.8643906972496261,,,,,,,,,,,,,,,,,,,,,,,514.0760965290664,514.0768251858684,514.0768357693519,514.9394762650951,514.9394913385413,600.6366083976413,600.6366083976413,517.9707177461927,None,1,,,517.9710968273282,517.9711359541459,517.971145254783,517.9715907232239,602.1270139887995,602.1270139887995,602.1270139887995,602.1270139887995,603.6090592694318,603.6090592694318,,,,,ds,001,1,29,m,2024-02-06_13h32.24.549,eye_track_exp,2023.1.3,120.15807504518719,
180,0,180,0,180,-168,180,0,-168,180,f,abs,resp,freq_top,,,,,0,61,61,892,,,,,,,,,,,0.826444288638438,,,,,,,,,,,,,,,,,,,,,,,517.9720766013291,517.9729896673131,517.9730002507965,518.80285920824,518.8028736402629,604.4999406683503,604.4999406683503,519.7450692191891,f,1,0.8927953543043827,None,519.7455813956472,519.7456214845997,519.7456307852368,519.7460987034912,,,,,,,,,,,ds,001,1,29,m,2024-02-06_13h32.24.549,eye_track_exp,2023.1.3,120.15807504518719,
180,180,90,180,-168,0,-168,180,0,180,f,present,resp,freq_top,,,,,0,62,62,518,,,,,,,,,,,0.8429154129258208,,,,,,,,,,,,,,,,,,,,,,,519.7465842608848,519.7477404262771,519.7477510097606,520.6017431959426,520.6017576279655,606.2984237665271,606.2984237665271,521.6186267384975,f,1,0.9830984460283503,None,521.6191228793746,521.6191629683271,521.6191719482525,521.6196456393162,,,,,,,,,,,ds,001,1,29,m,2024-02-06_13h32.24.549,eye_track_exp,2023.1.3,120.15807504518719,
180,180,0,168,180,180,180,180,168,180,f,abs,resp,freq_top,,,,,0,63,63,823,,,,,,,,,,,1.0396131340290242,,,,,,,,,,,,,,,,,,,,,,,521.6201260653238,521.7675408410213,521.7675552730443,522.8079973291136,522.8080114404249,608.5048356898155,608.5048356898155,523.5745160622001,f,1,0.7280031401560905,None,523.5750109202307,523.5750506884716,523.575059668397,523.5756449671046,,,,,,,,,,,ds,001,1,29,m,2024-02-06_13h32.24.549,eye_track_exp,2023.1.3,120.15807504518719,
168,0,168,0,270,0,0,0,180,180,f,present,resp,freq_top,,,,,0,64,64,473,,,,,,,,,,,1.0099051262733283,,,,,,,,,,,,,,,,,,,,,,,523.5761860076086,523.6831529544276,523.6831673864505,524.6976686830875,524.6976834358221,610.3948649579579,610.3948649579579,525.7325515239254,f,1,0.9976856933797649,None,525.7330701146159,525.7331102035685,525.7331191834938,525.7336031373294,,,,,,,,,,,ds,001,1,29,m,2024-02-06_13h32.24.549,eye_track_exp,2023.1.3,120.15807504518719,
0,-168,0,0,0,12,0,180,0,0,None,abs,inhibit,freq_top,,,,,0,65,65,393,,,,,,,,,,,0.7451203419115968,,,,,,,,,,,,,,,,,,,,,,,525.7340970332251,525.9636540727489,525.9636688254835,526.7131882391201,526.713202671143,612.4181303410512,612.4181303410512,529.7520985764894,None,1,,,529.7524754126437,529.7525145394613,529.7525235193867,529.7529792505995,613.9085253487258,613.9085253487258,613.9085253487258,613.9085253487258,615.3822699711936,615.3822699711936,,,,,ds,001,1,29,m,2024-02-06_13h32.24.549,eye_track_exp,2023.1.3,120.15807504518719,
168,180,270,180,180,0,180,12,0,0,None,present,inhibit,freq_top,,,,,0,66,66,224,,,,,,,,,,,0.8091931664173275,,,,,,,,,,,,,,,,,,,,,,,529.7534651287048,529.7541767877909,529.7541873712744,530.5674094133992,530.5674238454221,616.264816716516,616.264816716516,533.5988337001205,None,1,,,533.5992230440279,533.5992621708457,533.5992714714827,533.5998150776795,617.7552296840413,617.7552296840413,617.7552296840413,617.7552296840413,619.2455881305912,619.2455881305912,,,,,ds,001,1,29,m,2024-02-06_13h32.24.549,eye_track_exp,2023.1.3,120.15807504518719,
180,168,0,270,180,0,180,0,168,180,f,present,resp,freq_top,,,,,0,67,67,490,,,,,,,,,,,0.8022319263907686,,,,,,,,,,,,,,,,,,,,,,,533.6003118599799,533.6009311541193,533.6009414168911,534.4066905575444,534.4067049895673,620.1032017923931,620.1032017923931,535.5566485763932,f,1,1.1125931392132884,None,535.5572415721797,535.5572826232672,535.5572919239041,535.55776208714,,,,,,,,,,,ds,001,1,29,m,2024-02-06_13h32.24.549,eye_track_exp,2023.1.3,120.15807504518719,
-168,180,180,168,180,180,180,180,0,0,f,abs,resp,freq_top,,,,,0,68,68,956,,,,,,,,,,,0.7684079444402069,,,,,,,,,,,,,,,,,,,,,,,535.5582543794775,535.7893566075894,535.7893716810356,536.5624874521578,536.5625018841807,622.2596795577772,622.2596795577772,537.2959667948016,f,1,0.6842288903487201,None,537.2964853854921,537.2965251537331,537.2965341336585,537.2973949236482,,,,,,,,,,,ds,001,1,29,m,2024-02-06_13h32.24.549,eye_track_exp,2023.1.3,120.15807504518719,
12,0,270,180,0,180,168,180,0,0,None,present,inhibit,freq_top,,,,,0,69,69,217,,,,,,,,,,,0.762344023418735,,,,,,,,,,,,,,,,,,,,,,,537.297878556772,537.4374047887377,537.4374192207606,538.2029915338546,538.2030062865892,623.9082796836244,623.9082796836244,541.2427212894147,None,1,,,541.2432241652358,541.2432639334767,541.243272913402,541.2437203061129,625.390288403132,625.390288403132,625.390288403132,625.390288403132,626.8806920700204,626.8806920700204,,,,,ds,001,1,29,m,2024-02-06_13h32.24.549,eye_track_exp,2023.1.3,120.15807504518719,
0,0,0,0,168,0,0,168,0,0,f,abs,resp,freq_top,,,,,0,70,70,987,,,,,,,,,,,0.7180192308256121,,,,,,,,,,,,,,,,,,,,,,,541.2442218990875,541.2449476694849,541.2449582529683,541.9666283523184,541.966643105053,627.6633403526416,627.6633403526416,542.7170637183434,f,1,0.7040235322837702,None,542.7175672355877,542.7176066831171,542.7176156630425,542.717873835897,,,,,,,,,,,ds,001,1,29,m,2024-02-06_13h32.24.549,eye_track_exp,2023.1.3,120.15807504518719,
180,270,0,180,180,12,180,0,0,-168,None,present,inhibit,freq_top,,,,,0,71,71,325,,,,,,,,,,,1.0433741044546585,,,,,,,,,,,,,,,,,,,,,,,542.7183545826163,542.7589223576409,542.7589351861058,543.8060733801017,543.8060881328362,629.5034226344151,629.5034226344151,546.8377195992645,None,1,,,546.8382240786436,546.8382625640381,546.8382715439635,546.8388523527084,631.0021567856486,631.0021567856486,631.0021567856486,631.0021567856486,632.4758767133217,632.4758767133217,,,,,ds,001,1,29,m,2024-02-06_13h32.24.549,eye_track_exp,2023.1.3,120.15807504518719,
-168,0,90,180,180,0,-168,180,180,180,f,present,resp,freq_top,,,,,0,72,72,443,,,,,,,,,,,0.7927639162959892,,,,,,,,,,,,,,,,,,,,,,,546.8393395136601,546.840300686387,546.8403112698705,547.6363790888327,547.6364018593576,633.3334788295051,633.3334788295051,549.0701947938242,f,1,1.3859019787310558,None,549.0707768854155,549.0708176157914,549.0708265957168,549.0712993246455,,,,,,,,,,,ds,001,1,29,m,2024-02-06_13h32.24.549,eye_track_exp,2023.1.3,120.15807504518719,
270,180,0,-12,180,180,0,180,0,-12,j,present,resp,freq_top,,,,,0,73,73,737,,,,,,,,,,,0.9060523127305984,,,,,,,,,,,,,,,,,,,,,,,549.0717765435369,549.0862412790493,549.086252503956,549.9930691011672,549.9930835331901,635.6897762908161,635.6897762908161,551.1265534469123,j,1,1.0933924551995347,None,551.1270620955426,551.1271018637835,551.1271108437089,551.1275617642475,,,,,,,,,,,ds,001,1,29,m,2024-02-06_13h32.24.549,eye_track_exp,2023.1.3,120.15807504518719,
0,-168,0,90,0,180,180,180,180,12,None,present,inhibit,freq_top,,,,,0,74,74,151,,,,,,,,,,,0.8004485487427027,,,,,,,,,,,,,,,,,,,,,,,551.1280434731016,551.3095601568408,551.3095745888637,552.1155636218092,552.1155780538321,637.8129568136146,637.8129568136146,555.147079632054,None,1,,,555.1474721830776,555.1475119513185,555.1475215726672,555.1479930187495,639.303319108704,639.303319108704,639.303319108704,639.303319108704,640.7937208513226,640.7937208513226,,,,,ds,001,1,29,m,2024-02-06_13h32.24.549,eye_track_exp,2023.1.3,120.15807504518719,
90,180,168,0,0,180,180,12,180,180,None,present,inhibit,freq_top,,,,,0,75,75,33,,,,,,,,,,,0.7391770964049758,,,,,,,,,,,,,,,,,,,,,,,555.1484763311616,555.149312105645,555.1493226891284,555.887294239442,555.8873176513903,641.5847118053307,641.5847118053307,558.9186755508061,None,1,,,558.9191235849402,558.9191768230692,558.9191861237061,558.9196482691515,643.0750782696709,643.0750782696709,643.0750782696709,643.0750782696709,644.5654832194059,644.5654832194059,,,,,ds,001,1,29,m,2024-02-06_13h32.24.549,eye_track_exp,2023.1.3,120.15807504518719,
90,180,180,-168,0,180,-12,180,0,180,None,present,inhibit,freq_top,,,,,0,76,76,131,,,,,,,,,,,0.9239399020235304,,,,,,,,,,,,,,,,,,,,,,,558.9201594834747,558.9212672214122,558.9212781256074,559.842359975703,559.8423740870142,645.5396271278414,645.5396271278414,562.8735232031651,None,1,,,562.8738891351242,562.873927299807,562.873936600444,562.8743730889596,647.0300186076881,647.0300186076881,647.0300186076881,647.0300186076881,648.5204039940143,648.5204039940143,,,,,ds,001,1,29,m,2024-02-06_13h32.24.549,eye_track_exp,2023.1.3,120.15807504518719,
168,0,180,180,180,180,0,168,180,180,f,abs,resp,freq_top,,,,,0,77,77,781,,,,,,,,,,,1.0960366207019174,,,,,,,,,,,,,,,,,,,,,,,562.8748657020088,562.875584096039,562.8755943588109,563.972683708427,563.9726994232964,649.6777585849691,649.6777585849691,564.9063326433758,f,1,0.8808449978974409,None,564.9068291049645,564.9068679110705,564.9068765702843,564.9072296737786,,,,,,,,,,,ds,001,1,29,m,2024-02-06_13h32.24.549,eye_track_exp,2023.1.3,120.15807504518719,
0,0,90,0,0,0,-12,0,180,12,j,present,resp,freq_top,,,,,0,78,78,570,,,,,,,,,,,1.0744562142034262,,,,,,,,,,,,,,,,,,,,,,,564.907713627614,565.0890398086507,565.0890709176779,566.1618670034567,566.1618814354796,651.8591835451848,651.8591835451848,567.0960566581978,j,1,0.8911209189331544,None,567.096590643046,567.0966307319986,567.0966400326356,567.0971153272574,,,,,,,,,,,ds,001,1,29,m,2024-02-06_13h32.24.549,eye_track_exp,2023.1.3,120.15807504518719,
0,90,180,180,180,180,12,0,168,0,None,present,inhibit,freq_top,,,,,0,79,79,195,,,,,,,,,,,1.0941147114192962,,,,,,,,,,,,,,,,,,,,,,,567.0975963946883,567.3035705466145,567.3035856200606,568.401457506031,568.4014716173423,654.0989167644302,654.0989167644302,571.4331335513745,None,1,,,571.4335100668171,571.4335501557697,571.4335591356951,571.4341088354128,655.5893265248394,655.5893265248394,655.5893265248394,655.5893265248394,657.0796888199288,657.0796888199288,,,,,ds,001,1,29,m,2024-02-06_13h32.24.549,eye_track_exp,2023.1.3,120.15807504518719,
0,12,0,270,168,0,0,0,0,0,None,present,inhibit,freq_top,,,,,0,80,80,269,,,,,,,,,,,0.9423691063693245,,,,,,,,,,,,,,,,,,,,,,,571.434597279211,571.4353163146643,571.4353268981478,572.3819810100235,572.3819954420464,658.0871713427491,658.0871713427491,575.4216033271906,None,1,,,575.4219824083262,575.4220221765671,575.4220311564925,575.4225766869591,659.569220151209,659.569220151209,659.569220151209,659.569220151209,661.0596016889956,661.0596016889956,,,,,ds,001,1,29,m,2024-02-06_13h32.24.549,eye_track_exp,2023.1.3,120.15807504518719,
-168,0,0,180,180,168,0,0,0,0,f,abs,resp,freq_top,,,,,0,81,81,1006,,,,,,,,,,,0.9027636036821457,,,,,,,,,,,,,,,,,,,,,,,575.4230696207201,575.4236930841105,575.4237033468823,576.328776555724,576.3287906670353,662.0337718957842,662.0337718957842,577.4868565963645,f,1,1.1003233540322412,None,577.4873597928972,577.4873992404266,577.487408220352,577.4878809492808,,,,,,,,,,,ds,001,1,29,m,2024-02-06_13h32.24.549,eye_track_exp,2023.1.3,120.15807504518719,
90,180,168,180,180,12,0,180,0,180,None,present,inhibit,freq_top,,,,,0,82,82,127,,,,,,,,,,,1.0550207577932011,,,,,,,,,,,,,,,,,,,,,,,577.4883559231909,577.4891095954993,577.4891198582711,578.5434484068008,578.543463480247,664.2401860640539,664.2401860640539,581.5745362670322,None,1,,,581.5749121410515,581.5749515885809,581.5749605685063,582.7564275419443,665.7305958244631,665.7305958244631,665.7305958244631,665.7305958244631,667.2209738344218,667.2209738344218,,,,,ds,001,1,29,m,2024-02-06_13h32.24.549,eye_track_exp,2023.1.3,120.15807504518719,
180,90,0,0,12,0,0,-168,180,180,None,present,inhibit,freq_top,,,,,0,83,83,63,,,,,,,,,,,0.7916037564109994,,,,,,,,,,,,,,,,,,,,,,,582.756965375332,582.7577652301138,582.7577770964438,583.5471337040332,583.5471481360562,669.2442267097617,669.2442267097617,586.5789107735372,None,1,,,586.5792898546728,587.0850485525323,587.0850607395738,587.085883044169,670.7346162653389,670.7346162653389,670.7346162653389,670.7346162653389,672.2249939545859,672.2249939545859,672.2583040256363,,,,ds,001,1,29,m,2024-02-06_13h32.24.549,eye_track_exp,2023.1.3,120.15807504518719,
180,-12,180,-168,0,180,0,90,180,180,None,present,inhibit,freq_top,,,,,0,84,84,7,,,,,,,,,,,0.764216013262474,,,,,,,,,,,,,,,,,,,,,,,587.086424084673,587.0873326606942,587.087343885601,587.852113136797,587.8521285309548,673.5488610568218,673.5488610568218,590.8828722676171,None,1,,,590.8832555180038,590.8839729498991,590.8839828919594,590.8847157180124,675.0392458017245,675.0392458017245,675.0392458017245,675.0392458017245,676.5296327916087,676.5296327916087,,,,,ds,001,1,29,m,2024-02-06_13h32.24.549,eye_track_exp,2023.1.3,120.15807504518719,
0,0,180,0,180,168,0,168,0,0,f,abs,resp,freq_top,,,,,0,85,85,976,,,,,,,,,,,0.8443791616638485,,,,,,,,,,,,,,,,,,,,,,,590.8851903712109,590.885902030297,590.8859122930688,591.7319482653671,591.73196269739,677.4288328085422,677.4288328085422,593.1812383060526,f,1,1.4002002649122574,None,593.1817437475667,593.1817844779424,593.1817937785794,593.1823710594965,,,,,,,,,,,ds,001,1,29,m,2024-02-06_13h32.24.549,eye_track_exp,2023.1.3,120.15807504518719,
180,180,0,180,-168,180,0,180,-168,180,f,abs,resp,freq_top,,,,,0,86,86,882,,,,,,,,,,,0.9435527634228964,,,,,,,,,,,,,,,,,,,,,,,593.1829008750938,593.1836680172902,593.183678280062,594.130041506498,594.1300562592324,679.8268016135644,679.8268016135644,595.0637831271051,f,1,0.8897283890764243,None,595.0642840786564,595.0643238468974,595.0643328268228,595.0648716223454,,,,,,,,,,,ds,001,1,29,m,2024-02-06_13h32.24.549,eye_track_exp,2023.1.3,120.15807504518719,
0,0,90,0,12,0,0,0,180,-168,None,present,inhibit,freq_top,,,,,0,87,87,314,,,,,,,,,,,0.9168849065254225,,,,,,,,,,,,,,,,,,,,,,,595.065429019142,595.2211264931532,595.2211415665993,596.1450350954726,596.1450495274955,681.84173009808,681.84173009808,599.1770129304512,None,1,,,599.1773932944332,599.1774327419625,599.1774417218878,599.177927599993,683.3321129187132,683.3321129187132,683.3321129187132,683.3321129187132,684.8141636514429,684.8141636514429,,,,,ds,001,1,29,m,2024-02-06_13h32.24.549,eye_track_exp,2023.1.3,120.15807504518719,
-168,0,0,180,0,0,0,168,180,180,f,abs,resp,freq_top,,,,,0,88,88,783,,,,,,,,,,,0.7404497822281965,,,,,,,,,,,,,,,,,,,,,,,599.1784904488873,599.1794654122139,599.1794759956973,599.9249685542256,599.9249829862486,685.6301168737289,685.6301168737289,601.3997670350788,f,1,1.4219207801291418,None,601.4002721558812,601.4003116034106,601.400320583336,601.4008741315931,,,,,,,,,,,ds,001,1,29,m,2024-02-06_13h32.24.549,eye_track_exp,2023.1.3,120.15807504518719,
0,90,180,180,180,180,168,0,168,0,f,present,resp,freq_top,,,,,0,89,89,615,,,,,,,,,,,0.8858159076873159,,,,,,,,,,,,,,,,,,,,,,,601.4013500676381,601.599059801813,601.5990745545477,602.4887712447395,602.4887863181857,688.1862542357987,688.1862542357987,603.639620521182,f,1,1.1064386832138666,None,603.6401060785756,603.640145526105,603.6401545060304,603.6403857391088,,,,,,,,,,,ds,001,1,29,m,2024-02-06_13h32.24.549,eye_track_exp,2023.1.3,120.15807504518719,
0,90,0,-168,0,0,180,180,180,12,None,present,inhibit,freq_top,,,,,0,90,90,157,,,,,,,,,,,1.0225388941624525,,,,,,,,,,,,,,,,,,,,,,,603.6408757864651,603.8304545189229,603.8304692716575,604.8541034731144,604.8541179051374,690.5508975756127,690.5508975756127,607.8848828087667,None,1,,,607.885331484324,607.88537029043,607.8853789496438,607.8858154381594,692.041258908567,692.041258908567,692.041258908567,692.041258908567,693.5316535955301,693.5316535955301,,,,,ds,001,1,29,m,2024-02-06_13h32.24.549,eye_track_exp,2023.1.3,120.15807504518719,
90,0,12,180,180,-168,0,0,0,0,None,present,inhibit,freq_top,,,,,0,91,91,277,,,,,,,,,,,1.0222702848383878,,,,,,,,,,,,,,,,,,,,,,,607.8863022783995,607.8870091268113,607.8870197102948,608.9086424084674,608.908657802625,694.6057161714987,694.6057161714987,611.9406770094026,None,1,,,611.9412520453384,611.941296303542,611.9413059248907,611.9417651839314,696.0961333082751,696.0961333082751,696.0961333082751,696.0961333082751,697.5864988104806,697.5864988104806,,,,,ds,001,1,29,m,2024-02-06_13h32.24.549,eye_track_exp,2023.1.3,120.15807504518719,
180,12,0,270,180,0,180,0,168,180,None,present,inhibit,freq_top,,,,,0,92,92,78,,,,,,,,,,,1.0681871894037709,,,,,,,,,,,,,,,,,,,,,,,611.9422475342087,611.9429803602618,611.9429906230337,613.0136122840248,613.0136270367593,698.7105385197106,698.7105385197106,616.0449628070734,None,1,,,616.0453483024413,616.0453871085474,616.0453960884728,616.045932639014,700.2009299995575,700.2009299995575,700.2009299995575,700.2009299995575,701.6912967846094,701.6912967846094,,,,,ds,001,1,29,m,2024-02-06_13h32.24.549,eye_track_exp,2023.1.3,120.15807504518719,
168,180,180,12,180,180,180,0,0,0,None,abs,inhibit,freq_top,,,,,0,93,93,399,,,,,,,,,,,0.9489037085784235,,,,,,,,,,,,,,,,,,,,,,,616.0464185171193,616.0473338280844,616.0473440908563,616.9930527448746,616.9930674976091,702.690467103647,702.690467103647,620.0247836319052,None,1,,,620.0251569402316,620.0251954256261,620.0252044055514,620.0256415354903,704.1808293987363,704.1808293987363,704.1808293987363,704.1808293987363,705.6711852795931,705.6711852795931,,,,,ds,001,1,29,m,2024-02-06_13h32.24.549,eye_track_exp,2023.1.3,120.15807504518719,
12,0,180,0,0,180,180,180,168,0,None,abs,inhibit,freq_top,,,,,0,94,94,376,,,,,,,,,,,0.7085144488930681,,,,,,,,,,,,,,,,,,,,,,,620.0261303000001,620.0269433039583,620.0269535667302,620.7314947791356,620.7315165875258,706.4288854052479,706.4288854052479,623.7635415671125,None,1,,,623.7639302695966,623.7639684342795,623.7639774142049,623.7643664374007,707.9192499453186,707.9192499453186,707.9192499453186,707.9192499453186,709.4096808726947,709.4096808726947,,,,,ds,001,1,29,m,2024-02-06_13h32.24.549,eye_track_exp,2023.1.3,120.15807504518719,
0,168,0,0,0,0,0,168,0,0,f,abs,resp,freq_top,,,,,0,95,95,981,,,,,,,,,,,0.7047236804975852,,,,,,,,,,,,,,,,,,,,,,,623.7648770103007,623.7657349138857,623.7657451766576,624.4699781851956,624.4699926172185,710.16731974243,710.16731974243,625.9714236324696,f,1,1.4596662928925639,None,625.971900851361,625.9719415817369,625.9719502409506,625.9724197627633,711.6494153747867,711.6494153747867,711.6494153747867,711.6494153747867,,,,,,,ds,001,1,29,m,2024-02-06_13h32.24.549,eye_track_exp,2023.1.3,120.15807504518719,
90,180,180,-12,0,0,180,180,-12,0,j,present,resp,freq_top,,,,,0,96,96,706,,,,,,,,,,,1.095414535666838,,,,,,,,,,,,,,,,,,,,,,,625.9729088479846,626.1943560527584,626.1943704847813,627.2926025299016,627.2926179240593,712.9899023946255,712.9899023946255,628.34334295682,j,1,1.0047824001204049,None,628.3438702067243,628.343909333542,628.3439183134674,628.3444378662928,,,,,,,,,,,ds,001,1,29,m,2024-02-06_13h32.24.549,eye_track_exp,2023.1.3,120.15807504518719,
0,90,0,168,180,180,180,168,0,0,f,present,resp,freq_top,,,,,0,97,97,639,,,,,,,,,,,1.0128856342323038,,,,,,,,,,,,,,,,,,,,,,,628.3449154058958,628.5425443207424,628.5425587527653,629.5578833161325,629.5578980688671,715.2546058999392,715.2546058999392,630.3916411647476,f,1,0.7882112948262261,None,630.3921456441268,630.3921850916562,630.3921940715816,630.392624787288,,,,,,,,,,,ds,001,1,29,m,2024-02-06_13h32.24.549,eye_track_exp,2023.1.3,120.15807504518719,
168,0,0,90,0,180,12,0,180,180,None,present,inhibit,freq_top,,,,,0,98,98,48,,,,,,,,,,,0.8866584307519767,,,,,,,,,,,,,,,,,,,,,,,630.3930997611982,630.3938470192742,630.3938576027576,631.2891911203932,631.2892058731278,716.9864316534672,716.9864316534672,634.3209197624425,None,1,,,634.3213235383728,634.3213626651906,634.3213719658276,634.3218193585383,718.4851651632775,718.4851651632775,718.4851651632775,718.4851651632775,719.9589216520753,719.9589216520753,,,,,ds,001,1,29,m,2024-02-06_13h32.24.549,eye_track_exp,2023.1.3,120.15807504518719,
180,180,180,180,168,180,168,180,180,180,f,abs,resp,freq_top,,,,,0,99,99,755,,,,,,,,,,,0.7564953796133163,,,,,,,,,,,,,,,,,,,,,,,634.3223219136478,634.3231471046475,634.3231573674194,635.0774557049145,635.0774698162259,720.774862366608,720.774862366608,636.1110194588568,f,1,0.9954086408735634,None,636.1115229761012,636.111563706477,636.1115726864024,636.1120396425221,,,,,,,,,,,ds,001,1,29,m,2024-02-06_13h32.24.549,eye_track_exp,2023.1.3,120.15807504518719,
180,168,0,180,180,0,180,0,-168,180,f,abs,resp,freq_top,,,,,0,100,100,890,,,,,,,,,,,1.0062022721463786,,,,,,,,,,,,,,,,,,,,,,,636.1125187856832,636.1132852864564,636.1132955492283,637.1178935917328,637.1179083444674,722.8147758899268,722.8147758899268,638.1271663268193,f,1,0.9716724531211298,None,638.1276922938771,638.1277310999832,638.1277397591969,638.1282022253538,,,,,,,,,,,ds,001,1,29,m,2024-02-06_13h32.24.549,eye_track_exp,2023.1.3,120.15807504518719,
0,180,168,180,90,168,180,180,180,180,f,present,resp,freq_top,,,,,0,101,101,421,,,,,,,,,,,1.0298512417367713,,,,,,,,,,,,,,,,,,,,,,,638.1286810478034,638.4675568124601,638.4675718859062,639.4993691602423,639.4993835922652,725.2043798944603,725.2043798944603,640.3915520069171,f,1,0.8377310933169042,None,640.3921661696705,640.3922056171999,640.3922145971253,640.392567379908,,,,,,,,,,,ds,001,1,29,m,2024-02-06_13h32.24.549,eye_track_exp,2023.1.3,120.15807504518719,
0,180,168,180,0,12,180,180,180,180,None,abs,inhibit,freq_top,,,,,0,102,102,385,,,,,,,,,,,1.093129958655233,,,,,,,,,,,,,,,,,,,,,,,640.393031449623,640.4409685362658,640.4409820061538,641.538776279912,641.5387907119349,727.2359901939215,727.2359901939215,644.5708009387871,None,1,,,644.5712390308607,644.5712781576784,644.5712874583156,644.571847420805,728.7263415848158,728.7263415848158,728.7263415848158,728.7263415848158,730.2167439688576,730.2167439688576,,,,,ds,001,1,29,m,2024-02-06_13h32.24.549,eye_track_exp,2023.1.3,120.15807504518719,
180,0,168,180,180,180,180,0,12,0,None,abs,inhibit,freq_top,,,,,0,103,103,388,,,,,,,,,,,0.7519741933062436,,,,,,,,,,,,,,,,,,,,,,,644.5723239982732,644.5730581071729,644.5730686906564,645.3269141833431,645.3269282946545,731.024389156612,731.024389156612,647.7850988401143,f,0,2.409314568457887,None,647.7856325042511,648.2907013514147,648.2907128970329,648.2915172417773,732.5147286811762,732.5147286811762,732.5147286811762,732.5147286811762,,,733.4639452789006,,,,ds,001,1,29,m,2024-02-06_13h32.24.549,eye_track_exp,2023.1.3,120.15807504518719,
180,180,0,0,-168,0,0,-168,180,180,f,abs,resp,freq_top,,,,,0,104,104,813,,,,,,,,,,,0.7531630119497568,,,,,,,,,,,,,,,,,,,,,,,648.2920342289098,648.2930778245233,648.2930887287183,649.0493257679601,649.0493408414062,734.7461782399732,734.7461782399732,650.0333472735985,f,1,0.9437051169584834,None,650.0338216060853,650.0345566771197,650.0345669398915,650.035122091707,,,,,,,,,,,ds,001,1,29,m,2024-02-06_13h32.24.549,eye_track_exp,2023.1.3,120.15807504518719,
180,0,168,0,0,0,12,0,0,0,None,abs,inhibit,freq_top,,,,,0,105,105,386,,,,,,,,,,,0.9520004595373841,,,,,,,,,,,,,,,,,,,,,,,650.0356294574907,650.0910339935075,650.0910477841072,651.0478444009844,651.047860115854,736.7444342101803,736.7444342101803,654.0789422032759,None,1,,,654.0793193601418,654.0793732396941,654.0793828610427,654.0799408992626,738.2348343492408,738.2348343492408,738.2348343492408,738.2348343492408,739.7168947033194,739.7168947033194,,,,,ds,001,1,29,m,2024-02-06_13h32.24.549,eye_track_exp,2023.1.3,120.15807504518719,
90,0,180,0,0,180,168,0,180,168,f,present,resp,freq_top,,,,,0,106,106,552,,,,,,,,,,,0.7397947039405731,,,,,,,,,,,,,,,,,,,,,,,654.0804261359445,654.0811544720349,654.0811647348067,654.8193748945661,654.8193896473007,740.5245004435442,740.5245004435442,656.0777719265724,f,1,1.2130249453389865,None,656.078292120821,656.0783322097735,656.078341189699,656.0788049387023,,,,,,,,,,,ds,001,1,29,m,2024-02-06_13h32.24.549,eye_track_exp,2023.1.3,120.15807504518719,
90,180,0,-168,180,0,180,0,0,-168,f,present,resp,freq_top,,,,,0,107,107,724,,,,,,,,,,,0.7539555200461225,,,,,,,,,,,,,,,,,,,,,,,656.0793132666209,656.426275133368,656.4262908482373,657.1834653275461,657.183479759569,742.8808248446314,742.8808248446314,657.8682388377923,f,1,0.6486985327485968,None,657.8687417136135,657.8687821232778,657.8687914239148,657.8694187358445,,,,,,,,,,,ds,001,1,29,m,2024-02-06_13h32.24.549,eye_track_exp,2023.1.3,120.15807504518719,
180,180,180,-168,180,-168,0,180,0,180,f,abs,resp,freq_top,,,,,0,108,108,869,,,,,,,,,,,0.9926971794531099,,,,,,,,,,,,,,,,,,,,,,,657.8699023689684,657.950177129028,657.9501909196277,658.9491360991077,658.9491508518421,744.6459914575253,744.6459914575253,659.7493792626584,f,1,0.7556632345863932,None,659.7498850248841,659.7499251138366,659.7499344144736,659.7508737788104,,,,,,,,,,,ds,001,1,29,m,2024-02-06_13h32.24.549,eye_track_exp,2023.1.3,120.15807504518719,
180,90,180,-168,180,12,0,0,0,0,None,present,inhibit,freq_top,,,,,0,109,109,261,,,,,,,,,,,0.8525439698136789,,,,,,,,,,,,,,,,,,,,,,,659.7513493941436,659.7907699837014,659.7907824914547,660.6474843701193,660.6474997642769,746.3445356833372,746.3445356833372,663.6788069912567,None,1,,,663.6792005044152,663.6792396312329,663.6792489318699,663.6799349340264,747.8348697558038,747.8348697558038,747.8348697558038,747.8348697558038,749.3252933068127,749.3252933068127,,,,,ds,001,1,29,m,2024-02-06_13h32.24.549,eye_track_exp,2023.1.3,120.15807504518719,
180,180,0,0,0,12,180,180,168,180,None,abs,inhibit,freq_top,,,,,0,110,110,371,,,,,,,,,,,0.7634436154951543,,,,,,,,,,,,,,,,,,,,,,,663.6804448655031,663.6812014242163,663.6812123284113,664.4445890497508,664.4446038024852,750.1495612985743,750.1495612985743,667.483624464652,None,1,,,667.4840753851907,667.4841148327201,667.4841241333571,667.4845753746073,751.6399604755,751.6399604755,751.6399604755,751.6399604755,753.1136983630238,753.1136983630238,,,,,ds,001,1,29,m,2024-02-06_13h32.24.549,eye_track_exp,2023.1.3,120.15807504518719,
0,12,180,0,270,180,0,180,-12,0,j,present,resp,freq_top,,,,,0,111,111,708,,,,,,,,,,,0.7065950012787062,,,,,,,,,,,,,,,,,,,,,,,667.4850602905775,667.4857870231098,667.4857976065933,668.1913272522135,668.1913420049478,753.8880299518996,753.8880299518996,669.2577931320249,j,1,1.032348526045837,None,669.258323909757,669.2583630365747,669.2583723372117,669.2587315342267,,,,,,,,,,,ds,001,1,29,m,2024-02-06_13h32.24.549,eye_track_exp,2023.1.3,120.15807504518719,
270,180,0,0,0,12,180,180,168,180,None,present,inhibit,freq_top,,,,,0,112,112,68,,,,,,,,,,,0.9043073518371356,,,,,,,,,,,,,,,,,,,,,,,669.2592151673506,669.4738478916098,669.4738626443442,670.3807161233918,670.3807308761264,756.0778165054878,756.0778165054878,673.4119492659873,None,1,,,673.412332516374,673.4123726053266,673.4123815852519,673.413086509394,757.5765211512521,757.5765211512521,757.5765211512521,757.5765211512521,759.050247172446,759.050247172446,,,,,ds,001,1,29,m,2024-02-06_13h32.24.549,eye_track_exp,2023.1.3,120.15807504518719,
180,180,0,0,180,180,180,168,0,168,f,abs,resp,freq_top,,,,,0,113,113,909,,,,,,,,,,,0.9165946242169537,,,,,,,,,,,,,,,,,,,,,,,673.4135788017317,673.6197662268854,673.6197899595455,674.535406883626,674.5354209949372,760.2325287534004,760.2325287534004,675.5866286986869,f,1,1.0074285917019665,None,675.5871367058941,675.5871758327118,675.587184812637,675.5876357331757,,,,,,,,,,,ds,001,1,29,m,2024-02-06_13h32.24.549,eye_track_exp,2023.1.3,120.15807504518719,
0,0,180,180,180,12,0,-168,0,0,None,abs,inhibit,freq_top,,,,,0,114,114,364,,,,,,,,,,,0.7037626418287128,,,,,,,,,,,,,,,,,,,,,,,675.5881283462248,675.8676432763131,675.8676583497592,676.5757668375205,676.5757815902549,762.2808102843237,762.2808102843237,679.6152380995142,None,1,,,679.6156325748076,679.615672022337,679.615681322974,679.6164863091416,763.7711850871663,763.7711850871663,763.7711850871663,763.7711850871663,765.244917201881,765.244917201881,,,,,ds,001,1,29,m,2024-02-06_13h32.24.549,eye_track_exp,2023.1.3,120.15807504518719,
90,0,180,180,180,168,0,168,0,0,f,present,resp,freq_top,,,,,0,115,115,644,,,,,,,,,,,0.9850077073296268,,,,,,,,,,,,,,,,,,,,,,,679.6170093897948,679.823473909789,679.8234880211002,680.8131283943316,680.8131437884894,766.5188081329902,766.5188081329902,682.1879405374999,f,1,1.3296148443342304,None,682.1884677874042,682.1885069142219,682.1885162148589,682.1890659145766,,,,,,,,,,,ds,001,1,29,m,2024-02-06_13h32.24.549,eye_track_exp,2023.1.3,120.15807504518719,
270,0,0,12,180,0,180,-168,0,0,None,present,inhibit,freq_top,,,,,0,116,116,287,,,,,,,,,,,0.7747145018996724,,,,,,,,,,,,,,,,,,,,,,,682.1895665454164,682.4710570590872,682.4710718118218,683.2450288095248,683.2450432415477,768.950029280971,768.950029280971,686.2843810875075,None,1,,,686.284759206508,686.2847986540374,686.2848079546744,686.2853525230063,770.440438399957,770.440438399957,770.440438399957,770.440438399957,771.9142022651222,771.9142022651222,,,,,ds,001,1,29,m,2024-02-06_13h32.24.549,eye_track_exp,2023.1.3,120.15807504518719,
0,12,0,0,0,90,0,12,0,0,j,present,resp,freq_top,,,,,0,117,117,648,,,,,,,,,,,1.0173187023774959,,,,,,,,,,,,,,,,,,,,,,,686.2858351939952,686.2865561537184,686.2865670579134,687.3079389595986,687.3079533916217,773.0132178087315,773.0132178087315,688.2995985331933,j,1,0.9461463738144289,None,688.3001033332843,688.3001431015251,688.3001520814504,688.3005119198889,,,,,,,,,,,ds,001,1,29,m,2024-02-06_13h32.24.549,eye_track_exp,2023.1.3,120.15807504518719,
180,270,0,180,180,12,180,0,0,-168,None,present,inhibit,freq_top,,,,,0,118,118,326,,,,,,,,,,,0.9114545863068088,,,,,,,,,,,,,,,,,,,,,,,688.3010157578448,688.3986740498757,688.3986888026103,689.3143573612618,689.3143724347079,775.0198584635477,775.0198584635477,692.354050555697,None,1,,,692.3544450309904,692.3544847992313,692.35449442058,692.3549607352762,776.5102127408466,776.5102127408466,776.5102127408466,776.5102127408466,777.9839474212542,777.9839474212542,,,,,ds,001,1,29,m,2024-02-06_13h32.24.549,eye_track_exp,2023.1.3,120.15807504518719,
180,270,0,12,180,0,0,180,0,-168,None,present,inhibit,freq_top,,,,,0,119,119,315,,,,,,,,,,,0.9479612886171422,,,,,,,,,,,,,,,,,,,,,,,692.3554475755165,692.3563699421371,692.3563805256207,693.3023364482984,693.3023508803213,778.9997347714898,778.9997347714898,696.333660031571,None,1,,,696.3340320570506,696.3340718252917,696.334080805217,696.3345166523094,780.4901073293511,780.4901073293511,780.4901073293511,780.4901073293511,781.9805007334676,781.9805007334676,,,,,ds,001,1,29,m,2024-02-06_13h32.24.549,eye_track_exp,2023.1.3,120.15807504518719,
270,180,12,180,180,180,180,12,180,180,j,present,resp,freq_top,,,,,0,120,120,451,,,,,,,,,,,0.7315841344508284,,,,,,,,,,,,,,,,,,,,,,,696.3350057375309,696.3357404878537,696.3357507506256,697.0658016860451,697.065816118068,782.7631339426428,782.7631339426428,698.4664625444105,f,0,1.3556482894248916,None,698.4669644580969,698.9720589621901,698.9720711492315,698.9728918502686,,,,,,,784.1452907026344,,,,ds,001,1,29,m,2024-02-06_13h32.24.549,eye_track_exp,2023.1.3,120.15807504518719,
180,-168,0,180,0,180,0,180,-168,180,f,abs,resp,freq_top,,,,,0,121,121,885,,,,,,,,,,,0.7621777673449126,,,,,,,,,,,,,,,,,,,,,,,698.9734187794614,698.9741695653653,698.9741801488486,699.7387069420596,699.7387223362174,785.4441964987273,785.4441964987273,700.8481796087702,f,1,1.0586013378850225,None,700.8486844088612,700.849413065663,700.8494233284349,700.849909527252,,,,,,,,,,,ds,001,1,29,m,2024-02-06_13h32.24.549,eye_track_exp,2023.1.3,120.15807504518719,
12,180,180,90,0,180,0,12,0,0,j,present,resp,freq_top,,,,,0,122,122,649,,,,,,,,,,,0.9307976272203802,,,,,,,,,,,,,,,,,,,,,,,700.85039797105,701.104815613268,701.1048313281375,702.0368606694022,702.0368760635598,787.7338844014207,787.7338844014207,703.1621424947388,j,1,1.0892527096005438,None,703.1626460119832,703.1626854595123,703.1626947601495,703.1631706961945,,,,,,,,,,,ds,001,1,29,m,2024-02-06_13h32.24.549,eye_track_exp,2023.1.3,120.15807504518719,
0,168,0,270,0,0,0,168,0,0,f,present,resp,freq_top,,,,,0,123,123,646,,,,,,,,,,,0.7582640825329212,,,,,,,,,,,,,,,,,,,,,,,703.1636536878949,703.4282013273613,703.4282164008074,704.1848668373281,704.184881269351,789.8820015355673,789.8820015355673,705.1941793406553,f,1,0.9727526098593557,None,705.1946976106343,705.1947364167403,705.1947450759541,705.1951918272417,,,,,,,,,,,ds,001,1,29,m,2024-02-06_13h32.24.549,eye_track_exp,2023.1.3,120.15807504518719,
12,0,270,180,0,180,168,180,0,0,None,present,inhibit,freq_top,,,,,0,124,124,215,,,,,,,,,,,0.7826854726539709,,,,,,,,,,,,,,,,,,,,,,,705.1956815538864,705.5097672724054,705.5097817044283,706.2914935091175,706.2915082618521,791.9968836451826,791.9968836451826,709.3310722095042,None,1,,,709.3314583462953,709.3314977938247,709.3315067737502,749.6716349172854,793.4872699936436,793.4872699936436,793.4872699936436,793.4872699936436,794.9609953734143,794.9609953734143,,,,,ds,001,1,29,m,2024-02-06_13h32.24.549,eye_track_exp,2023.1.3,120.15807504518719,
180,0,90,180,12,0,180,180,12,180,j,present,resp,freq_top,,,,,0,125,125,495,,,,,,,,,,,0.8525549299708921,,,,,,,,,,,,,,,,,,,,,,,749.6722131603373,749.6732288540396,749.6732410410813,750.5288367853663,750.5288512173892,836.2254974718303,836.2254974718303,751.712351502502,j,1,1.138450192912444,None,751.7129056921823,751.7129461018466,751.7129554024835,751.7134220378915,,,,,,,,,,,ds,001,1,29,m,2024-02-06_13h32.24.549,eye_track_exp,2023.1.3,120.15807504518719,
0,168,0,0,0,0,0,0,0,168,f,abs,resp,freq_top,,,,,0,126,126,931,,,,,,,,,,,1.065167121408964,,,,,,,,,,,,,,,,,,,,,,,751.7138995774945,751.8946632303486,751.8946783037946,752.9594476191331,752.9594793695836,838.6567227890623,838.6567227890623,753.7018690431825,f,1,0.7070683684096934,None,753.7023924445474,754.2078320343443,754.2078442213859,754.2091110322873,,,,,,,839.3811029016065,,,,ds,001,1,29,m,2024-02-06_13h32.24.549,eye_track_exp,2023.1.3,120.15807504518719,
180,90,180,180,168,0,0,180,-12,180,None,present,inhibit,freq_top,,,,,0,127,127,145,,,,,,,,,,,0.7623054809745995,,,,,,,,,,,,,,,,,,,,,,,754.2096446964241,754.2104984307581,754.2105093349531,754.9742414047681,754.9742558367913,840.671643576499,840.671643576499,758.0057256645626,None,1,,,758.0061076321027,758.0069588007437,758.0069697049388,758.0076031103896,842.1620273592671,842.1620273592671,842.1620273592671,842.1620273592671,843.652394144319,843.652394144319,,,,,ds,001,1,29,m,2024-02-06_13h32.24.549,eye_track_exp,2023.1.3,120.15807504518719,
168,0,0,90,0,180,12,0,180,180,None,present,inhibit,freq_top,,,,,0,128,128,50,,,,,,,,,,,1.0450154570291321,,,,,,,,,,,,,,,,,,,,,,,758.0081560172235,758.0090892880395,758.0091001922345,759.0631298375339,759.0631510045008,844.7680882957577,844.7680882957577,762.10239969263,None,1,,,762.1027742838029,762.1028137313323,762.1028227112575,762.1032919123585,846.2585083189388,846.2585083189388,846.2585083189388,846.2585083189388,847.7322202288215,847.7322202288215,,,,,ds,001,1,29,m,2024-02-06_13h32.24.549,eye_track_exp,2023.1.3,120.15807504518719,
270,0,0,0,168,180,180,180,180,12,None,present,inhibit,freq_top,,,,,0,129,129,148,,,,,,,,,,,0.9182436048914983,,,,,,,,,,,,,,,,,,,,,,,762.1037816390032,762.1047100991449,762.1047210033399,763.0258859177451,763.0259006704797,848.7230414622397,848.7230414622397,766.0570013591758,None,1,,,766.0573791574649,766.0574186049943,766.0574279056312,766.05821332839,850.2134172272172,850.2134172272172,850.2134172272172,850.2134172272172,851.7037958785991,851.7037958785991,,,,,ds,001,1,29,m,2024-02-06_13h32.24.549,eye_track_exp,2023.1.3,120.15807504518719,
12,180,90,0,168,180,0,180,0,180,None,present,inhibit,freq_top,,,,,0,130,130,123,,,,,,,,,,,0.9018424867327588,,,,,,,,,,,,,,,,,,,,,,,766.0587072242857,766.0594887985052,766.0595000234119,766.9644314777173,766.9644459097402,852.6613134551994,852.6613134551994,769.9960334386764,None,1,,,769.9964301589511,769.9964696064804,769.9964792278291,769.9970616401321,854.1516812023865,854.1516812023865,854.1516812023865,854.1516812023865,855.6420842278515,855.6420842278515,,,,,ds,001,1,29,m,2024-02-06_13h32.24.549,eye_track_exp,2023.1.3,120.15807504518719,
0,0,0,0,0,168,0,0,0,168,f,abs,resp,freq_top,,,,,0,131,131,929,,,,,,,,,,,1.0133145987271164,,,,,,,,,,,,,,,,,,,,,,,769.9975552153161,769.9983374309587,769.9983476937306,771.0107470464064,771.0107611577176,856.7078310722095,856.7078310722095,772.0451860223612,f,1,0.9908211818524819,None,772.0456940295684,772.0457328356744,772.0457418155999,772.0461965846779,,,,,,,,,,,ds,001,1,29,m,2024-02-06_13h32.24.549,eye_track_exp,2023.1.3,120.15807504518719,
0,0,270,0,168,0,0,-12,0,0,None,present,inhibit,freq_top,,,,,0,132,132,300,,,,,,,,,,,0.9470317450663633,,,,,,,,,,,,,,,,,,,,,,,772.0466856698991,772.0474047053527,772.0474146474129,773.0008527721992,773.0008665627989,858.6977870256756,858.6977870256756,776.0320307523958,None,1,,,776.0324444703864,776.0324852007624,776.0324945013994,776.0330589538515,860.1881836369084,860.1881836369084,860.1881836369084,860.1881836369084,861.6785577983276,861.6785577983276,,,,,ds,001,1,29,m,2024-02-06_13h32.24.549,eye_track_exp,2023.1.3,120.15807504518719,
180,90,180,-168,180,-168,180,0,180,180,f,present,resp,freq_top,,,,,0,133,133,462,,,,,,,,,,,0.8764934827513863,,,,,,,,,,,,,,,,,,,,,,,776.0335566982868,776.0343119741532,776.0343228783482,776.9141272186029,776.9141419713375,862.6110733384091,862.6110733384091,777.7975013999063,f,1,0.8474483347093269,None,777.7980238391361,777.7980626452423,777.7980716251676,777.798654678894,,,,,,,,,,,ds,001,1,29,m,2024-02-06_13h32.24.549,eye_track_exp,2023.1.3,120.15807504518719,
168,0,12,180,180,0,180,0,180,90,None,present,inhibit,freq_top,,,,,0,134,134,2,,,,,,,,,,,0.8683533172920029,,,,,,,,,,,,,,,,,,,,,,,777.7991338220551,778.030442267739,778.0304570204736,778.903908063524,778.9039231369701,864.6010331404148,864.6010331404148,781.9349449306077,None,1,,,781.9353179182225,781.9353567243285,781.9353660249654,781.9359086690275,866.0914137160664,866.0914137160664,866.0914137160664,866.0914137160664,867.5817907638902,867.5817907638902,,,,,ds,001,1,29,m,2024-02-06_13h32.24.549,eye_track_exp,2023.1.3,120.15807504518719,
0,0,0,168,0,0,0,168,0,0,f,abs,resp,freq_top,,,,,0,135,135,979,,,,,,,,,,,0.861573622825839,,,,,,,,,,,,,,,,,,,,,,,781.9363887743235,781.9371081304886,781.9371187139722,782.8003515640786,782.8003659961015,868.4976822171179,868.4976822171179,784.0173944361665,f,1,1.168835373983086,None,784.0179601714652,784.0179996189946,784.0180085989199,784.0184790828674,,,,,,,,,,,ds,001,1,29,m,2024-02-06_13h32.24.549,eye_track_exp,2023.1.3,120.15807504518719,
0,0,0,0,0,168,0,0,0,168,f,abs,resp,freq_top,,,,,0,136,136,927,,,,,,,,,,,0.714275951689465,,,,,,,,,,,,,,,,,,,,,,,784.0189588674517,784.1007153151985,784.1007291057982,784.8159176232961,784.8159323760304,870.5125811961645,870.5125811961645,785.4821251378258,f,1,0.6260813078409342,None,785.4826283343585,785.4826674611762,785.4826764411017,785.4832482699211,,,,,,,,,,,ds,001,1,29,m,2024-02-06_13h32.24.549,eye_track_exp,2023.1.3,120.15807504518719,
180,168,0,168,180,0,180,0,180,180,f,abs,resp,freq_top,,,,,0,137,137,799,,,,,,,,,,,1.0090412676450178,,,,,,,,,,,,,,,,,,,,,,,785.4837283752173,785.484467294791,785.4844775575629,786.4973538084183,786.4973688818646,872.194504221527,872.194504221527,787.1978306424559,f,1,0.655775034657438,None,787.1983348011235,787.1983736072297,787.1983825871549,787.1989502467235,,,,,,,,,,,ds,001,1,29,m,2024-02-06_13h32.24.549,eye_track_exp,2023.1.3,120.15807504518719,
180,90,0,12,180,180,180,180,-12,0,j,present,resp,freq_top,,,,,0,138,138,705,,,,,,,,,,,0.7831871126061609,,,,,,,,,,,,,,,,,,,,,,,787.1994319555776,787.3967369516873,787.396751704422,788.1791155158359,788.1791302685702,873.8763820265513,873.8763820265513,789.1884376405118,j,1,0.9740389841695674,None,789.1889527033744,789.1889921509038,789.1890011308293,789.1893606485559,,,,,,,,,,,ds,001,1,29,m,2024-02-06_13h32.24.549,eye_track_exp,2023.1.3,120.15807504518719,
180,180,168,0,0,0,0,168,0,180,f,abs,resp,freq_top,,,,,0,139,139,876,,,,,,,,,,,0.8772107070608638,,,,,,,,,,,,,,,,,,,,,,,789.1898404331404,789.2793943425187,789.2794087745416,790.1611640035843,790.1611787563189,875.8580164755974,875.8580164755974,791.2277209654959,f,1,1.0240231730866185,None,791.2282283312796,791.2283049813572,791.2283139612824,791.2287767481508,,,,,,,,,,,ds,001,1,29,m,2024-02-06_13h32.24.549,eye_track_exp,2023.1.3,120.15807504518719,
0,-168,0,0,180,180,180,180,0,12,None,abs,inhibit,freq_top,,,,,0,140,140,397,,,,,,,,,,,0.917744478118544,,,,,,,,,,,,,,,,,,,,,,,791.2292453078286,791.3526031841533,791.352616974753,792.276001854996,792.2760159663072,877.9728677968972,877.9728677968972,795.3074835490974,None,1,,,795.3078635923679,795.3079033606087,795.3079123405342,795.3084630023867,879.4632384304887,879.4632384304887,879.4632384304887,879.4632384304887,880.953633758875,880.953633758875,,,,,ds,001,1,29,m,2024-02-06_13h32.24.549,eye_track_exp,2023.1.3,120.15807504518719,
12,180,180,180,90,0,0,12,0,180,j,present,resp,freq_top,,,,,0,141,141,525,,,,,,,,,,,0.7025867351718105,,,,,,,,,,,,,,,,,,,,,,,795.308948880492,795.3096717644847,795.3096826686798,796.0145327263759,796.014547799822,881.7196348634059,881.7196348634059,797.0234866741115,j,1,0.9539117642839869,None,797.0240447123314,797.0240838391491,797.0240924983628,797.0245748486401,,,,,,,,,,,ds,001,1,29,m,2024-02-06_13h32.24.549,eye_track_exp,2023.1.3,120.15807504518719,
180,168,180,270,180,168,180,180,180,180,f,present,resp,freq_top,,,,,0,142,142,420,,,,,,,,,,,1.0949800147299615,,,,,,,,,,,,,,,,,,,,,,,797.0250562367827,797.2051117583784,797.2051261904013,798.3041234534484,798.3041372440481,884.0010028652378,884.0010028652378,799.9041338445048,f,1,1.5527833083756946,None,799.9046533973302,799.9047024662083,799.9047201053473,799.9052983483992,885.4996799298026,885.4996799298026,885.4996799298026,885.4996799298026,,,,,,,ds,001,1,29,m,2024-02-06_13h32.24.549,eye_track_exp,2023.1.3,120.15807504518719,
90,0,180,180,180,180,168,0,0,12,None,present,inhibit,freq_top,,,,,0,143,143,164,,,,,,,,,,,0.8250063857890971,,,,,,,,,,,,,,,,,,,,,,,799.905843878866,800.0955473681441,800.0955621208788,800.9180671608618,800.9180825550196,886.615423470831,886.615423470831,803.9497826537348,None,1,,,803.9501909196277,803.9502316500035,803.9502412713522,803.9507053410672,888.105786086632,888.105786086632,888.105786086632,888.105786086632,889.5878682491007,889.5878682491007,,,,,ds,001,1,29,m,2024-02-06_13h32.24.549,eye_track_exp,2023.1.3,120.15807504518719,
168,0,180,180,180,180,0,168,180,180,f,abs,resp,freq_top,,,,,0,144,144,779,,,,,,,,,,,0.9337024792247239,,,,,,,,,,,,,,,,,,,,,,,803.9512111032928,803.9522540574832,803.9522649616782,804.8896100980543,804.8896248507889,890.5870068176878,890.5870068176878,805.5914919697017,f,1,0.6617890189668856,None,805.592003184025,805.5920442351124,805.5920538564611,805.5926920725859,,,,,,,,,,,ds,001,1,29,m,2024-02-06_13h32.24.549,eye_track_exp,2023.1.3,120.15807504518719,
0,-168,0,90,0,180,180,180,180,12,None,present,inhibit,freq_top,,,,,0,145,145,153,,,,,,,,,,,0.8957507656185351,,,,,,,,,,,,,,,,,,,,,,,805.5931994383699,805.772687300397,805.7727020531316,806.6721066840793,806.6721211161022,892.3771142111809,892.3771142111809,807.7233891136365,j,0,0.9997687153555148,None,807.7240529866912,808.2279817040434,808.2279942117967,808.2299726817843,,,,,,,893.4012493641892,,,,ds,001,1,29,m,2024-02-06_13h32.24.549,eye_track_exp,2023.1.3,120.15807504518719,
180,168,180,0,180,0,180,0,0,168,f,abs,resp,freq_top,,,,,0,146,146,921,,,,,,,,,,,0.8644291668358347,,,,,,,,,,,,,,,,,,,,,,,808.2306590046522,808.503487738874,808.5035024916086,809.3692676806712,809.3692827541175,895.0664828775273,895.0664828775273,810.0034104473735,f,1,0.5985947183972371,None,810.0039893318486,810.004715102246,810.0047247235947,810.0053116258604,,,,,,,,,,,ds,001,1,29,m,2024-02-06_13h32.24.549,eye_track_exp,2023.1.3,120.15807504518719,
0,0,0,168,0,0,168,0,0,0,f,abs,resp,freq_top,,,,,0,147,147,1000,,,,,,,,,,,0.7059947702328744,,,,,,,,,,,,,,,,,,,,,,,810.0057875619053,810.186305549658,810.1863206231043,810.892864038157,810.8928874501054,896.5901658271507,896.5901658271507,811.5271479179722,f,1,0.595032895138786,None,811.5276482281005,811.5276867134947,811.5276956934202,811.5281809301022,,,,,,,,,,,ds,001,1,29,m,2024-02-06_13h32.24.549,eye_track_exp,2023.1.3,120.15807504518719,
0,270,0,0,0,-168,0,0,0,12,None,present,inhibit,freq_top,,,,,0,148,148,172,,,,,,,,,,,0.9478001800695256,,,,,,,,,,,,,,,,,,,,,,,811.5286767502677,811.6264601198308,811.6264735897188,812.5753245761956,812.5753393289302,898.272060950602,898.272060950602,815.6066763820908,None,1,,,815.6070484075707,815.6070865722535,815.6070952314673,815.6076529489754,899.7624174728824,899.7624174728824,899.7624174728824,899.7624174728824,901.2528079905942,901.2528079905942,,,,,ds,001,1,29,m,2024-02-06_13h32.24.549,eye_track_exp,2023.1.3,120.15807504518719,
168,0,0,0,0,0,0,0,168,180,f,abs,resp,freq_top,,,,,0,149,149,842,,,,,,,,,,,0.7420619482050479,,,,,,,,,,,,,,,,,,,,,,,815.6081186222485,815.6089967306658,815.6090069934377,816.3551685564065,816.3551833091409,902.060449329809,902.060449329809,817.9379115130981,f,1,1.5400186651641548,None,817.9384345937514,817.9384733998576,817.9384823797828,817.9389377902841,903.5508276604794,903.5508276604794,903.5508276604794,903.5508276604794,,,,,,,ds,001,1,29,m,2024-02-06_13h32.24.549,eye_track_exp,2023.1.3,120.15807504518719,
