ori10,ori11,ori12,ori13,ori14,ori16,ori17,ori18,ori19,ori20,corrAns,distractor,responses,dist_freq,practice_trials.thisRepN,practice_trials.thisTrialN,practice_trials.thisN,practice_trials.thisIndex,trials.thisRepN,trials.thisTrialN,trials.thisN,trials.thisIndex,intro_2.started,intro_2.stopped,key_resp.keys,key_resp.rt,key_resp.duration,start_et_record_2.started,start_et_record_2.stopped,fix_check_3.started,fix_check_3.stopped,fix_practice_2.started,fixdur,fix_practice_2.stopped,practice_search_2.started,int14_2.started,per15_2.started,practice_search_2.stopped,response_2.keys,response_2.corr,feedback_4.started,text_feedback.started,feedback_4.stopped,pause_pract_2.started,pause_pract_2.stopped,response_2.rt,response_2.duration,text_feedback.stopped,stop_et_record_2.started,stop_et_record_2.stopped,break_3.started,break_3.stopped,key_resp_2.keys,key_resp_2.rt,key_resp_2.duration,fix_check_2.started,fix_check_2.stopped,fixation_2.started,fixation_2.stopped,search_displays_2.started,int14.started,per15.started,int14.stopped,int14_3.started,per15.stopped,per15_3.started,int14_3.stopped,per15_3.stopped,search_displays_2.stopped,response.keys,response.corr,feedback_6.started,feedback_6.stopped,pause_4.started,pause_4.stopped,response.rt,response.duration,text_feedback_2.started,text_feedback_2.stopped,end_2.started,end_2.stopped,participant,session,group,age,gender,date,expName,psychopyVersion,frameRate,
,,,,,,,,,,,,,,,,,,,,,,1.0263027434120886e-05,9.348504869165481,space,9.333752598070873,None,,,,,,,,,,,,,,,,,,,,,,,,,,,,,,,,,,,,,,,,,,,,,,,,,,,,,,,ES,001,1,24,F,2024-02-08_13h01.40.124,eye_track_exp,2023.1.3,120.07363106799905,
180,0,90,180,12,0,180,180,12,180,j,present,resp,freq_top,0,0,0,41,,,,,,,,,,66.34640255190061,66.84801929962487,66.89095307615025,67.47567373575475,67.4756875266994,0.8446565416645344,68.32417603916292,68.32418918866824,10437.631157336076,10437.631157336076,71.3294528394581,None,0,71.32997208456072,10440.620328237312,71.82874565264501,71.82875559495369,71.82924854104567,,,,,,,,,,,,,,,,,,,,,,,,,,,,,,,,,,,,,ES,001,1,24,F,2024-02-08_13h01.40.124,eye_track_exp,2023.1.3,120.07363106799905,
168,0,180,0,0,180,180,0,168,0,f,abs,resp,freq_top,0,1,1,13,,,,,,,,,,,,71.82978799148623,71.83055354927455,71.83056349158323,1.0674436476276756,72.90327223837812,72.90328506716469,10442.21066822579,10442.21066822579,74.40410803377017,f,1,74.40474690729934,,74.40550284349956,74.40551278580824,74.40600220398483,1.4497325184560168,None,,,,,,,,,,,,,,,,,,,,,,,,,,,,,,,,,,,ES,001,1,24,F,2024-02-08_13h01.40.124,eye_track_exp,2023.1.3,120.07363106799905,
180,180,0,168,180,180,180,180,168,180,f,abs,resp,freq_top,0,2,2,10,,,,,,,,,,,,74.40648616992621,74.6111527690282,74.61116623925409,0.9612468332992056,75.5772680972459,75.57728220891113,10444.883467479669,10444.883467479669,77.50952248693648,f,1,77.51014115512953,,77.51018028292492,77.51018894235494,77.51064981648415,1.8971604752017583,None,,,,,,,,,,,,,,,,,,,,,,,,,,,,,,,,,,,ES,001,1,24,F,2024-02-08_13h01.40.124,eye_track_exp,2023.1.3,120.07363106799905,
180,0,180,12,0,180,180,0,12,180,j,abs,resp,freq_top,0,3,3,3,,,,,,,,,,,,77.51114276257613,77.70091866934672,77.70093342244945,1.0932873751764611,78.79844309856162,78.79845624806694,10448.105742549362,10448.105742549362,79.84916907954721,j,1,79.84972264165117,,79.84976176944838,79.84977139103648,79.85024669754966,1.0106487246752067,None,,,,,,,,,,,,,,,,,,,,,,,,,,,,,,,,,,,ES,001,1,24,F,2024-02-08_13h01.40.124,eye_track_exp,2023.1.3,120.07363106799905,
90,0,0,12,0,0,0,12,0,0,j,present,resp,freq_top,0,4,4,34,,,,,,,,,,,,79.8507579246616,80.07276807992821,80.07278187087286,0.9953229360010383,81.07189219458087,81.07190662696485,10450.37882410067,10450.37882410067,83.02986348888953,j,1,83.03039075198467,,83.03042795546207,83.03043629417334,83.03089620614264,1.9209511376405999,None,,,,,,,,,,,,,,,,,,,,,,,,,,,,,,,,,,,ES,001,1,24,F,2024-02-08_13h01.40.124,eye_track_exp,2023.1.3,120.07363106799905,
180,270,180,12,180,0,12,180,0,180,j,present,resp,freq_top,0,5,5,33,,,,,,,,,,,,83.03140166030062,83.22924238322776,83.22925424985442,0.7880255980964717,84.01951899750566,84.01953182629222,10453.326372648002,10453.326372648002,85.35332592684608,j,1,85.3539057879625,,85.35394363288106,85.3539519715905,85.35443305105582,1.2935984986955873,None,,,,,,,,,,,,,,,,,,,,,,,,,,,,,,,,,,,ES,001,1,24,F,2024-02-08_13h01.40.124,eye_track_exp,2023.1.3,120.07363106799905,
180,0,180,12,180,180,12,180,180,180,j,abs,resp,freq_top,0,6,6,1,,,,,,,,,,,,85.3549038674937,85.54318105136917,85.54319323871641,0.8770164701200125,86.42614692551615,86.42615943358214,10455.732690440116,10455.732690440116,87.35900779605254,j,1,87.35958060133635,,87.35961972913174,87.359628067843,87.36029035390675,0.8870096984841211,None,,,,,,,,,,,,,,,,,,,,,,,,,,,,,,,,,,,ES,001,1,24,F,2024-02-08_13h01.40.124,eye_track_exp,2023.1.3,120.07363106799905,
90,0,180,180,180,168,0,168,0,0,f,present,resp,freq_top,0,7,7,44,,,,,,,,,,,,87.36076341538137,87.55888925807267,87.55890176613866,0.963873933572923,88.52398662214182,88.52399945092657,10457.830942582203,10457.830942582203,89.64099188322689,f,1,89.64149380946765,,89.64153197510677,89.64154031381622,89.64193415753834,1.077473869608525,None,,,,,,,,,,,,,,,,,,,,,,,,,,,,,,,,,,,ES,001,1,24,F,2024-02-08_13h01.40.124,eye_track_exp,2023.1.3,120.07363106799905,
180,0,180,0,168,180,0,180,12,180,None,abs,inhibit,freq_top,0,8,8,30,,,,,,,,,,,,89.64242261355685,89.8650844711392,89.86509665848462,0.9054513063756178,90.77181855735034,90.77183138613691,10460.079056429979,10460.079056429979,93.78569513416915,None,1,93.78609635444263,,93.78613484080051,93.78614414166987,93.78733946378088,,,,,,,,,,,,,,,,,,,,,,,,,,,,,,,,,,,,,ES,001,1,24,F,2024-02-08_13h01.40.124,eye_track_exp,2023.1.3,120.07363106799905,
0,0,168,0,0,0,0,0,180,168,f,abs,resp,freq_top,0,9,9,19,,,,,,,,,,,,93.78783722066873,94.01127618194732,94.01128901073207,0.8956166435419606,94.91050991857446,94.91052306807978,10464.21727312613,10464.21727312613,96.99371036706907,f,1,96.99423698872306,,96.99427483364161,96.99428349307163,96.99472640689964,2.034414050263308,None,,,,,,,,,,,,,,,,,,,,,,,,,,,,,,,,,,,ES,001,1,24,F,2024-02-08_13h01.40.124,eye_track_exp,2023.1.3,120.07363106799905,
180,168,180,0,180,0,180,0,0,168,f,abs,resp,freq_top,0,10,10,20,,,,,,,,,,,,96.99523314393628,97.21733534574196,97.21734721236862,1.058699585379562,98.28249242780839,98.28250557731371,10467.589452877944,10467.589452877944,99.59079380677395,f,1,99.59136789493641,,99.59140606057372,99.59141439928499,99.59186116174897,1.2705089293971241,None,,,,,,,,,,,,,,,,,,,,,,,,,,,,,,,,,,,ES,001,1,24,F,2024-02-08_13h01.40.124,eye_track_exp,2023.1.3,120.07363106799905,
180,180,168,0,270,0,0,168,0,180,f,present,resp,freq_top,0,11,11,47,,,,,,,,,,,,99.59232941242772,99.88204605020837,99.88205791683504,1.0760311413955426,101.03877949498201,101.03879296520608,10470.345502933302,10470.345502933302,102.47094087597361,f,1,102.47146364899345,,102.47150245607008,102.4715111155001,102.47196236803939,1.3937358308479588,None,,,,,,,,,,,,,,,,,,,,,,,,,,,,,,,,,,,ES,001,1,24,F,2024-02-08_13h01.40.124,eye_track_exp,2023.1.3,120.07363106799905,
0,180,180,180,12,0,180,12,0,0,j,abs,resp,freq_top,0,12,12,8,,,,,,,,,,,,102.47247872666594,102.67954078078401,102.67955264741067,1.0042847412745077,103.68607993359728,103.68609276238385,10472.993262001008,10472.993262001008,105.03564606406326,j,1,105.03614189663313,,105.03617974154986,105.03618840097988,105.03665472734247,1.3057755821240562,None,,,,,,,,,,,,,,,,,,,,,,,,,,,,,,,,,,,ES,001,1,24,F,2024-02-08_13h01.40.124,eye_track_exp,2023.1.3,120.07363106799905,
180,12,180,12,180,90,180,180,0,180,j,present,resp,freq_top,0,13,13,37,,,,,,,,,,,,105.03712907169574,105.23576293430233,105.23577512164775,0.8919823494193756,106.13422020867256,106.1342330374573,10475.441225880279,10475.441225880279,107.17539227219459,j,1,107.17589868851246,,107.17593813702842,107.17594711717902,107.17642851736309,1.0019751826342826,None,,,,,,,,,,,,,,,,,,,,,,,,,,,,,,,,,,,ES,001,1,24,F,2024-02-08_13h01.40.124,eye_track_exp,2023.1.3,120.07363106799905,
0,180,0,12,0,180,180,12,0,0,j,abs,resp,freq_top,0,14,14,2,,,,,,,,,,,,107.17689676804366,107.40824820364833,107.40826071171432,0.9311370214735176,108.34031401018729,108.34032651825328,10477.647712242639,10477.647712242639,109.84042497918381,j,1,109.840957053073,,109.84099489799155,109.84100355742157,109.84145064060431,1.4513127041385587,None,,,,,,,,,,,,,,,,,,,,,,,,,,,,,,,,,,,ES,001,1,24,F,2024-02-08_13h01.40.124,eye_track_exp,2023.1.3,120.07363106799905,
0,0,180,0,168,0,0,0,180,168,f,abs,resp,freq_top,0,15,15,17,,,,,,,,,,,,109.84193685158425,110.06432609747026,110.06433956769433,0.7783243812647055,110.84656515676033,110.84657766482633,10480.153950560425,10480.153950560425,112.41363885941792,f,1,112.41425881048781,,112.41429697612512,112.41430563555696,112.41458947244064,1.5208873785753667,None,,,,,,,,,,,,,,,,,,,,,,,,,,,,,,,,,,,ES,001,1,24,F,2024-02-08_13h01.40.124,eye_track_exp,2023.1.3,120.07363106799905,
12,0,0,12,0,0,180,0,180,180,j,abs,resp,freq_top,0,16,16,6,,,,,,,,,,,,112.4150853050105,112.60494427816775,112.60495710695432,0.8040033820945618,113.41109106256954,113.41110357063553,10482.718477107672,10482.718477107672,114.41106636715631,j,1,114.4115974788856,,114.41163628596223,114.41164526611283,114.41219754533995,0.9570375497763735,None,,,,,,,,,,,,,,,,,,,,,,,,,,,,,,,,,,,ES,001,1,24,F,2024-02-08_13h01.40.124,eye_track_exp,2023.1.3,120.07363106799905,
12,0,0,12,0,0,90,180,180,0,j,present,resp,freq_top,0,17,17,38,,,,,,,,,,,,114.412693377908,114.61963420000211,114.61964702878868,1.0314970099054108,115.65124047943573,115.65125394966162,10484.958264111343,10484.958264111343,116.78434041439505,j,1,116.78483945415974,,116.78487729907829,116.78488563778774,116.78534843623493,1.0844934604477885,None,,,,,,,,,,,,,,,,,,,,,,,,,,,,,,,,,,,ES,001,1,24,F,2024-02-08_13h01.40.124,eye_track_exp,2023.1.3,120.07363106799905,
0,180,0,180,168,180,12,180,0,180,None,abs,inhibit,freq_top,0,18,18,28,,,,,,,,,,,,116.78583785440969,116.9755059993804,116.9755185074464,0.8343838744035457,117.81606792585444,117.81608043392043,10487.123129402678,10487.123129402678,120.82975944743703,None,1,120.83015200828049,,120.83019241895636,120.83020204054628,120.83083578256083,,,,,,,,,,,,,,,,,,,,,,,,,,,,,,,,,,,,,ES,001,1,24,F,2024-02-08_13h01.40.124,eye_track_exp,2023.1.3,120.07363106799905,
0,180,0,0,180,168,180,0,0,168,f,abs,resp,freq_top,0,19,19,16,,,,,,,,,,,,120.83132391785875,120.83205163073035,120.8320618937596,0.7302870406852047,121.56263847070477,121.56265162021009,10490.869989557368,10490.869989557368,122.79588728372255,f,1,122.79638856852398,,122.7964267341631,122.79643539359313,122.7968847218126,1.1893970072227376,None,,,,,,,,,,,,,,,,,,,,,,,,,,,,,,,,,,,ES,001,1,24,F,2024-02-08_13h01.40.124,eye_track_exp,2023.1.3,120.07363106799905,
180,0,180,0,12,180,180,180,12,180,j,abs,resp,freq_top,0,20,20,9,,,,,,,,,,,,122.7973616319232,122.98733638487283,122.98734857222007,0.9803500659791591,123.96909449298619,123.96910732177275,10493.276311839558,10493.276311839558,124.65319847286082,j,1,124.6537465827314,,124.65379116276199,124.65379982219201,124.65425588552534,0.6387733358018295,None,,,,,,,,,,,,,,,,,,,,,,,,,,,,,,,,,,,ES,001,1,24,F,2024-02-08_13h01.40.124,eye_track_exp,2023.1.3,120.07363106799905,
180,270,0,0,168,0,0,168,180,0,f,present,resp,freq_top,0,21,21,45,,,,,,,,,,,,124.65474658658059,124.72734147790106,124.7273527030884,0.9872660279144658,125.71784849717187,125.71786164667719,10495.024850961581,10495.024850961581,127.04321504765176,j,0,127.04375129089567,10496.332098776518,127.54886644849103,127.54887703223903,127.54984817132026,1.2900375484945243,None,,,,,,,,,,,,,,,,,,,,,,,,,,,,,,,,,,,ES,001,1,24,F,2024-02-08_13h01.40.124,eye_track_exp,2023.1.3,120.07363106799905,
0,270,0,0,12,0,0,12,0,0,j,present,resp,freq_top,0,22,22,40,,,,,,,,,,,,127.5503966019096,127.55133470686815,127.55134464917683,0.7072486287821346,128.2569721243308,128.2569852738361,10497.56440627738,10497.56440627738,129.257751152345,j,1,129.25828803702825,,129.25901125982455,129.2590205606939,129.25960266684706,0.9581911783346868,None,,,,,,,,,,,,,,,,,,,,,,,,,,,,,,,,,,,ES,001,1,24,F,2024-02-08_13h01.40.124,eye_track_exp,2023.1.3,120.07363106799905,
0,0,180,0,0,0,168,0,180,168,f,abs,resp,freq_top,0,23,23,15,,,,,,,,,,,,129.26011229036158,129.46572212593492,129.46573495471966,0.7729889728333508,130.2392963026141,130.23930913140066,10499.546086771341,10499.546086771341,131.22238956660476,f,1,131.22290784954748,,131.2229460151866,131.22295499533539,131.22340624787466,0.9457527083990271,None,,,,,,,,,,,,,,,,,,,,,,,,,,,,,,,,,,,ES,001,1,24,F,2024-02-08_13h01.40.124,eye_track_exp,2023.1.3,120.07363106799905,
168,0,270,180,180,180,180,168,180,180,f,present,resp,freq_top,0,24,24,49,,,,,,,,,,,,131.22389598677,131.4138861342617,131.41389896304827,0.8706451394924282,132.2876906517904,132.2877031598582,10501.59437849023,10501.59437849023,134.07050315780543,f,1,134.0710227236268,,134.07106153070345,134.0710701901353,134.0714268303782,1.7441775259406995,None,,,,,,,,,,,,,,,,,,,,,,,,,,,,,,,,,,,ES,001,1,24,F,2024-02-08_13h01.40.124,eye_track_exp,2023.1.3,120.07363106799905,
0,168,180,90,0,180,0,168,0,0,f,present,resp,freq_top,0,25,25,48,,,,,,,,,,,,134.07194126468676,134.26943977975498,134.26945357069962,0.9168039011100612,135.18509917292795,135.1851120017127,10504.491939353198,10504.491939353198,136.65171963458306,f,1,136.65223118241556,,136.65227031021277,136.6522789696428,136.65274465456423,1.4223748121397648,None,,,,,,,,,,,,,,,,,,,,,,,,,,,,,,,,,,,ES,001,1,24,F,2024-02-08_13h01.40.124,eye_track_exp,2023.1.3,120.07363106799905,
0,180,0,12,0,12,0,180,180,180,j,abs,resp,freq_top,0,26,26,0,,,,,,,,,,,,136.65322573402955,136.70120026119366,136.70121341069898,0.9512880333476736,137.65765647590524,137.65766898397123,10506.964886971982,10506.964886971982,139.11619159534894,j,1,139.1167069918156,,139.11674451601357,139.11675285472484,139.1172140495728,1.4132121726428295,None,,,,,,,,,,,,,,,,,,,,,,,,,,,,,,,,,,,ES,001,1,24,F,2024-02-08_13h01.40.124,eye_track_exp,2023.1.3,120.07363106799905,
0,0,0,0,168,0,0,12,0,0,None,abs,inhibit,freq_top,0,27,27,29,,,,,,,,,,,,139.11770571278612,139.3238453772101,139.32385820599666,0.8720345316245517,140.19756554547348,140.19757933641813,10509.504427534679,10509.504427534679,143.211085161327,None,1,143.2114648933857,,143.2115065869384,143.21151620852834,143.2120370572302,,,,,,,,,,,,,,,,,,,,,,,,,,,,,,,,,,,,,ES,001,1,24,F,2024-02-08_13h01.40.124,eye_track_exp,2023.1.3,120.07363106799905,
180,12,180,-168,180,180,0,180,180,180,None,abs,inhibit,freq_top,0,28,28,26,,,,,,,,,,,,143.21250530790894,143.43705427987516,143.43706775009923,1.008031364693606,144.44430190238018,144.44431473116492,10513.75089063845,10513.75089063845,147.4575136273761,None,1,147.4581585945798,,147.4581986845351,147.45820830612502,147.45875064304164,,,,,,,,,,,,,,,,,,,,,,,,,,,,,,,,,,,,,ES,001,1,24,F,2024-02-08_13h01.40.124,eye_track_exp,2023.1.3,120.07363106799905,
180,0,180,0,12,0,12,180,180,180,j,abs,resp,freq_top,0,29,29,7,,,,,,,,,,,,147.45923172250696,147.67523608172814,147.67524858979414,1.0062833898454582,148.68217709625424,148.68218960432023,10517.98900284414,10517.98900284414,149.59897728919896,f,0,149.59949011991012,10518.888252937471,150.10500040410625,150.10501066713368,150.10578841226925,0.8696610108048617,None,,,,,,,,,,,,,,,,,,,,,,,,,,,,,,,,,,,ES,001,1,24,F,2024-02-08_13h01.40.124,eye_track_exp,2023.1.3,120.07363106799905,
0,0,0,-168,0,0,0,12,0,0,None,abs,inhibit,freq_top,0,30,30,23,,,,,,,,,,,,150.10634101221513,150.1071764868866,150.1071864291971,0.8326802203994415,150.9384263185093,150.93843946801462,10520.245453799052,10520.245453799052,153.9520751843811,None,1,153.9524629344305,,153.95318872298412,153.9531986652928,184.06987518874303,,,,,,,,,,,,,,,,,,,,,,,,,,,,,,,,,,,,,ES,001,1,24,F,2024-02-08_13h01.40.124,eye_track_exp,2023.1.3,120.07363106799905,
180,12,180,12,0,180,0,180,180,180,j,abs,resp,freq_top,0,31,31,5,,,,,,,,,,,,184.07044703186693,184.2863112366049,184.28632502754954,0.8836917635572676,185.17631145469386,185.17633294291045,10554.483506992328,10554.483506992328,186.40964814489234,j,1,186.41016995575228,,186.41020876282892,186.41021710154018,186.41067925854622,1.1895227293219932,None,,,,,,,,,,,,,,,,,,,,,,,,,,,,,,,,,,,ES,001,1,24,F,2024-02-08_13h01.40.124,eye_track_exp,2023.1.3,120.07363106799905,
180,180,0,168,180,180,180,0,0,168,f,abs,resp,freq_top,0,32,32,18,,,,,,,,,,,,186.41116899744156,186.67534031561263,186.67535282367862,0.9556924645040347,187.63277312164064,187.6327859504254,10556.93977654821,10556.93977654821,188.3837449021612,f,1,188.38428403188118,,188.3843231596784,188.3843318191084,188.38486421371636,0.7009445179877503,None,,,,,,,,,,,,,,,,,,,,,,,,,,,,,,,,,,,ES,001,1,24,F,2024-02-08_13h01.40.124,eye_track_exp,2023.1.3,120.07363106799905,
90,0,0,12,0,180,180,180,0,12,j,present,resp,freq_top,0,33,33,36,,,,,,,,,,,,188.38535587692968,188.59125019082785,188.59126269889384,0.7498251215601263,189.33960810625285,189.33962157647693,10558.646691392012,10558.646691392012,191.05607558463817,f,0,191.05659707477935,10560.345289334018,191.56202236826903,191.56203263129828,191.5628998572156,1.6663205874277764,None,,,,,,,,,,,,,,,,,,,,,,,,,,,,,,,,,,,ES,001,1,24,F,2024-02-08_13h01.40.124,eye_track_exp,2023.1.3,120.07363106799905,
180,270,0,0,0,0,0,168,0,168,f,present,resp,freq_top,0,34,34,43,,,,,,,,,,,,191.56346400306757,191.56439825939015,191.56440820169882,0.8342496128754535,192.4035393978411,192.40355190590708,10561.710797155089,10561.710797155089,194.5618180698566,j,0,194.5623652175691,10563.842334223224,195.05986168003074,195.05987258449932,195.06027316333348,2.122525999380173,None,10564.341913118331,,,,,,,,,,,,,,,,,,,,,,,,,,,,,,,,,,ES,001,1,24,F,2024-02-08_13h01.40.124,eye_track_exp,2023.1.3,120.07363106799905,
0,180,180,180,168,0,0,0,0,12,None,abs,inhibit,freq_top,0,35,35,31,,,,,,,,,,,,195.06081421737326,195.0616907441581,195.06170196934545,0.8291775748080275,195.89239759742486,195.89241106764894,10565.199557855898,10565.199557855898,198.90615967732992,None,1,198.90658014078144,,198.9073081743736,198.90731843740105,198.9090419847671,,,,,,,,,,,,,,,,,,,,,,,,,,,,,,,,,,,,,ES,001,1,24,F,2024-02-08_13h01.40.124,eye_track_exp,2023.1.3,120.07363106799905,
180,180,180,-168,180,180,12,180,0,180,None,abs,inhibit,freq_top,0,36,36,22,,,,,,,,,,,,198.90954840108316,199.11538177824877,199.11539460703352,0.7321999739620042,199.84782366064246,199.84783681014778,10569.154555116953,10569.154555116953,202.86117970947817,None,1,202.8615831747902,,202.86162486834291,202.86163416921408,202.86298311603423,,,,,,,,,,,,,,,,,,,,,,,,,,,,,,,,,,,,,ES,001,1,24,F,2024-02-08_13h01.40.124,eye_track_exp,2023.1.3,120.07363106799905,
90,0,0,12,0,12,180,180,180,0,j,present,resp,freq_top,0,37,37,32,,,,,,,,,,,,202.86347189277149,202.86443982465607,202.86444976696475,1.0944737640663933,203.96050594165172,203.96051877043647,10573.267817259079,10573.267817259079,205.62673236715455,j,1,205.62736001549638,,205.62740170904908,205.62741068919968,205.62799087103485,1.6205728167491316,None,,,,,,,,,,,,,,,,,,,,,,,,,,,,,,,,,,,ES,001,1,24,F,2024-02-08_13h01.40.124,eye_track_exp,2023.1.3,120.07363106799905,
0,0,168,0,0,0,0,0,168,0,f,abs,resp,freq_top,0,38,38,11,,,,,,,,,,,,205.62848830720213,205.83518794812517,205.83520045619116,0.7702521837329438,206.6082181842903,206.6082306923563,10575.915586269093,10575.915586269093,207.74185051385575,f,1,207.74234859146236,,207.74238675709967,207.7423954165297,207.74283736819962,1.084659913941664,None,,,,,,,,,,,,,,,,,,,,,,,,,,,,,,,,,,,ES,001,1,24,F,2024-02-08_13h01.40.124,eye_track_exp,2023.1.3,120.07363106799905,
0,180,0,0,180,0,180,168,0,168,f,abs,resp,freq_top,0,39,39,14,,,,,,,,,,,,207.74331010895366,207.9251190190589,207.9251315271249,0.8748762454216348,208.79840332932508,208.79841615811165,10578.105426319793,10578.105426319793,211.21431705317627,f,1,211.21481160286567,,211.21484944778422,211.2148577864955,211.2152054465878,2.367185055153982,None,,,,,,,,,,,,,,,,,,,,,,,,,,,,,,,,,,,ES,001,1,24,F,2024-02-08_13h01.40.124,eye_track_exp,2023.1.3,120.07363106799905,
0,180,0,-168,180,0,180,0,12,180,None,abs,inhibit,freq_top,0,40,40,24,,,,,,,,,,,,211.21572437097166,211.39707368982818,211.3970868393335,0.9132050002308251,212.31177765918255,212.3117904879673,10581.619166590763,10581.619166590763,215.3257648842773,None,1,215.32617348110216,,215.32621292961994,215.32622255120805,215.32730241424906,,,,,,,,,,,,,,,,,,,,,,,,,,,,,,,,,,,,,ES,001,1,24,F,2024-02-08_13h01.40.124,eye_track_exp,2023.1.3,120.07363106799905,
0,180,0,12,0,180,180,180,0,12,j,abs,resp,freq_top,0,41,41,4,,,,,,,,,,,,215.3277751550031,215.34322935174714,215.34323993549515,1.033466163895531,216.37566020138547,216.37567303017022,10585.68242372966,10585.68242372966,217.60884326687483,j,1,217.60935256966877,,217.60939105602665,217.60940003617543,217.6098567409481,1.189856598471465,None,,,,,,,,,,,,,,,,,,,,,,,,,,,,,,,,,,,ES,001,1,24,F,2024-02-08_13h01.40.124,eye_track_exp,2023.1.3,120.07363106799905,
0,0,0,-168,180,180,180,180,0,12,None,abs,inhibit,freq_top,0,42,42,25,,,,,,,,,,,,217.61034455552726,217.8083552598655,217.8083668057734,0.8835934888713093,218.69025217544004,218.69026628710526,10587.997152651003,10587.997152651003,221.70376473546276,None,1,221.70414607111888,,221.70418551963485,221.70419482050602,221.70501586279352,,,,,,,,,,,,,,,,,,,,,,,,,,,,,,,,,,,,,ES,001,1,24,F,2024-02-08_13h01.40.124,eye_track_exp,2023.1.3,120.07363106799905,
180,180,90,180,12,180,12,0,0,180,j,present,resp,freq_top,0,43,43,39,,,,,,,,,,,,221.70550367737087,221.9047064966253,221.9047190046913,1.0031352343700486,222.91183962221658,222.91185213028257,10592.218649334121,10592.218649334121,224.89366668505318,f,0,224.89421062556903,10594.175326524668,225.39320613164637,225.39321575323447,225.39358875018115,1.9334143029894904,None,10594.674915362086,,,,,,,,,,,,,,,,,,,,,,,,,,,,,,,,,,ES,001,1,24,F,2024-02-08_13h01.40.124,eye_track_exp,2023.1.3,120.07363106799905,
180,270,180,12,180,180,180,180,12,180,j,present,resp,freq_top,0,44,44,35,,,,,,,,,,,,225.39413140781653,225.5932787425736,225.59329157135835,1.0138744328555966,226.6084051638427,226.60841799262744,10595.915542330502,10595.915542330502,227.75794358413077,j,1,227.75845898059742,,227.75919599433837,227.7592056159283,227.75978387344549,1.100032006458946,None,,,,,,,,,,,,,,,,,,,,,,,,,,,,,,,,,,,ES,001,1,24,F,2024-02-08_13h01.40.124,eye_track_exp,2023.1.3,120.07363106799905,
12,0,0,-168,0,0,180,180,180,180,None,abs,inhibit,freq_top,0,45,45,27,,,,,,,,,,,,227.76029413839933,227.98313142962616,227.9831436169734,1.0087342373367512,228.99858755068817,228.9986007001935,10598.305213490237,10598.305213490237,232.01183263052917,None,1,232.01224283095326,,232.01228131730932,232.01229093889924,232.01293398178495,,,,,,,,,,,,,,,,,,,,,,,,,,,,,,,,,,,,,ES,001,1,24,F,2024-02-08_13h01.40.124,eye_track_exp,2023.1.3,120.07363106799905,
0,270,0,0,12,0,180,180,180,12,j,present,resp,freq_top,0,46,46,42,,,,,,,,,,,,232.013442322419,232.2294242312655,232.22943706005208,0.9467252129254807,233.17797759324276,233.1779904220275,10602.485057030366,10602.485057030366,235.09450741952787,j,1,235.09503500334176,,235.09507445185773,235.09508311128775,235.0958538005907,1.8750503836939743,None,,,,,,,,,,,,,,,,,,,,,,,,,,,,,,,,,,,ES,001,1,24,F,2024-02-08_13h01.40.124,eye_track_exp,2023.1.3,120.07363106799905,
0,0,0,-168,0,12,0,0,0,0,None,abs,inhibit,freq_top,0,47,47,21,,,,,,,,,,,,235.0963749700113,235.3436469287244,235.34365975750916,1.0634422456141581,236.4082866900062,236.40829887735163,10605.715704807073,10605.715704807073,239.42229283756024,None,1,239.42270111366634,,239.4227405621823,239.42274986305165,239.4236148439304,,,,,,,,,,,,,,,,,,,,,,,,,,,,,,,,,,,,,ES,001,1,24,F,2024-02-08_13h01.40.124,eye_track_exp,2023.1.3,120.07363106799905,
180,168,0,180,0,180,180,180,168,180,f,abs,resp,freq_top,0,48,48,12,,,,,,,,,,,,239.42409720627438,239.6808643907534,239.68087721953998,0.772159943818659,240.4551723739787,240.45518520276528,10609.762297032574,10609.762297032574,242.08782907438945,f,1,242.08833677358598,,242.08837590138137,242.0883845608114,242.08886692315536,1.589030681244708,None,,,,,,,,,,,,,,,,,,,,,,,,,,,,,,,,,,,ES,001,1,24,F,2024-02-08_13h01.40.124,eye_track_exp,2023.1.3,120.07363106799905,
90,0,180,168,180,180,0,168,0,0,f,present,resp,freq_top,0,49,49,46,,,,,,,,,,,,242.08934928549934,242.29596970866987,242.29598157529654,0.9281244018473132,243.22760029865276,243.22761312743933,10612.534983778,10612.534983778,244.82773634792647,f,1,244.82827579836703,,244.82831620904108,244.82832518919167,244.8287972885064,1.5521636374973014,None,,,,,,,,,,,,,,,,,,,,,,,,,,,,,,,,,,,ES,001,1,24,F,2024-02-08_13h01.40.124,eye_track_exp,2023.1.3,120.07363106799905,
,,,,,,,,,,,,,,,,,,,,,,,,,,,,,,,,,,,,,,,,,,,,,,,,244.8288489243696,245.3322014068035,245.33221776350547,247.74901410781422,space,2.398530589517918,None,,,,,,,,,,,,,,,,,,,,,,,,,,,ES,001,1,24,F,2024-02-08_13h01.40.124,eye_track_exp,2023.1.3,120.07363106799905,
180,270,0,180,180,180,180,12,0,-168,None,present,inhibit,freq_top,,,,,0,0,0,321,,,,,,247.74903880322745,248.25048621097812,,,,0.8896796892194564,,,,,,,,,,,,,,,,,,,,,,,248.42059270272875,248.9816792110796,248.9816946056235,249.87204953963737,249.87206397202135,10619.179433339705,10619.179433339705,10620.678156234084,10620.678156234084,10620.678156234084,10620.678156234084,10622.151946704093,10622.151946704093,252.9039332415632,None,1,252.90486396996857,252.90490662568118,252.9049162472711,252.9054162491957,,,,,,,ES,001,1,24,F,2024-02-08_13h01.40.124,eye_track_exp,2023.1.3,120.07363106799905,
180,180,180,-168,180,-168,0,180,0,180,f,abs,resp,freq_top,,,,,0,1,1,870,,,,,,,,,,,0.9190832383421834,,,,,,,,,,,,,,,,,,,,,,,252.9059008565764,253.08643779257545,253.08645254568,254.01032075812873,254.01033486979395,10623.317643300743,10623.317643300743,,,,,,,255.16057406250366,j,0,255.16153750431295,255.66679153351288,255.6668030794208,255.6678819803019,1.1050836615644357,None,10624.450028672336,,,,ES,001,1,24,F,2024-02-08_13h01.40.124,eye_track_exp,2023.1.3,120.07363106799905,
180,180,0,0,180,180,180,168,0,168,f,abs,resp,freq_top,,,,,0,2,2,910,,,,,,,,,,,0.8488021210344048,,,,,,,,,,,,,,,,,,,,,,,255.66841597850907,255.66909782847142,255.66910841221943,256.5170209122025,256.5170353445865,10625.832195633851,10625.832195633851,,,,,,,257.71701943689186,f,1,257.71753836127573,257.7183100127386,257.7183205964866,257.7189113620698,1.1512830054992946,None,,,,,ES,001,1,24,F,2024-02-08_13h01.40.124,eye_track_exp,2023.1.3,120.07363106799905,
0,168,0,0,0,0,0,168,0,0,f,abs,resp,freq_top,,,,,0,3,3,985,,,,,,,,,,,0.8602826919901876,,,,,,,,,,,,,,,,,,,,,,,257.71939276225567,257.91584637272354,257.91586208798617,258.7819080766185,258.7819221882819,10628.096969904951,10628.096969904951,,,,,,,259.69900782170953,f,1,259.69964188444465,259.6996813329606,259.6996906338318,259.70016145026784,0.8696998178814965,None,,,,,ES,001,1,24,F,2024-02-08_13h01.40.124,eye_track_exp,2023.1.3,120.07363106799905,
0,90,0,12,0,0,168,180,180,0,None,present,inhibit,freq_top,,,,,0,4,4,184,,,,,,,,,,,1.0355194949458673,,,,,,,,,,,,,,,,,,,,,,,259.70066658370706,259.90648777352544,259.9065012437495,260.9463625260905,260.94637663775393,10630.261829102614,10630.261829102614,10631.752247923981,10631.752247923981,10631.752247923981,10631.752247923981,10633.226014340016,10633.226014340016,263.9859633840788,None,1,263.98636300075486,263.9864024492708,263.98642457892674,263.9870993730565,,,,,,,ES,001,1,24,F,2024-02-08_13h01.40.124,eye_track_exp,2023.1.3,120.07363106799905,
-12,0,0,-168,0,0,270,0,0,0,None,present,inhibit,freq_top,,,,,0,5,5,242,,,,,,,,,,,1.0900064418319018,,,,,,,,,,,,,,,,,,,,,,,263.9876272775891,263.98836204629333,263.98837263004134,265.07627963930463,265.0762940716886,10634.383381206086,10634.383381206086,10635.873800348172,10635.873800348172,10635.873800348172,10635.873800348172,10637.36422975329,10637.36422975329,268.1078179261749,None,1,268.1082210707664,268.10826051928234,268.1082698201517,268.1088265894541,,,,,,,ES,001,1,24,F,2024-02-08_13h01.40.124,eye_track_exp,2023.1.3,120.07363106799905,
90,0,12,0,12,0,0,180,180,180,j,present,resp,freq_top,,,,,0,6,6,439,,,,,,,,,,,0.9633547491103508,,,,,,,,,,,,,,,,,,,,,,,268.10932691209746,268.2829664514411,268.282979921667,269.2477049302306,269.2477200040521,10638.554897902108,10638.554897902108,10640.036994048725,10640.036994048725,10640.036994048725,10640.036994048725,,,270.74881109228045,j,1,270.7493139806811,270.7493534291971,270.74936240934767,270.7497107108811,1.4519387488829807,None,,,,,ES,001,1,24,F,2024-02-08_13h01.40.124,eye_track_exp,2023.1.3,120.07363106799905,
90,0,12,0,180,180,0,0,180,-168,None,present,inhibit,freq_top,,,,,0,7,7,310,,,,,,,,,,,0.9384796552248286,,,,,,,,,,,,,,,,,,,,,,,270.7502123164031,270.95514960288347,270.9551633938281,271.8962568168954,271.8962712492794,10641.21101171653,10641.21101171653,10642.70142765142,10642.70142765142,10642.70142765142,10642.70142765142,10644.175213310635,10644.175213310635,274.93522810222385,None,1,274.93560238204736,274.9356437548813,274.93566139446193,274.93643240448546,,,,,,,ES,001,1,24,F,2024-02-08_13h01.40.124,eye_track_exp,2023.1.3,120.07363106799905,
0,270,0,-168,0,180,180,180,0,-12,None,present,inhibit,freq_top,,,,,0,8,8,332,,,,,,,,,,,0.7524733225380101,,,,,,,,,,,,,,,,,,,,,,,274.9369311235314,275.1685545293949,275.16856832033955,275.925255324908,275.92526975729197,10645.232654519517,10645.232654519517,10646.723071416567,10646.723071416567,10646.723071416567,10646.723071416567,10648.213486389299,10648.213486389299,278.95674197591507,None,1,278.95714479978597,278.9571836068644,278.9571925870132,278.9577413383231,,,,,,,ES,001,1,24,F,2024-02-08_13h01.40.124,eye_track_exp,2023.1.3,120.07363106799905,
0,0,180,0,180,-168,0,168,0,0,f,abs,resp,freq_top,,,,,0,9,9,988,,,,,,,,,,,0.9909468678781581,,,,,,,,,,,,,,,,,,,,,,,278.9582499996777,279.131777287148,279.13179171953016,280.12202837214136,280.1220424838066,10649.43746351814,10649.43746351814,10650.919569286347,10650.919569286347,10650.919569286347,10650.919569286347,10652.409996446426,10652.409996446426,283.16144225057906,None,0,283.1618287177498,283.66074051599935,283.6607507790268,283.661008958341,,,10652.443285541829,10652.942876303565,,,ES,001,1,24,F,2024-02-08_13h01.40.124,eye_track_exp,2023.1.3,120.07363106799905,
12,0,168,0,0,90,0,0,180,180,None,present,inhibit,freq_top,,,,,0,10,10,58,,,,,,,,,,,0.8250780065411311,,,,,,,,,,,,,,,,,,,,,,,283.6615484087815,283.66232294672045,283.6623338511872,284.4853565825124,284.48537037345704,10653.792167898016,10653.792167898016,10655.282577097794,10655.282577097794,10655.282577097794,10655.282577097794,10656.773000409237,10656.773000409237,287.51634547663343,None,1,287.51672777444765,287.51750070878916,287.5175109718184,287.51815465614345,,,,,,,ES,001,1,24,F,2024-02-08_13h01.40.124,eye_track_exp,2023.1.3,120.07363106799905,
180,-168,180,-168,0,180,0,180,0,180,f,abs,resp,freq_top,,,,,0,11,11,860,,,,,,,,,,,0.8832543758392153,,,,,,,,,,,,,,,,,,,,,,,287.5186488851141,287.72399508913986,287.7240082386452,288.60631663752247,288.6063307491877,10657.913710379898,10657.913710379898,,,,,,,289.99048488961307,f,1,289.9910057383149,289.99104646970954,289.9910557705789,289.9915297942134,1.3417372343168381,None,,,,,ES,001,1,24,F,2024-02-08_13h01.40.124,eye_track_exp,2023.1.3,120.07363106799905,
0,0,168,0,0,0,0,0,180,168,f,abs,resp,freq_top,,,,,0,12,12,902,,,,,,,,,,,0.9421233972759667,,,,,,,,,,,,,,,,,,,,,,,289.9920448699595,290.2808413630828,290.2808548333087,291.22914648805454,291.22916059971976,10660.54485392503,10660.54485392503,,,,,,,292.62073779629645,f,1,292.6212535134837,292.6212913584004,292.621300338551,292.62165409231784,1.333255161903594,None,,,,,ES,001,1,24,F,2024-02-08_13h01.40.124,eye_track_exp,2023.1.3,120.07363106799905,
12,0,270,180,180,0,0,-168,180,0,None,present,inhibit,freq_top,,,,,0,13,13,189,,,,,,,,,,,1.085783644537125,,,,,,,,,,,,,,,,,,,,,,,292.62215409424243,292.8115682292555,292.8115813787608,293.902447988894,293.9024621005592,10663.217623031262,10663.217623031262,,,,,,,295.24420235100297,f,0,295.2447305762562,295.7499271966408,295.74993906326745,295.750704300337,1.2842848002468372,None,10664.533177805686,,,,ES,001,1,24,F,2024-02-08_13h01.40.124,eye_track_exp,2023.1.3,120.07363106799905,
180,-168,180,270,0,180,12,0,180,180,None,present,inhibit,freq_top,,,,,0,14,14,51,,,,,,,,,,,1.0606260728713122,,,,,,,,,,,,,,,,,,,,,,,295.7512354120663,295.7521302198711,295.7521408036191,296.8167221939275,296.81673662631147,10666.131836941002,10666.131836941002,10667.622268911875,10667.622268911875,10667.622268911875,10667.622268911875,10669.096037252228,10669.096037252228,299.8559837305329,None,1,299.85637019770365,299.85713703837064,299.85714762211865,299.85787693858947,,,,,,,ES,001,1,24,F,2024-02-08_13h01.40.124,eye_track_exp,2023.1.3,120.07363106799905,
0,180,168,180,90,168,180,180,180,180,f,present,resp,freq_top,,,,,0,15,15,421,,,,,,,,,,,1.0137887374552799,,,,,,,,,,,,,,,,,,,,,,,299.8583987494494,299.85911010561904,299.8591203686465,300.87125992787514,300.8712737188198,10670.17845610695,10670.17845610695,,,,,,,302.28839751788473,f,1,302.28894274127924,302.28898283123453,302.28899341498254,302.28945172335443,1.3791690653555406,None,,,,,ES,001,1,24,F,2024-02-08_13h01.40.124,eye_track_exp,2023.1.3,120.07363106799905,
180,0,168,0,270,180,180,180,168,0,f,present,resp,freq_top,,,,,0,16,16,614,,,,,,,,,,,0.8372054691681856,,,,,,,,,,,,,,,,,,,,,,,302.2899821936444,302.4956760577643,302.4956892072696,303.33566325463653,303.33567736629993,10672.643066939321,10672.643066939321,10674.133485760689,10674.133485760689,10674.133485760689,10674.133485760689,,,305.12742319726567,f,1,305.1279395558922,305.1279796458475,305.12798894671687,305.1284501415648,1.7463561744801837,None,,,,,ES,001,1,24,F,2024-02-08_13h01.40.124,eye_track_exp,2023.1.3,120.07363106799905,
90,180,168,180,0,0,180,180,0,12,None,present,inhibit,freq_top,,,,,0,17,17,160,,,,,,,,,,,0.9330942972370802,,,,,,,,,,,,,,,,,,,,,,,305.129009155904,305.3350307954988,305.3350445864435,306.2670767174204,306.26709082908565,10675.582289283986,10675.582289283986,10677.07270265312,10677.07270265312,10677.07270265312,10677.07270265312,10678.554805214131,10678.554805214131,309.3064934823342,None,1,309.3068918161316,309.30693062320825,309.30693960335884,309.3076702027065,,,,,,,ES,001,1,24,F,2024-02-08_13h01.40.124,eye_track_exp,2023.1.3,120.07363106799905,
0,270,0,-12,0,0,0,-12,0,0,j,present,resp,freq_top,,,,,0,18,18,690,,,,,,,,,,,0.7776435532198817,,,,,,,,,,,,,,,,,,,,,,,309.30820548379234,309.52325602279416,309.52327911460816,310.3047571061834,310.30477153856737,10679.62056364553,10679.62056364553,10681.11098054258,10681.11098054258,10681.11098054258,10681.11098054258,,,312.05513459320537,j,1,312.0556544797473,312.0556929661034,312.055701946254,312.0561445393614,1.6965606011793852,None,,,,,ES,001,1,24,F,2024-02-08_13h01.40.124,eye_track_exp,2023.1.3,120.07363106799905,
180,180,270,0,-12,0,0,12,180,0,j,present,resp,freq_top,,,,,0,19,19,601,,,,,,,,,,,0.8268375768408159,,,,,,,,,,,,,,,,,,,,,,,312.05662626026606,312.1463860669119,312.1463988956966,312.97810671497064,312.97812146807337,10682.28501103917,10682.28501103917,,,,,,,314.06125199968665,j,1,314.06179882667857,314.0618385959133,314.0618475760639,314.06240659040304,1.0483938988066939,None,,,,,ES,001,1,24,F,2024-02-08_13h01.40.124,eye_track_exp,2023.1.3,120.07363106799905,
270,180,180,-168,180,0,180,180,-168,180,f,present,resp,freq_top,,,,,0,20,20,535,,,,,,,,,,,0.8340120035697476,,,,,,,,,,,,,,,,,,,,,,,314.06295085163765,314.26076142692,314.2607755385834,315.1013015444569,315.1013153354015,10684.416562218968,10684.416562218968,,,,,,,316.4596306977437,f,1,316.46013294470504,316.4601714310629,316.46018009049294,316.46062909799366,1.3005664536734685,None,,,,,ES,001,1,24,F,2024-02-08_13h01.40.124,eye_track_exp,2023.1.3,120.07363106799905,
0,90,0,0,0,-12,0,0,0,-12,j,present,resp,freq_top,,,,,0,21,21,743,,,,,,,,,,,0.8171453715630201,,,,,,,,,,,,,,,,,,,,,,,316.4611108188983,316.65878252257426,316.65879503064025,317.48296497613046,317.4829790877957,10686.797900761645,10686.797900761645,,,,,,,318.7321936453882,j,1,318.732745283176,318.7327885803279,318.7327975604767,318.7334014755652,1.1917735397813658,None,,,,,ES,001,1,24,F,2024-02-08_13h01.40.124,eye_track_exp,2023.1.3,120.07363106799905,
0,0,90,0,12,0,0,0,180,-168,None,present,inhibit,freq_top,,,,,0,22,22,313,,,,,,,,,,,1.0697450247589222,,,,,,,,,,,,,,,,,,,,,,,318.7339075711643,318.93154463711835,318.9315574659031,320.00567994488665,320.0056946979894,10689.312469451454,10689.312469451454,10690.802887952103,10690.802887952103,10690.802887952103,10690.802887952103,10692.29329715188,10692.29329715188,323.0369517137333,None,1,323.0373455574554,323.0373846852508,323.0373936654014,323.037937926636,,,,,,,ES,001,1,24,F,2024-02-08_13h01.40.124,eye_track_exp,2023.1.3,120.07363106799905,
90,180,0,0,0,-12,180,180,-12,0,j,present,resp,freq_top,,,,,0,23,23,707,,,,,,,,,,,0.7448497595774594,,,,,,,,,,,,,,,,,,,,,,,323.0384459465513,323.23691720429815,323.23692971236414,323.9853950688703,323.98540950125425,10693.30079365283,10693.30079365283,,,,,,,325.32705513940346,f,0,325.3275686115521,325.83312892801223,325.83314047392014,325.83427806649524,1.296245077195067,None,10694.616373122666,,,,ES,001,1,24,F,2024-02-08_13h01.40.124,eye_track_exp,2023.1.3,120.07363106799905,
180,0,168,180,168,0,180,180,0,180,f,abs,resp,freq_top,,,,,0,24,24,847,,,,,,,,,,,0.85342213407658,,,,,,,,,,,,,,,,,,,,,,,325.8348396465917,325.83550642273076,325.83551668576,326.69149817125617,326.6915119622008,10695.998547460733,10695.998547460733,10697.497304672115,10697.497304672115,10697.497304672115,10697.497304672115,,,328.2493258473078,f,1,328.2498460545703,328.25056959808535,328.2505798611146,328.2511276502664,1.5103247978362333,None,,,,,ES,001,1,24,F,2024-02-08_13h01.40.124,eye_track_exp,2023.1.3,120.07363106799905,
0,180,180,180,180,-168,0,0,0,12,None,abs,inhibit,freq_top,,,,,0,25,25,351,,,,,,,,,,,0.7084155466404627,,,,,,,,,,,,,,,,,,,,,,,328.25163085938584,328.48241911129844,328.4824329022431,329.1890578154871,329.18907256859165,10698.49646374521,10698.49646374521,10699.986872303549,10699.986872303549,10699.986872303549,10699.986872303549,10701.477295935712,10701.477295935712,332.2206939218486,None,1,332.22108199261675,332.22112304473194,332.221140363592,332.2216669852478,,,,,,,ES,001,1,24,F,2024-02-08_13h01.40.124,eye_track_exp,2023.1.3,120.07363106799905,
-12,180,180,90,180,180,0,12,0,0,j,present,resp,freq_top,,,,,0,26,26,651,,,,,,,,,,,0.7370980693441749,,,,,,,,,,,,,,,,,,,,,,,332.22217981595713,332.4124258977263,332.4124384057923,333.15319013414955,333.1532042458148,10702.468138748449,10702.468138748449,10703.950229442833,10703.950229442833,10703.950229442833,10703.950229442833,10705.440650829958,10705.440650829958,336.1926104269787,None,0,336.19298823471945,336.6913974652871,336.691407086877,336.6917746315885,,,10705.473964941493,10705.973539987966,,,ES,001,1,24,F,2024-02-08_13h01.40.124,eye_track_exp,2023.1.3,120.07363106799905,
180,0,-12,0,90,0,12,0,0,0,j,present,resp,freq_top,,,,,0,27,27,662,,,,,,,,,,,0.7245642158409559,,,,,,,,,,,,,,,,,,,,,,,336.6923108748324,336.69304532281603,336.6930555858453,337.41598684792734,337.41600095959257,10706.722903680193,10706.722903680193,10708.213312559252,10708.213312559252,10708.213312559252,10708.213312559252,,,340.23983318729734,j,1,340.2403681476644,340.2411070857215,340.241117028032,340.2416818153233,2.785664215434167,None,,,,,ES,001,1,24,F,2024-02-08_13h01.40.124,eye_track_exp,2023.1.3,120.07363106799905,
180,0,168,180,168,0,180,180,0,180,f,abs,resp,freq_top,,,,,0,28,28,850,,,,,,,,,,,0.934565976947492,,,,,,,,,,,,,,,,,,,,,,,340.24219111811726,340.2724898235647,340.2725013694726,341.21289113364037,341.212904924585,10710.519737086865,10710.519737086865,10712.010163284784,10712.010163284784,10712.010163284784,10712.010163284784,,,342.7383232392167,f,1,342.7388213168233,342.73885916174004,342.73886814189063,342.73931458363404,1.4851107816169815,None,,,,,ES,001,1,24,F,2024-02-08_13h01.40.124,eye_track_exp,2023.1.3,120.07363106799905,
0,0,-168,0,180,180,0,0,180,168,f,abs,resp,freq_top,,,,,0,29,29,897,,,,,,,,,,,1.0998575902915917,,,,,,,,,,,,,,,,,,,,,,,342.7397892487061,342.9453060755841,342.9453192250894,344.0436505849284,344.0436650173124,10713.359021907716,10713.359021907716,10714.841110998503,10714.841110998503,10714.841110998503,10714.841110998503,,,345.5529520960299,f,1,345.55346396458117,345.5535037338177,345.55351399684514,345.5539562692338,1.4611142171664824,None,,,,,ES,001,1,24,F,2024-02-08_13h01.40.124,eye_track_exp,2023.1.3,120.07363106799905,
0,-168,0,90,0,180,180,180,180,12,None,present,inhibit,freq_top,,,,,0,30,30,151,,,,,,,,,,,1.0027046649860452,,,,,,,,,,,,,,,,,,,,,,,345.5544591576345,345.7929077982335,345.7929222306175,346.8001477234666,346.8001618351318,10716.115053040614,10716.115053040614,10717.597153998026,10717.597153998026,10717.597153998026,10717.597153998026,,,348.7910941286482,f,0,348.79164255923934,349.29683982106326,349.29685136697117,349.2975697789716,1.93741111118959,None,10718.0800820914,,,,ES,001,1,24,F,2024-02-08_13h01.40.124,eye_track_exp,2023.1.3,120.07363106799905,
0,270,180,180,-168,0,0,180,-168,0,f,present,resp,freq_top,,,,,0,31,31,697,,,,,,,,,,,1.0602258284617683,,,,,,,,,,,,,,,,,,,,,,,349.29814386713406,349.3814331549693,349.38144598375584,350.4467833102626,350.44679710120727,10719.753684106545,10719.753684106545,10721.244110945905,10721.244110945905,10721.244110945905,10721.244110945905,10722.734521107843,10722.734521107843,353.4778693824337,None,0,353.4782699612697,353.97670452868806,353.97671447099856,353.9769639908809,,,10722.759511582468,10723.259077969511,,,ES,001,1,24,F,2024-02-08_13h01.40.124,eye_track_exp,2023.1.3,120.07363106799905,
0,180,0,180,180,168,180,180,168,180,f,abs,resp,freq_top,,,,,0,32,32,824,,,,,,,,,,,0.998659798547602,,,,,,,,,,,,,,,,,,,,,,,353.9775262124149,353.97833410519706,353.97834468894507,354.97639054415777,354.9764043351024,10724.283231365867,10724.283231365867,,,,,,,356.2594705303545,j,0,356.26000677359843,356.7577999017303,356.757809844039,356.7581619942084,1.2405110589746755,None,10725.540511060337,10726.040079371696,,,ES,001,1,24,F,2024-02-08_13h01.40.124,eye_track_exp,2023.1.3,120.07363106799905,
0,0,0,0,0,0,168,0,0,168,f,abs,resp,freq_top,,,,,0,33,33,924,,,,,,,,,,,0.9002845914019628,,,,,,,,,,,,,,,,,,,,,,,356.7587383274076,356.75939291619943,356.7594031792287,357.6656128888244,357.66562667976905,10726.972646463038,10726.972646463038,,,,,,,358.9156395085538,f,1,358.9161536221418,358.91691565201654,358.91692623576455,358.91739320356464,1.2069580113051188,None,,,,,ES,001,1,24,F,2024-02-08_13h01.40.124,eye_track_exp,2023.1.3,120.07363106799905,
0,0,180,0,180,180,168,0,168,0,f,abs,resp,freq_top,,,,,0,34,34,946,,,,,,,,,,,1.095551296041242,,,,,,,,,,,,,,,,,,,,,,,358.91793650264117,359.1814541941785,359.18146798512316,360.28011685740785,360.2801306483525,10729.595466050543,10729.595466050543,,,,,,,361.1467645160901,f,1,361.14729370350324,361.14733443489786,361.1473430943279,361.14789505283443,0.809013246925474,None,,,,,ES,001,1,24,F,2024-02-08_13h01.40.124,eye_track_exp,2023.1.3,120.07363106799905,
90,0,180,0,180,180,12,0,180,-168,None,present,inhibit,freq_top,,,,,0,35,35,305,,,,,,,,,,,0.7512220032226483,,,,,,,,,,,,,,,,,,,,,,,361.1484024313104,361.34607766290173,361.34609113312763,362.10365819239814,362.1036716626222,10731.418930412818,10731.418930412818,10732.909346347707,10732.909346347707,10732.909346347707,10732.909346347707,10734.383108273669,10734.383108273669,365.14288573272097,None,1,365.14327187917297,365.1433100448103,365.1433190249609,365.1437510343203,,,,,,,ES,001,1,24,F,2024-02-08_13h01.40.124,eye_track_exp,2023.1.3,120.07363106799905,
270,0,-168,0,0,0,-168,180,180,0,f,present,resp,freq_top,,,,,0,36,36,599,,,,,,,,,,,1.0479283687701488,,,,,,,,,,,,,,,,,,,,,,,365.1442571299176,365.32610356422083,365.3261163930056,366.3749276777198,366.37494275154313,10735.682030527378,10735.682030527378,10737.172462177532,10737.172462177532,10737.172462177532,10737.172462177532,,,368.11599948428193,f,1,368.11651263571184,368.11655240494656,368.11656170581773,368.11703284297437,1.697974012649297,None,,,,,ES,001,1,24,F,2024-02-08_13h01.40.124,eye_track_exp,2023.1.3,120.07363106799905,
180,180,90,180,12,180,12,0,0,180,j,present,resp,freq_top,,,,,0,37,37,529,,,,,,,,,,,1.0706208202018543,,,,,,,,,,,,,,,,,,,,,,,368.1175235440278,368.3150223798166,368.31503585004066,369.3889841782584,369.38899989352103,10738.696181960931,10738.696181960931,,,,,,,370.4565386396607,j,1,370.4570386415853,370.4570768072226,370.4570857873714,370.4575402471073,1.019050617177868,None,,,,,ES,001,1,24,F,2024-02-08_13h01.40.124,eye_track_exp,2023.1.3,120.07363106799905,
0,180,0,180,168,180,168,180,180,180,f,abs,resp,freq_top,,,,,0,38,38,756,,,,,,,,,,,0.8215780370593936,,,,,,,,,,,,,,,,,,,,,,,370.45802742024534,370.7379736548046,370.7379871250305,371.5621586741181,371.56217246506276,10740.877694205365,10740.877694205365,,,,,,,372.57080976578436,f,1,372.5714098322369,372.57144863931353,372.57145729874355,372.57192073863007,0.9507261079100999,None,,,,,ES,001,1,24,F,2024-02-08_13h01.40.124,eye_track_exp,2023.1.3,120.07363106799905,
12,0,270,180,12,0,180,0,180,180,j,present,resp,freq_top,,,,,0,39,39,460,,,,,,,,,,,0.9385985734844033,,,,,,,,,,,,,,,,,,,,,,,372.57242138199217,372.786489877446,372.7865030269513,373.7271952297433,373.7272093414085,10743.034213409415,10743.034213409415,10744.52462774071,10744.52462774071,10744.52462774071,10744.52462774071,,,376.6510320116686,f,0,376.65154804957456,377.15688963523826,377.15690053970684,377.15754165827275,2.8736651955526895,None,10745.94013639565,,,,ES,001,1,24,F,2024-02-08_13h01.40.124,eye_track_exp,2023.1.3,120.07363106799905,
0,12,180,90,180,0,180,-168,0,0,None,present,inhibit,freq_top,,,,,0,40,40,286,,,,,,,,,,,0.7751845509412739,,,,,,,,,,,,,,,,,,,,,,,377.1580669970499,377.2331647844694,377.2331772925354,378.00718315785525,378.0071972695205,10747.31397619234,10747.31397619234,10748.8043834678,10748.8043834678,10748.8043834678,10748.8043834678,10750.28647736938,10750.28647736938,381.03851201479847,None,1,381.0388818045467,381.0396467208975,381.03965698392676,381.04009829415554,,,,,,,ES,001,1,24,F,2024-02-08_13h01.40.124,eye_track_exp,2023.1.3,120.07363106799905,
0,0,-168,0,90,0,180,180,-168,0,f,present,resp,freq_top,,,,,0,41,41,696,,,,,,,,,,,0.9299897915970528,,,,,,,,,,,,,,,,,,,,,,,381.04061946357615,381.04132472607307,381.0413349891005,381.9705079044561,381.9705220161195,10751.277295486705,10751.277295486705,10752.767750228673,10752.767750228673,10752.767750228673,10752.767750228673,,,383.6954054986727,j,0,383.6959061420366,384.2009844168733,384.2009959627794,388.99022735174003,1.6863104013713155,None,10752.984232780882,,,,ES,001,1,24,F,2024-02-08_13h01.40.124,eye_track_exp,2023.1.3,120.07363106799905,
180,-168,180,0,180,0,180,180,12,180,None,abs,inhibit,freq_top,,,,,0,42,42,396,,,,,,,,,,,0.7479927431891388,,,,,,,,,,,,,,,,,,,,,,,388.99079823270586,391.5125369308662,391.5125510425296,392.26143173097444,392.2614545020697,10761.56869975125,10761.56869975125,10763.059140702273,10763.059140702273,10763.059140702273,10763.059140702273,10764.549566900192,10764.549566900192,395.29321087829703,None,1,395.2936124192893,395.29441165264143,395.29442223638944,395.29498509936457,,,,,,,ES,001,1,24,F,2024-02-08_13h01.40.124,eye_track_exp,2023.1.3,120.07363106799905,
168,180,180,12,180,180,180,0,270,0,None,present,inhibit,freq_top,,,,,0,43,43,179,,,,,,,,,,,0.8092130506323522,,,,,,,,,,,,,,,,,,,,,,,395.2955139660571,395.4849518343235,395.48496498382883,396.2995960856806,396.29960987662525,10765.61534393333,10765.61534393333,10767.105759226783,10767.105759226783,10767.105759226783,10767.105759226783,10768.57952307706,10768.57952307706,399.33993876820387,None,1,399.3403265182533,399.3403656460505,399.3403746262011,399.34093620629574,,,,,,,ES,001,1,24,F,2024-02-08_13h01.40.124,eye_track_exp,2023.1.3,120.07363106799905,
180,12,180,270,180,180,0,0,0,12,j,present,resp,freq_top,,,,,0,44,44,583,,,,,,,,,,,0.974420113199163,,,,,,,,,,,,,,,,,,,,,,,399.341460582913,399.5146084590433,399.5146219292692,400.48826198176357,400.48828443214006,10769.803498281584,10769.803498281584,10771.285584165173,10771.285584165173,10771.285584165173,10771.285584165173,,,402.045845590168,j,1,402.0463439884934,402.04638247485127,402.0463911342813,402.0468555363259,1.5110374368845214,None,,,,,ES,001,1,24,F,2024-02-08_13h01.40.124,eye_track_exp,2023.1.3,120.07363106799905,
0,12,180,0,270,180,0,180,-12,0,j,present,resp,freq_top,,,,,0,45,45,708,,,,,,,,,,,0.9044329444577577,,,,,,,,,,,,,,,,,,,,,,,402.047335012192,402.2456375714082,402.2456500794742,403.15249994547594,403.1525137364206,10772.467932525718,10772.467932525718,,,,,,,404.62752390323476,f,0,404.6280223015601,405.1334860814077,405.13349794803435,405.1342750517306,1.422880907735248,None,10773.91675016068,,,,ES,001,1,24,F,2024-02-08_13h01.40.124,eye_track_exp,2023.1.3,120.07363106799905,
180,168,180,180,168,0,0,0,180,180,f,abs,resp,freq_top,,,,,0,46,46,807,,,,,,,,,,,0.7886398681245086,,,,,,,,,,,,,,,,,,,,,,,405.1348167472097,405.1359569055421,405.1359678100107,405.9249297944698,405.92494422685377,10775.232289219843,10775.232289219843,,,,,,,406.8757977901132,f,1,406.8763314675998,406.87710760913615,406.8771178721654,406.87760215882736,0.9142384755026569,None,,,,,ES,001,1,24,F,2024-02-08_13h01.40.124,eye_track_exp,2023.1.3,120.07363106799905,
12,0,270,180,0,180,168,180,0,0,None,present,inhibit,freq_top,,,,,0,47,47,216,,,,,,,,,,,0.7996057037666372,,,,,,,,,,,,,,,,,,,,,,,406.87813230839856,407.19090131199846,407.1909151029431,407.9902905335093,407.990304324454,10777.29723975846,10777.29723975846,10778.795958804203,10778.795958804203,10778.795958804203,10778.795958804203,10780.269734841826,10780.269734841826,411.02119507836323,None,1,411.02159694007787,411.0216357471545,411.0216447273033,411.02230156113365,,,,,,,ES,001,1,24,F,2024-02-08_13h01.40.124,eye_track_exp,2023.1.3,120.07363106799905,
180,90,0,0,12,0,0,-168,180,180,None,present,inhibit,freq_top,,,,,0,48,48,64,,,,,,,,,,,0.8593995344401516,,,,,,,,,,,,,,,,,,,,,,,411.0228108639276,411.2047836617712,411.20479745271587,412.0699819883848,412.06999610004823,10781.385480957591,10781.385480957591,10782.875896251044,10782.875896251044,10782.875896251044,10782.875896251044,10784.349662346358,10784.349662346358,415.10972556661363,None,1,415.1100950356431,415.1101332012822,415.11014186071225,415.1106793868348,,,,,,,ES,001,1,24,F,2024-02-08_13h01.40.124,eye_track_exp,2023.1.3,120.07363106799905,
180,0,270,180,-12,180,0,180,-12,180,j,present,resp,freq_top,,,,,0,49,49,544,,,,,,,,,,,0.7021492086655438,,,,,,,,,,,,,,,,,,,,,,,415.1111668806934,415.29350882684594,415.2935216556307,416.000081783508,416.00009557445264,10785.315545794274,10785.315545794274,10786.805951466136,10786.805951466136,10786.805951466136,10786.805951466136,,,417.8503813997995,j,1,417.85088974043356,417.85092918895134,417.85093784838136,417.85140225042414,1.8066444116387856,None,,,,,ES,001,1,24,F,2024-02-08_13h01.40.124,eye_track_exp,2023.1.3,120.07363106799905,
270,0,168,180,180,180,12,0,0,0,None,present,inhibit,freq_top,,,,,0,50,50,251,,,,,,,,,,,0.8583052525180628,,,,,,,,,,,,,,,,,,,,,,,417.85189680011536,418.040290084502,418.04030291328854,418.8977318065354,418.89774559748,10788.213097035652,10788.213097035652,10789.703525799328,10789.703525799328,10789.703525799328,10789.703525799328,10791.177289008168,10791.177289008168,421.9371524200851,None,1,421.9375440187705,421.9375847501651,421.93759405103447,421.9380392098992,,,,,,,ES,001,1,24,F,2024-02-08_13h01.40.124,eye_track_exp,2023.1.3,120.07363106799905,
0,12,0,90,0,12,180,0,0,0,j,present,resp,freq_top,,,,,0,51,51,658,,,,,,,,,,,0.7144706990902304,,,,,,,,,,,,,,,,,,,,,,,421.9385510784505,422.1043541540239,422.1043666620899,422.8191253462155,422.81913945788074,10792.134817067928,10792.134817067928,,,,,,,424.1448219172107,f,0,424.1454258322992,424.65049063691004,424.65050186209737,424.65118435349905,1.275651989600533,None,10793.43375535762,,,,ES,001,1,24,F,2024-02-08_13h01.40.124,eye_track_exp,2023.1.3,120.07363106799905,
180,180,168,0,180,0,-168,180,0,180,f,abs,resp,freq_top,,,,,0,52,52,872,,,,,,,,,,,0.9732552615415238,,,,,,,,,,,,,,,,,,,,,,,424.651714823789,424.7930383311286,424.7930511599134,425.7669737664146,425.7669872366405,10795.082362728785,10795.082362728785,10796.572773852882,10796.572773852882,10796.572773852882,10796.572773852882,,,427.48401661584285,f,1,427.48461443725864,427.48539346527286,427.48540340758154,427.48595568680685,1.6718238157912992,None,,,,,ES,001,1,24,F,2024-02-08_13h01.40.124,eye_track_exp,2023.1.3,120.07363106799905,
168,0,270,180,168,180,0,0,180,180,f,present,resp,freq_top,,,,,0,53,53,468,,,,,,,,,,,0.8213987004370453,,,,,,,,,,,,,,,,,,,,,,,427.48646466888204,427.72400150353315,427.7240152944778,428.5476406580128,428.54765476967805,10797.855036645426,10797.855036645426,10799.345457391111,10799.345457391111,10799.345457391111,10799.345457391111,,,430.289308040954,f,1,430.2899036173312,430.2899427451284,430.28995140455845,430.2902541639014,1.6985234053985323,None,,,,,ES,001,1,24,F,2024-02-08_13h01.40.124,eye_track_exp,2023.1.3,120.07363106799905,
168,0,0,180,168,180,0,180,0,180,f,abs,resp,freq_top,,,,,0,54,54,865,,,,,,,,,,,0.8713348939420466,,,,,,,,,,,,,,,,,,,,,,,430.290731074012,430.48070935487885,430.4807225043842,431.3547800697106,431.3547935399365,10800.661039747427,10800.661039747427,,,,,,,432.4036612713062,f,1,432.4041753848942,432.40421483341015,432.40422381356075,432.4047802621426,1.005188793463617,None,,,,,ES,001,1,24,F,2024-02-08_13h01.40.124,eye_track_exp,2023.1.3,120.07363106799905,
180,180,0,180,12,180,168,180,0,180,None,abs,inhibit,freq_top,,,,,0,55,55,358,,,,,,,,,,,1.0181398687159273,,,,,,,,,,,,,,,,,,,,,,,432.4052757739919,432.5864429240901,432.5864554321561,433.6104847100105,433.6104981802364,10802.925821715799,10802.925821715799,10804.416217766071,10804.416217766071,10804.416217766071,10804.416217766071,10805.889982578508,10805.889982578508,436.6497295691952,None,1,436.6501109048513,436.65014971192795,436.6501583713598,436.6505923050372,,,,,,,ES,001,1,24,F,2024-02-08_13h01.40.124,eye_track_exp,2023.1.3,120.07363106799905,
270,0,168,0,180,180,180,180,12,0,None,present,inhibit,freq_top,,,,,0,56,56,207,,,,,,,,,,,0.8496973880256412,,,,,,,,,,,,,,,,,,,,,,,436.6510897412045,436.9165638225659,436.91657729279177,437.7655093605226,437.76552347218603,10807.080661311076,10807.080661311076,10808.57108333964,10808.57108333964,10808.57108333964,10808.57108333964,10810.044848793515,10810.044848793515,440.8050524889768,None,1,440.80542131656694,440.8054623686803,440.80547968754036,440.8060114407108,,,,,,,ES,001,1,24,F,2024-02-08_13h01.40.124,eye_track_exp,2023.1.3,120.07363106799905,
168,180,180,0,0,168,0,0,0,0,f,abs,resp,freq_top,,,,,0,57,57,1004,,,,,,,,,,,0.7972016731852721,,,,,,,,,,,,,,,,,,,,,,,440.8064918787368,440.9883979668939,440.9884111163992,441.7869629389206,441.7869773713046,10811.102291285277,10811.102291285277,10812.576102281342,10812.576102281342,10812.576102281342,10812.576102281342,,,443.28788436645664,f,1,443.288395272848,443.28843504208453,443.2884440222333,443.28915794416025,1.443560910354222,None,,,,,ES,001,1,24,F,2024-02-08_13h01.40.124,eye_track_exp,2023.1.3,120.07363106799905,
12,0,180,180,180,180,168,180,0,180,None,abs,inhibit,freq_top,,,,,0,58,58,362,,,,,,,,,,,0.9968778712365043,,,,,,,,,,,,,,,,,,,,,,,443.2896672469542,443.4861554951458,443.48616832393054,444.4843043013625,444.4843187337465,10813.791720173393,10813.791720173393,10815.282135787565,10815.282135787565,10815.282135787565,10815.282135787565,10816.772562626924,10816.772562626924,447.5159728004073,None,1,447.51639711249663,447.51643591957327,447.51644489972205,447.5169125089633,,,,,,,ES,001,1,24,F,2024-02-08_13h01.40.124,eye_track_exp,2023.1.3,120.07363106799905,
0,90,0,12,0,0,168,180,180,0,None,present,inhibit,freq_top,,,,,0,59,59,183,,,,,,,,,,,0.7417928168736407,,,,,,,,,,,,,,,,,,,,,,,447.51744201709516,447.78217780183877,447.7821915927834,448.5229622436,448.5229760345446,10817.8300086466,10817.8300086466,10819.320439334597,10819.320439334597,10819.320439334597,10819.320439334597,10820.810838912785,10820.810838912785,451.5543667903785,None,1,451.5547506917919,451.5547917439053,451.5548007240559,451.55523882708803,,,,,,,ES,001,1,24,F,2024-02-08_13h01.40.124,eye_track_exp,2023.1.3,120.07363106799905,
12,0,0,-168,0,0,90,180,180,180,None,present,inhibit,freq_top,,,,,0,60,60,10,,,,,,,,,,,1.0446461127512752,,,,,,,,,,,,,,,,,,,,,,,451.5557487713213,451.7453790713753,451.74539254159936,452.7944299336614,452.7944440453266,10822.109753148505,10822.109753148505,10823.600187685135,10823.600187685135,10823.600187685135,10823.600187685135,10825.07395345973,10825.07395345973,455.83422033695933,None,1,455.8346314995433,455.8346709480593,455.8346796074893,455.8351308600286,,,,,,,ES,001,1,24,F,2024-02-08_13h01.40.124,eye_track_exp,2023.1.3,120.07363106799905,
90,0,168,0,12,0,0,180,180,180,None,present,inhibit,freq_top,,,,,0,61,61,21,,,,,,,,,,,1.0165251627036807,,,,,,,,,,,,,,,,,,,,,,,455.8356472186533,456.24221164417395,456.2422257558392,457.25758630244854,457.2576000933932,10826.572695276569,10826.572695276569,10828.054789498869,10828.054789498869,10828.054789498869,10828.054789498869,10829.545209603115,10829.545209603115,460.2968484804933,None,1,460.2972327026273,460.2972718304227,460.2972808105733,460.2978356555559,,,,,,,ES,001,1,24,F,2024-02-08_13h01.40.124,eye_track_exp,2023.1.3,120.07363106799905,
0,180,0,-168,180,0,180,0,-168,180,f,abs,resp,freq_top,,,,,0,62,62,889,,,,,,,,,,,0.7387290231236339,,,,,,,,,,,,,,,,,,,,,,,460.2983526556218,460.5138935749583,460.5139076866235,461.2543027747379,461.25431656568253,10830.569353377883,10830.569353377883,10832.059751031755,10832.059751031755,10832.059751031755,10832.059751031755,,,463.0206004641441,f,1,463.02112484076133,463.0211626856799,463.0211716658305,463.0217194549805,1.7190353509225815,None,,,,,ES,001,1,24,F,2024-02-08_13h01.40.124,eye_track_exp,2023.1.3,120.07363106799905,
12,180,180,12,0,0,180,180,180,90,j,present,resp,freq_top,,,,,0,63,63,417,,,,,,,,,,,1.0808780103457756,,,,,,,,,,,,,,,,,,,,,,,463.0222194569051,463.23594766881615,463.2359614597608,464.31776036341216,464.31777479579614,10833.62513422117,10833.62513422117,,,,,,,465.5519739011179,j,1,465.55253034969974,465.5525714018131,465.5525803819637,465.5530393317731,1.1920188903071676,None,,,,,ES,001,1,24,F,2024-02-08_13h01.40.124,eye_track_exp,2023.1.3,120.07363106799905,
12,0,168,0,0,90,0,0,180,180,None,present,inhibit,freq_top,,,,,0,64,64,55,,,,,,,,,,,1.0639537822731555,,,,,,,,,,,,,,,,,,,,,,,465.553568839905,465.75888040621066,465.7588932349954,466.824372961024,466.82438675196863,10836.139699062343,10836.139699062343,10837.630124618825,10837.630124618825,10837.630124618825,10837.630124618825,10839.103880130391,10839.103880130391,469.8636556651272,None,1,469.86407965649596,469.8641184635726,469.8641271230026,469.86467491215444,,,,,,,ES,001,1,24,F,2024-02-08_13h01.40.124,eye_track_exp,2023.1.3,120.07363106799905,
168,0,0,90,12,0,180,0,180,180,None,present,inhibit,freq_top,,,,,0,65,65,44,,,,,,,,,,,0.853123846356913,,,,,,,,,,,,,,,,,,,,,,,469.86519351581774,470.15494158412366,470.15495569578707,471.01262961884277,471.0126434097874,10840.327853410596,10840.327853410596,10841.818274156281,10841.818274156281,10841.818274156281,10841.818274156281,10843.292052759663,10843.292052759663,474.05214227892975,None,1,474.05252040738924,474.05255953518645,474.05256851533704,474.05315190436886,,,,,,,ES,001,1,24,F,2024-02-08_13h01.40.124,eye_track_exp,2023.1.3,120.07363106799905,
270,0,0,0,168,180,180,180,180,12,None,present,inhibit,freq_top,,,,,0,66,66,150,,,,,,,,,,,0.8060537380092881,,,,,,,,,,,,,,,,,,,,,,,474.0536663386756,474.26844458669984,474.26845869836507,475.0757613563601,475.07577514730474,10844.391140055703,10844.391140055703,10845.881560801388,10845.881560801388,10845.881560801388,10845.881560801388,10847.355305408488,10847.355305408488,478.1156874240696,None,1,478.11606074173324,478.1160992280911,478.11610788752114,478.11654631127385,,,,,,,ES,001,1,24,F,2024-02-08_13h01.40.124,eye_track_exp,2023.1.3,120.07363106799905,
180,180,168,0,0,0,0,168,0,180,f,abs,resp,freq_top,,,,,0,67,67,876,,,,,,,,,,,0.8459247770163373,,,,,,,,,,,,,,,,,,,,,,,478.11703829520775,478.2899841179624,478.28999694674894,479.13930136998533,479.13931516093,10848.454386290132,10848.454386290132,10849.944819543885,10849.944819543885,10849.944819543885,10849.944819543885,,,480.9225067575626,f,1,480.9230340206559,480.9230731484531,480.92308244932246,480.92369823103763,1.7383862913369512,None,,,,,ES,001,1,24,F,2024-02-08_13h01.40.124,eye_track_exp,2023.1.3,120.07363106799905,
-168,0,0,0,0,0,0,-168,180,180,f,abs,resp,freq_top,,,,,0,68,68,815,,,,,,,,,,,0.7117699531253987,,,,,,,,,,,,,,,,,,,,,,,480.92422453197287,481.1625192271422,481.16253269736626,481.87806816446937,481.8780822761328,10851.185443625825,10851.185443625825,,,,,,,482.94546034173254,f,1,482.9459786246771,482.9460174317537,482.94602609118374,482.9464869653111,1.0225166343656156,None,,,,,ES,001,1,24,F,2024-02-08_13h01.40.124,eye_track_exp,2023.1.3,120.07363106799905,
90,0,180,180,180,180,168,0,0,12,None,present,inhibit,freq_top,,,,,0,69,69,164,,,,,,,,,,,0.8604557386774511,,,,,,,,,,,,,,,,,,,,,,,482.9469783078057,483.16147175678634,483.161485547731,484.02672300214,484.0267364723659,10853.341981752335,10853.341981752335,10854.82406988096,10854.82406988096,10854.82406988096,10854.82406988096,10856.314492871685,10856.314492871685,487.0661224481937,None,1,487.06654547740254,487.0665852466391,487.0665942267897,487.067144581697,,,,,,,ES,001,1,24,F,2024-02-08_13h01.40.124,eye_track_exp,2023.1.3,120.07363106799905,
180,-168,180,270,0,180,180,180,12,0,None,present,inhibit,freq_top,,,,,0,70,70,210,,,,,,,,,,,0.9511988368464293,,,,,,,,,,,,,,,,,,,,,,,487.06767184479213,487.2657899902115,487.26580378115614,488.2230557013045,488.2230698129679,10857.538466793329,10857.538466793329,10859.028888180454,10859.028888180454,10859.028888180454,10859.028888180454,10860.502653955049,10860.502653955049,491.2633275047883,None,1,491.26370338820925,491.26375309975447,491.2637704186145,491.2642056351724,,,,,,,ES,001,1,24,F,2024-02-08_13h01.40.124,eye_track_exp,2023.1.3,120.07363106799905,
90,0,168,0,12,0,0,180,180,180,None,present,inhibit,freq_top,,,,,0,71,71,20,,,,,,,,,,,0.7644128046060539,,,,,,,,,,,,,,,,,,,,,,,491.26469697766515,491.45422721318937,491.45424324917076,492.2200139962042,492.2200284285882,10861.535123611764,10861.535123611764,10863.025546281768,10863.025546281768,10863.025546281768,10863.025546281768,10864.49930660413,10864.49930660413,495.2592258212662,None,1,495.25959400741704,495.25966424501894,495.25967386660705,495.2602123548895,,,,,,,ES,001,1,24,F,2024-02-08_13h01.40.124,eye_track_exp,2023.1.3,120.07363106799905,
0,0,0,0,0,-168,0,12,0,0,None,abs,inhibit,freq_top,,,,,0,72,72,349,,,,,,,,,,,0.892353091997702,,,,,,,,,,,,,,,,,,,,,,,495.2607498810121,495.43395452452023,495.433967353305,496.33326042306726,496.33327485545124,10865.640027158539,10865.640027158539,10867.130445659188,10867.130445659188,10867.130445659188,10867.130445659188,10868.620859028322,10868.620859028322,499.36467042207914,None,1,499.36504502262324,499.36508575401785,499.3650944134479,499.3656306566918,,,,,,,ES,001,1,24,F,2024-02-08_13h01.40.124,eye_track_exp,2023.1.3,120.07363106799905,
0,0,168,180,0,180,180,168,180,180,f,abs,resp,freq_top,,,,,0,73,73,777,,,,,,,,,,,0.7362830352265374,,,,,,,,,,,,,,,,,,,,,,,499.36611847126915,499.59794008187237,499.5979532313777,500.3381539633883,500.33816871649105,10869.653342155261,10869.653342155261,10871.14375167576,10871.14375167576,10871.14375167576,10871.14375167576,,,502.48688352873614,f,1,502.4874114332688,502.48745825833794,502.4874672384867,502.48826134032424,2.090954999105975,None,,,,,ES,001,1,24,F,2024-02-08_13h01.40.124,eye_track_exp,2023.1.3,120.07363106799905,
0,0,180,0,0,0,12,0,180,-168,None,abs,inhibit,freq_top,,,,,0,74,74,378,,,,,,,,,,,0.9430644274678046,,,,,,,,,,,,,,,,,,,,,,,502.4887661530447,502.677854436899,502.6778675864043,503.62672338700395,503.6267371779486,10872.93392822551,10872.93392822551,10874.424338066727,10874.424338066727,10874.424338066727,10874.424338066727,10875.914756888094,10875.914756888094,506.6581080491633,None,1,506.65847591459533,506.65851408023264,506.65853332341067,506.6589900281833,,,,,,,ES,001,1,24,F,2024-02-08_13h01.40.124,eye_track_exp,2023.1.3,120.07363106799905,
12,180,90,0,168,180,0,180,0,180,None,present,inhibit,freq_top,,,,,0,75,75,121,,,,,,,,,,,0.7810576839458165,,,,,,,,,,,,,,,,,,,,,,,506.65947720132317,506.92467225659493,506.9246860475396,507.7067480695878,507.7067618605324,10877.022164934566,10877.022164934566,10878.512589849608,10878.512589849608,10878.512589849608,10878.512589849608,10879.986370698027,10879.986370698027,510.74681140530265,None,1,510.7471811950527,510.7472200021293,510.74722866155935,510.74767414114467,,,,,,,ES,001,1,24,F,2024-02-08_13h01.40.124,eye_track_exp,2023.1.3,120.07363106799905,
0,180,0,-168,180,0,180,0,-168,180,f,abs,resp,freq_top,,,,,0,76,76,891,,,,,,,,,,,0.9831386409393856,,,,,,,,,,,,,,,,,,,,,,,510.748174463788,510.9381344636331,510.93814761314025,511.92021040491454,511.9202238751386,10881.235315530399,10881.235315530399,,,,,,,513.228799148681,f,1,513.2293155073075,513.2293552765423,513.2293642566929,513.2298459775975,1.2597407673650878,None,,,,,ES,001,1,24,F,2024-02-08_13h01.40.124,eye_track_exp,2023.1.3,120.07363106799905,
12,0,90,0,0,-168,0,0,0,0,None,present,inhibit,freq_top,,,,,0,77,77,274,,,,,,,,,,,0.8640555934255932,,,,,,,,,,,,,,,,,,,,,,,513.2303530353547,513.4938226189443,513.4938360891701,514.3597608457749,514.3597743160008,10883.674943264694,10883.674943264694,10885.157033959078,10885.157033959078,10885.157033959078,10885.157033959078,10886.647457591242,10886.647457591242,517.3990704903281,None,1,517.3994389971995,517.3994800493128,517.3994890294634,517.4000406672494,,,,,,,ES,001,1,24,F,2024-02-08_13h01.40.124,eye_track_exp,2023.1.3,120.07363106799905,
180,90,0,180,180,-168,180,180,0,-168,f,present,resp,freq_top,,,,,0,78,78,722,,,,,,,,,,,0.8216806783986074,,,,,,,,,,,,,,,,,,,,,,,517.4005759483352,517.565746564771,517.5657593935575,518.3891817415588,518.3891958532222,10887.696571956018,10887.696571956018,,,,,,,519.2565202303522,f,1,519.2570320989034,519.2570725095793,519.2570818104487,519.2575410809786,0.8306509183979642,None,,,,,ES,001,1,24,F,2024-02-08_13h01.40.124,eye_track_exp,2023.1.3,120.07363106799905,
0,0,90,0,12,0,0,0,180,-168,None,present,inhibit,freq_top,,,,,0,79,79,312,,,,,,,,,,,1.0564897882073108,,,,,,,,,,,,,,,,,,,,,,,519.258041403622,519.4474266738671,519.4474395026518,520.5045943088935,520.5046077791176,10889.819789877318,10889.819789877318,10891.310229866182,10891.310229866182,10891.310229866182,10891.310229866182,10892.78401103532,10892.78401103532,523.5439510992328,None,1,523.5443484708721,523.5443882401087,523.5443978616968,523.5448629051807,,,,,,,ES,001,1,24,F,2024-02-08_13h01.40.124,eye_track_exp,2023.1.3,120.07363106799905,
0,90,180,180,12,0,0,0,168,0,None,present,inhibit,freq_top,,,,,0,80,80,206,,,,,,,,,,,0.9395105660056959,,,,,,,,,,,,,,,,,,,,,,,523.5453722079747,523.7190268211416,523.7190399706469,524.6591984959523,524.6592148526543,10893.966339831968,10893.966339831968,10895.456759936214,10895.456759936214,10895.456759936214,10895.456759936214,10896.94717298463,10896.94717298463,527.6905831581134,None,1,527.6909760396757,527.6910158089122,527.6910270340995,527.6916091402527,,,,,,,ES,001,1,24,F,2024-02-08_13h01.40.124,eye_track_exp,2023.1.3,120.07363106799905,
0,0,0,-168,0,0,0,12,0,0,None,abs,inhibit,freq_top,,,,,0,81,81,337,,,,,,,,,,,0.7473703313832163,,,,,,,,,,,,,,,,,,,,,,,527.6921049728207,527.8742439034395,527.8742567322242,528.6223901438989,528.6224036141248,10897.929691198298,10897.929691198298,10899.420105208872,10899.420105208872,10899.420105208872,10899.420105208872,10900.90220135549,10900.90220135549,531.6539088668706,None,1,531.6542969376405,531.6543357447172,531.6543444041472,531.654947998517,,,,,,,ES,001,1,24,F,2024-02-08_13h01.40.124,eye_track_exp,2023.1.3,120.07363106799905,
0,12,180,180,180,0,180,-168,0,0,None,abs,inhibit,freq_top,,,,,0,82,82,368,,,,,,,,,,,1.0261398837430007,,,,,,,,,,,,,,,,,,,,,,,531.6554467175611,531.8289807401434,531.8290025490787,532.8609135121751,532.8609276238385,10902.167813987739,10902.167813987739,10903.658231526228,10903.658231526228,10903.658231526228,10903.658231526228,10905.148641046726,10905.148641046726,535.8917449329492,None,1,535.8921124776607,535.892150643298,535.892159302728,552.569964669523,,,,,,,ES,001,1,24,F,2024-02-08_13h01.40.124,eye_track_exp,2023.1.3,120.07363106799905,
180,270,0,180,180,12,180,0,0,-168,None,present,inhibit,freq_top,,,,,0,83,83,324,,,,,,,,,,,0.8676291363851846,,,,,,,,,,,,,,,,,,,,,,,552.5705153451509,552.6280745788627,552.6280870869286,553.5020805083277,553.5020942992724,10922.817190444606,10922.817190444606,10924.299293647056,10924.299293647056,10924.299293647056,10924.299293647056,10925.789721769293,10925.789721769293,556.5412474326386,None,1,556.5416233160613,556.5416621231379,556.541670782568,556.5421236387047,,,,,,,ES,001,1,24,F,2024-02-08_13h01.40.124,eye_track_exp,2023.1.3,120.07363106799905,
0,270,0,0,-12,180,180,180,0,-12,j,present,resp,freq_top,,,,,0,84,84,735,,,,,,,,,,,0.80031725654209,,,,,,,,,,,,,,,,,,,,,,,556.5426124154419,556.5433333931996,556.5433430147896,557.3403156137865,557.3403294047312,10926.6556644862,10926.6556644862,,,,,,,558.7651642661858,j,1,558.7656995472717,558.765740599385,558.7657492588169,558.7662033978304,1.3747380027610916,None,,,,,ES,001,1,24,F,2024-02-08_13h01.40.124,eye_track_exp,2023.1.3,120.07363106799905,
0,90,0,-168,0,0,180,180,180,12,None,present,inhibit,freq_top,,,,,0,85,85,156,,,,,,,,,,,0.7050017198424041,,,,,,,,,,,,,,,,,,,,,,,558.7667050033542,558.9565213207989,558.9565338288648,559.6633261577645,559.6633396279904,10928.970392124664,10928.970392124664,10930.460816077546,10930.460816077546,10930.460816077546,10930.460816077546,10931.951235540355,10931.951235540355,562.6948961958788,None,1,562.6953057548635,562.6953442412214,562.695353221372,562.695689656277,,,,,,,ES,001,1,24,F,2024-02-08_13h01.40.124,eye_track_exp,2023.1.3,120.07363106799905,
90,180,0,12,180,0,-12,0,180,0,j,present,resp,freq_top,,,,,0,86,86,611,,,,,,,,,,,0.9707222578270108,,,,,,,,,,,,,,,,,,,,,,,562.6961867717255,562.936729711595,562.9367511998116,563.9102196672975,563.9102334582421,10933.22518335542,10933.22518335542,10934.71559159304,10934.71559159304,10934.71559159304,10934.71559159304,,,565.609567451831,j,1,565.6100725852684,565.6101120337844,565.610121013935,565.6105950375677,1.6533102743663903,None,,,,,ES,001,1,24,F,2024-02-08_13h01.40.124,eye_track_exp,2023.1.3,120.07363106799905,
90,0,12,0,0,180,180,0,168,0,None,present,inhibit,freq_top,,,,,0,87,87,194,,,,,,,,,,,1.0562810567058483,,,,,,,,,,,,,,,,,,,,,,,565.6110934358949,565.8338845434937,565.833897692999,566.8903860438204,566.8903991933257,10936.197688381097,10936.197688381097,10937.696424424981,10937.696424424981,10937.696424424981,10937.696424424981,10939.170197896849,10939.170197896849,569.9215843678667,None,1,569.9219794944675,569.9220189429834,569.922027923134,569.9225869374732,,,,,,,ES,001,1,24,F,2024-02-08_13h01.40.124,eye_track_exp,2023.1.3,120.07363106799905,
0,0,0,168,0,168,0,0,0,0,f,abs,resp,freq_top,,,,,0,88,88,1002,,,,,,,,,,,0.9806299809938337,,,,,,,,,,,,,,,,,,,,,,,569.9231125969691,570.0973874819265,570.0974006314318,571.0788402649396,571.0788546973235,10940.385846257266,10940.385846257266,,,,,,,572.0956004320724,f,1,572.0961199978956,572.0961594464115,572.0961681058416,572.096625131333,0.97144652120312,None,,,,,ES,001,1,24,F,2024-02-08_13h01.40.124,eye_track_exp,2023.1.3,120.07363106799905,
90,0,180,180,180,180,168,0,0,12,None,present,inhibit,freq_top,,,,,0,89,89,165,,,,,,,,,,,1.0759744938292515,,,,,,,,,,,,,,,,,,,,,,,572.0971341134082,572.3120804185255,572.3120935680308,573.393784068443,573.3937994629869,10942.708909719986,10942.708909719986,10944.199335597186,10944.199335597186,10944.199335597186,10944.199335597186,10945.673096560988,10945.673096560988,576.4340196306075,None,1,576.4344173229656,576.4344554886029,576.4344644687535,576.4349445860589,,,,,,,ES,001,1,24,F,2024-02-08_13h01.40.124,eye_track_exp,2023.1.3,120.07363106799905,
0,270,180,180,-168,180,180,180,0,-168,f,present,resp,freq_top,,,,,0,90,90,721,,,,,,,,,,,0.9849277729460486,,,,,,,,,,,,,,,,,,,,,,,576.4354532474135,576.6329238598737,576.6329363679397,577.6232596148529,577.6232734057976,10946.930378179773,10946.930378179773,,,,,,,578.790020038563,f,1,578.7905392836656,578.7905784114628,578.7905867501722,578.7910575666101,1.131161696502545,None,,,,,ES,001,1,24,F,2024-02-08_13h01.40.124,eye_track_exp,2023.1.3,120.07363106799905,
168,0,168,180,0,0,180,180,0,180,f,abs,resp,freq_top,,,,,0,91,91,845,,,,,,,,,,,0.8410395462653241,,,,,,,,,,,,,,,,,,,,,,,578.7915620586082,578.9888601238999,578.9888729526847,579.829915958624,579.8299300702874,10949.145178557454,10949.145178557454,10950.63561726344,10950.63561726344,10950.63561726344,10950.63561726344,,,581.6298702881468,f,1,581.6304030034753,581.6304414898314,581.6304501492614,581.6309248143352,1.7481124352483448,None,,,,,ES,001,1,24,F,2024-02-08_13h01.40.124,eye_track_exp,2023.1.3,120.07363106799905,
180,168,180,180,90,180,0,180,168,180,f,present,resp,freq_top,,,,,0,92,92,488,,,,,,,,,,,0.7409150699832034,,,,,,,,,,,,,,,,,,,,,,,581.6314440594379,581.9116038932789,581.9116173635048,582.6521166855018,582.6521304764465,10951.959500164849,10951.959500164849,10953.449923797012,10953.449923797012,10953.449923797012,10953.449923797012,,,584.4105015798632,f,1,584.4110278807984,584.4110670085956,584.4110756680257,584.4117437270434,1.718090190133239,None,,,,,ES,001,1,24,F,2024-02-08_13h01.40.124,eye_track_exp,2023.1.3,120.07363106799905,
180,180,90,0,0,12,0,180,12,0,j,present,resp,freq_top,,,,,0,93,93,620,,,,,,,,,,,1.0063528787854406,,,,,,,,,,,,,,,,,,,,,,,584.4122501433612,584.626909725117,584.6269228746223,585.6329347643405,585.6329488760057,10954.94034261838,10954.94034261838,10956.430761119029,10956.430761119029,10956.430761119029,10956.430761119029,,,587.308505677378,j,1,587.30903422335,587.3090730304284,587.3090816898584,587.3095284523224,1.6330276433885729,None,,,,,ES,001,1,24,F,2024-02-08_13h01.40.124,eye_track_exp,2023.1.3,120.07363106799905,
168,0,0,90,0,180,12,0,180,180,None,present,inhibit,freq_top,,,,,0,94,94,50,,,,,,,,,,,0.8975359149169952,,,,,,,,,,,,,,,,,,,,,,,587.3100377551164,587.557281490499,587.5572952814437,588.4558555068197,588.4558712220824,10957.771298991529,10957.771298991529,10959.26172262369,10959.26172262369,10959.26172262369,10959.26172262369,10960.73549449196,10960.73549449196,591.4951683585696,None,1,591.4955519392624,591.4955907463391,591.4955994057691,591.4962337892248,,,,,,,ES,001,1,24,F,2024-02-08_13h01.40.124,eye_track_exp,2023.1.3,120.07363106799905,
0,168,0,270,0,168,180,180,0,0,f,present,resp,freq_top,,,,,0,95,95,632,,,,,,,,,,,0.7069834603459016,,,,,,,,,,,,,,,,,,,,,,,591.4967549586454,591.6788817019169,591.6788945307035,592.3861971245551,592.3862112362185,10961.693029286835,10961.693029286835,10963.183448108202,10963.183448108202,10963.183448108202,10963.183448108202,,,594.577370727533,j,0,594.5778745780917,595.0829573430037,595.0829692096304,595.0836276470582,2.143596959241563,None,10963.866208914209,,,,ES,001,1,24,F,2024-02-08_13h01.40.124,eye_track_exp,2023.1.3,120.07363106799905,
0,0,12,0,180,180,180,180,168,0,None,abs,inhibit,freq_top,,,,,0,96,96,374,,,,,,,,,,,1.0115767080655347,,,,,,,,,,,,,,,,,,,,,,,595.0841674182193,595.0850856385587,595.0851071267753,596.0996536869279,596.0996767787419,10965.406579820063,10965.406579820063,10966.90534055936,10966.90534055936,10966.90534055936,10966.90534055936,10968.379107296114,10968.379107296114,599.1309947312166,None,1,599.1313792740693,599.1321425868209,599.1321525291296,599.1327012804395,,,,,,,ES,001,1,24,F,2024-02-08_13h01.40.124,eye_track_exp,2023.1.3,120.07363106799905,
-12,0,0,90,0,0,0,0,-12,180,j,present,resp,freq_top,,,,,0,97,97,549,,,,,,,,,,,0.8627928060469401,,,,,,,,,,,,,,,,,,,,,,,599.1332179597866,599.330872023882,599.3308851733873,600.1963407171534,600.196354508098,10969.511486574034,10969.511486574034,10971.001884548625,10971.001884548625,10971.001884548625,10971.001884548625,,,602.0119189041125,j,1,602.012432376263,602.012470862619,602.012479522049,602.0130205760888,1.76491557881252,None,,,,,ES,001,1,24,F,2024-02-08_13h01.40.124,eye_track_exp,2023.1.3,120.07363106799905,
0,12,0,-12,180,180,180,180,270,0,j,present,resp,freq_top,,,,,0,98,98,591,,,,,,,,,,,0.8216435674922095,,,,,,,,,,,,,,,,,,,,,,,602.0135388590334,602.2112763102359,602.2112894597412,603.0352567104164,603.0352701806405,10972.34244583366,10972.34244583366,10973.832872993738,10973.832872993738,10973.832872993738,10973.832872993738,,,604.6765680304088,j,1,604.6770940106235,604.6771331384207,604.6771421185713,604.6776145386048,1.6071391537601585,None,,,,,ES,001,1,24,F,2024-02-08_13h01.40.124,eye_track_exp,2023.1.3,120.07363106799905,
180,180,-12,180,270,180,-12,0,0,180,j,present,resp,freq_top,,,,,0,99,99,533,,,,,,,,,,,1.0152727140015572,,,,,,,,,,,,,,,,,,,,,,,604.6781164648473,604.9092796380228,604.9092927875281,605.9249637907506,605.9249868825664,10975.240025298364,10975.240025298364,10976.722126255778,10976.722126255778,10976.722126255778,10976.722126255778,,,607.6158683099475,j,1,607.6163917244066,607.616438549474,607.616447208904,607.6170065439619,1.6369757021997202,None,,,,,ES,001,1,24,F,2024-02-08_13h01.40.124,eye_track_exp,2023.1.3,120.07363106799905,
180,12,0,270,180,0,180,0,168,180,None,present,inhibit,freq_top,,,,,0,100,100,77,,,,,,,,,,,0.9112068501367645,,,,,,,,,,,,,,,,,,,,,,,607.6175062251677,607.8567650035839,607.8567784738098,608.7723846275221,608.7723984184668,10978.079309798497,10978.079309798497,10979.578059633328,10979.578059633328,10979.578059633328,10979.578059633328,10981.051827332241,10981.051827332241,611.8036031569063,None,1,611.8040005285457,611.804039656341,611.8040486364916,611.8047923853446,,,,,,,ES,001,1,24,F,2024-02-08_13h01.40.124,eye_track_exp,2023.1.3,120.07363106799905,
168,180,0,180,168,180,0,180,0,180,f,abs,resp,freq_top,,,,,0,101,101,867,,,,,,,,,,,1.0796854008043941,,,,,,,,,,,,,,,,,,,,,,,611.8053289493091,611.9872359996243,611.9872485076903,613.0686981476501,613.068711617876,10982.375732684026,10982.375732684026,,,,,,,614.0519389426754,f,1,614.05246588505,614.0525050128472,614.0525139929978,614.0529751878439,0.9490295009958345,None,,,,,ES,001,1,24,F,2024-02-08_13h01.40.124,eye_track_exp,2023.1.3,120.07363106799905,
12,0,-12,0,270,0,0,0,180,180,j,present,resp,freq_top,,,,,0,102,102,472,,,,,,,,,,,0.8120339613860705,,,,,,,,,,,,,,,,,,,,,,,614.0534780762464,614.2352042406819,614.2352170694685,615.0506159741471,615.0506291236525,10984.374051792372,10984.374051792372,,,,,,,616.4341360518374,f,0,616.4346674842873,616.9397082349242,616.9397197808321,616.9404401171523,1.318398786573539,None,10985.722927092727,,,,ES,001,1,24,F,2024-02-08_13h01.40.124,eye_track_exp,2023.1.3,120.07363106799905,
180,0,180,0,180,168,180,180,-168,180,f,abs,resp,freq_top,,,,,0,103,103,878,,,,,,,,,,,0.9030530672175539,,,,,,,,,,,,,,,,,,,,,,,616.9409972071717,616.9417457668205,616.9417563505685,617.8484009559998,617.848415067665,10987.163389339536,10987.163389339536,,,,,,,619.1981101274268,f,1,619.1986165437447,619.1993509917284,619.199360934037,619.1999324564422,1.2968252590302427,None,,,,,ES,001,1,24,F,2024-02-08_13h01.40.124,eye_track_exp,2023.1.3,120.07363106799905,
180,180,180,-168,180,180,12,180,0,180,None,abs,inhibit,freq_top,,,,,0,104,104,336,,,,,,,,,,,0.9458277739674915,,,,,,,,,,,,,,,,,,,,,,,619.2004186674221,619.4722295275023,619.472243318447,620.4209278547569,620.4209416457015,10989.736237599374,10989.736237599374,10991.226650968509,10991.226650968509,10991.226650968509,10991.226650968509,10992.70044817363,10992.70044817363,623.4607134472608,None,1,623.4611079324222,623.4611480223775,623.4611570025281,623.4616159523375,,,,,,,ES,001,1,24,F,2024-02-08_13h01.40.124,eye_track_exp,2023.1.3,120.07363106799905,
180,168,180,180,0,180,0,180,168,180,f,abs,resp,freq_top,,,,,0,105,105,836,,,,,,,,,,,0.7394204361123742,,,,,,,,,,,,,,,,,,,,,,,623.4621233308135,624.35143400167,624.3514481133334,625.0922912467904,625.0923063206137,10994.40733896346,10994.40733896346,10995.8977459182,10995.8977459182,10995.8977459182,10995.8977459182,,,627.1742444165902,f,1,627.1747383248421,627.1747764904794,627.1747851499094,627.1752335159708,2.0361869884521866,None,,,,,ES,001,1,24,F,2024-02-08_13h01.40.124,eye_track_exp,2023.1.3,120.07363106799905,
0,0,270,0,168,0,0,-12,0,0,None,present,inhibit,freq_top,,,,,0,106,106,299,,,,,,,,,,,0.8530000918060158,,,,,,,,,,,,,,,,,,,,,,,627.175717481914,627.3823677320106,627.3823808815159,628.2390111828518,628.2390272188331,10997.546388568526,10997.546388568526,10999.036793598949,10999.036793598949,10999.036793598949,10999.036793598949,11000.527212420317,11000.527212420317,631.2709157315549,None,1,631.271287445621,631.2713256112584,631.2713368364457,631.2718596094655,,,,,,,ES,001,1,24,F,2024-02-08_13h01.40.124,eye_track_exp,2023.1.3,120.07363106799905,
180,180,12,180,168,0,180,90,0,180,None,present,inhibit,freq_top,,,,,0,107,107,99,,,,,,,,,,,1.089227940716497,,,,,,,,,,,,,,,,,,,,,,,631.2723458204455,631.5126818961453,631.51269472493,632.6023082834181,632.6023223950815,11001.917717451124,11001.917717451124,11003.408133706736,11003.408133706736,11003.408133706736,11003.408133706736,11004.881921610988,11004.881921610988,635.6419838690836,None,1,635.6423812407229,635.6424287072296,635.6424376873802,635.6429681576701,,,,,,,ES,001,1,24,F,2024-02-08_13h01.40.124,eye_track_exp,2023.1.3,120.07363106799905,
180,180,180,-168,180,180,-168,180,180,180,f,abs,resp,freq_top,,,,,0,108,108,772,,,,,,,,,,,1.0050672976044188,,,,,,,,,,,,,,,,,,,,,,,635.6434874027727,635.8418893850776,635.8419025345829,636.8489958909395,636.8490093611636,11006.164164839633,11006.164164839633,11007.646265155607,11007.646265155607,11007.646265155607,11007.646265155607,,,638.6071065700053,f,1,638.6077098436544,638.6077483300123,638.6077569894424,638.6084863059114,1.7035984730385962,None,,,,,ES,001,1,24,F,2024-02-08_13h01.40.124,eye_track_exp,2023.1.3,120.07363106799905,
180,0,180,0,180,-168,180,0,-168,180,f,abs,resp,freq_top,,,,,0,109,109,892,,,,,,,,,,,0.8241209982976534,,,,,,,,,,,,,,,,,,,,,,,638.6090004195012,638.831118978007,638.8311350139884,639.6557061797539,639.6557218950165,11008.970147415577,11008.970147415577,,,,,,,640.5639720229829,f,1,640.5644909473667,640.5645303958827,640.5645390553127,640.565006664554,0.8500153290364096,None,,,,,ES,001,1,24,F,2024-02-08_13h01.40.124,eye_track_exp,2023.1.3,120.07363106799905,
-12,0,0,0,90,0,0,12,180,0,j,present,resp,freq_top,,,,,0,110,110,602,,,,,,,,,,,0.7697140023998318,,,,,,,,,,,,,,,,,,,,,,,640.565507307916,640.763003257227,640.7630167274529,641.536222717983,641.5362361882071,11010.843583746953,11010.843583746953,,,,,,,642.7863917372342,j,1,642.7868946256367,642.7869334327133,642.7869420921434,642.7873943068407,1.1998418838533098,None,,,,,ES,001,1,24,F,2024-02-08_13h01.40.124,eye_track_exp,2023.1.3,120.07363106799905,
-168,0,0,0,0,0,0,0,168,180,f,abs,resp,freq_top,,,,,0,111,111,841,,,,,,,,,,,0.8103269683200628,,,,,,,,,,,,,,,,,,,,,,,642.7878856493353,643.0442108821444,643.0442249938096,643.8593506453508,643.859364757016,11013.166644643918,11013.166644643918,,,,,,,645.0350739002188,f,1,645.0356098227439,645.0356486298206,645.0356572892506,645.0361069381906,1.1340706236691176,None,,,,,ES,001,1,24,F,2024-02-08_13h01.40.124,eye_track_exp,2023.1.3,120.07363106799905,
180,90,0,180,180,180,180,-168,0,12,None,present,inhibit,freq_top,,,,,0,112,112,177,,,,,,,,,,,0.8947418827890211,,,,,,,,,,,,,,,,,,,,,,,645.0366085437145,645.2675587590456,645.2675722292697,646.1658675402214,646.1658810104454,11015.481371320222,11015.481371320222,11016.971783406478,11016.971783406478,11016.971783406478,11016.971783406478,11018.44557163145,11018.44557163145,649.2057361991119,None,1,649.2061518517694,649.2061900174085,649.2061986768385,649.2068215143863,,,,,,,ES,001,1,24,F,2024-02-08_13h01.40.124,eye_track_exp,2023.1.3,120.07363106799905,
0,180,0,180,90,180,12,0,12,180,j,present,resp,freq_top,,,,,0,113,113,500,,,,,,,,,,,1.0986983829729837,,,,,,,,,,,,,,,,,,,,,,,649.2073237613477,649.3972330874894,649.397254575706,650.4954897196512,650.4955035105959,11019.802751646253,11019.802751646253,,,,,,,651.8961137759343,j,1,651.8966628479648,651.8967019757602,651.8967106351902,651.8972051848814,1.3603822707949575,None,,,,,ES,001,1,24,F,2024-02-08_13h01.40.124,eye_track_exp,2023.1.3,120.07363106799905,
90,0,12,0,180,180,0,0,180,-168,None,present,inhibit,freq_top,,,,,0,114,114,308,,,,,,,,,,,0.7886079472130915,,,,,,,,,,,,,,,,,,,,,,,651.8977285993387,652.0865590246012,652.0865721741065,652.8772083151052,652.8772217853293,11022.192424409586,11022.192424409586,11023.674517028288,11023.674517028288,11023.674517028288,11023.674517028288,11025.16493135958,11025.16493135958,655.9169175763327,None,1,655.9172889696802,655.9173287389167,655.9173373983467,655.9180497166763,,,,,,,ES,001,1,24,F,2024-02-08_13h01.40.124,eye_track_exp,2023.1.3,120.07363106799905,
12,180,180,0,168,0,180,0,180,180,None,abs,inhibit,freq_top,,,,,0,115,115,348,,,,,,,,,,,1.0448737121184914,,,,,,,,,,,,,,,,,,,,,,,655.9185708860969,656.2744821339911,656.2744959249358,657.3234775117799,657.3234913027245,11026.638707717926,11026.638707717926,11028.129119483461,11028.129119483461,11028.129119483461,11028.129119483461,11029.602886540935,11029.602886540935,660.363602104946,None,1,660.364009418894,660.36404886741,660.36405752684,660.3645857520933,,,,,,,ES,001,1,24,F,2024-02-08_13h01.40.124,eye_track_exp,2023.1.3,120.07363106799905,
270,180,12,180,0,180,168,180,0,180,None,present,inhibit,freq_top,,,,,0,116,116,113,,,,,,,,,,,0.8468408169620983,,,,,,,,,,,,,,,,,,,,,,,660.3651066007951,660.5375697404852,660.5375832107111,661.386783400063,661.3867971910076,11030.693651482943,11030.693651482943,11032.184058758405,11032.184058758405,11032.184058758405,11032.184058758405,11033.674486880642,11033.674486880642,664.4180070609636,None,1,664.4183797371879,664.4184179028271,664.4184268829758,664.4189531839111,,,,,,,ES,001,1,24,F,2024-02-08_13h01.40.124,eye_track_exp,2023.1.3,120.07363106799905,
-168,0,0,180,168,180,180,0,180,0,f,abs,resp,freq_top,,,,,0,117,117,940,,,,,,,,,,,0.9923105320487534,,,,,,,,,,,,,,,,,,,,,,,664.4194416399278,664.5926754689226,664.5926879769886,665.5914224172757,665.5914362082203,11034.898459840128,11034.898459840128,11036.38888443445,11036.38888443445,11036.38888443445,11036.38888443445,,,667.3325343137931,f,1,667.3330695948789,667.3331106469941,667.3331199478635,667.333749841242,1.7042405537662262,None,,,,,ES,001,1,24,F,2024-02-08_13h01.40.124,eye_track_exp,2023.1.3,120.07363106799905,
0,0,0,0,0,168,0,168,0,0,f,abs,resp,freq_top,,,,,0,118,118,977,,,,,,,,,,,1.0727717436721118,,,,,,,,,,,,,,,,,,,,,,,667.3342658791498,667.5322092323622,667.5322220611488,668.6061033589594,668.6061174706247,11037.91261127368,11037.91261127368,,,,,,,670.0557513370786,f,1,670.0562818073704,670.0563202937265,670.0563289531565,670.0569405655169,1.4098750847509791,None,,,,,ES,001,1,24,F,2024-02-08_13h01.40.124,eye_track_exp,2023.1.3,120.07363106799905,
180,180,180,0,0,0,-168,0,0,168,f,abs,resp,freq_top,,,,,0,119,119,936,,,,,,,,,,,0.94729718580747,,,,,,,,,,,,,,,,,,,,,,,670.0574386431235,670.3465398199078,670.346553931573,671.2946262140831,671.294639684309,11040.602012259187,11040.602012259187,,,,,,,672.1794779197353,f,1,672.180000051314,672.18003949983,672.1800484799805,672.1806463013963,0.8487250739102592,None,,,,,ES,001,1,24,F,2024-02-08_13h01.40.124,eye_track_exp,2023.1.3,120.07363106799905,
0,0,180,0,180,180,168,0,168,0,f,abs,resp,freq_top,,,,,0,120,120,947,,,,,,,,,,,0.8880640754853049,,,,,,,,,,,,,,,,,,,,,,,672.1816479088429,672.6940318564393,672.694045647384,673.5847854449712,673.5847992359159,11042.89178085355,11042.89178085355,,,,,,,674.3098267215901,f,1,674.3103369865421,674.3103770764992,674.310386056648,674.3109678420824,0.6866949442240866,None,,,,,ES,001,1,24,F,2024-02-08_13h01.40.124,eye_track_exp,2023.1.3,120.07363106799905,
0,-12,0,270,0,-12,180,180,0,0,j,present,resp,freq_top,,,,,0,121,121,634,,,,,,,,,,,0.9035396406261477,,,,,,,,,,,,,,,,,,,,,,,674.3114732962404,674.5180202746124,674.5180337448364,675.4247662274502,675.4247800183948,11044.740229917497,11044.740229917497,,,,,,,676.7834600389724,j,1,676.7839587580183,676.7839969236556,676.7840055830875,676.7846467016534,1.3024795463473993,None,,,,,ES,001,1,24,F,2024-02-08_13h01.40.124,eye_track_exp,2023.1.3,120.07363106799905,
180,270,180,0,0,180,168,0,12,180,None,present,inhibit,freq_top,,,,,0,122,122,95,,,,,,,,,,,0.818430380279872,,,,,,,,,,,,,,,,,,,,,,,676.785134195512,677.0152611235189,677.0152736315849,677.8395147768351,677.8395285677798,11047.154870063643,11047.154870063643,11048.645295620123,11048.645295620123,11048.645295620123,11048.645295620123,11050.119066526233,11050.119066526233,680.8796310312919,None,1,680.8800184606225,680.8800566262598,680.8800656064086,680.8805909451858,,,,,,,ES,001,1,24,F,2024-02-08_13h01.40.124,eye_track_exp,2023.1.3,120.07363106799905,
90,180,12,180,168,180,0,180,0,180,None,present,inhibit,freq_top,,,,,0,123,123,126,,,,,,,,,,,0.842226326001918,,,,,,,,,,,,,,,,,,,,,,,680.881088381353,681.0537372177168,681.0537497257847,681.9029550466512,681.9029691583146,11051.20982280881,11051.20982280881,11052.700239064421,11052.700239064421,11052.700239064421,11052.700239064421,11054.190660772267,11054.190660772267,684.9339112273683,None,1,684.9343650456631,684.934403532021,684.9344125121697,684.934881083569,,,,,,,ES,001,1,24,F,2024-02-08_13h01.40.124,eye_track_exp,2023.1.3,120.07363106799905,
270,180,12,180,0,180,168,180,0,180,None,present,inhibit,freq_top,,,,,0,124,124,111,,,,,,,,,,,0.9900890724182935,,,,,,,,,,,,,,,,,,,,,,,684.9353878206057,685.1173048132314,685.1173170005768,686.1076806581677,686.1076944491124,11055.42295833082,11055.42295833082,11056.913379076506,11056.913379076506,11056.913379076506,11056.913379076506,11058.387149341177,11058.387149341177,689.1472568207446,None,1,689.1476490608675,689.147686905786,689.147695565216,713.3934097886195,,,,,,,ES,001,1,24,F,2024-02-08_13h01.40.124,eye_track_exp,2023.1.3,120.07363106799905,
0,180,0,180,168,180,0,180,-12,180,None,abs,inhibit,freq_top,,,,,0,125,125,410,,,,,,,,,,,0.7683657802527468,,,,,,,,,,,,,,,,,,,,,,,713.3939787452673,715.2499663244362,715.2499807568202,716.0239157431006,716.0239295340452,11085.331281262146,11085.331281262146,11086.821689499766,11086.821689499766,11086.821689499766,11086.821689499766,11088.312115056247,11088.312115056247,719.0555265126095,None,1,719.055898868115,719.0559376751917,719.0559463346217,719.0566843105225,,,,,,,ES,001,1,24,F,2024-02-08_13h01.40.124,eye_track_exp,2023.1.3,120.07363106799905,
0,270,0,12,0,0,0,0,0,-12,j,present,resp,freq_top,,,,,0,126,126,742,,,,,,,,,,,1.0524597649739018,,,,,,,,,,,,,,,,,,,,,,,719.0571865574839,719.2388691040487,719.2388825742746,720.2953410981681,720.2953548891128,11089.602718483842,11089.602718483842,11091.093128325061,11091.093128325061,11091.093128325061,11091.093128325061,,,722.9613603387825,j,1,722.9619684232257,722.9620078717417,722.9620168518923,722.9624767638616,2.631596271619287,None,,,,,ES,001,1,24,F,2024-02-08_13h01.40.124,eye_track_exp,2023.1.3,120.07363106799905,
180,-168,180,270,0,180,12,0,180,180,None,present,inhibit,freq_top,,,,,0,127,127,53,,,,,,,,,,,0.9815319477115922,,,,,,,,,,,,,,,,,,,,,,,722.9629915188889,723.1515365036666,723.1515496531738,724.1336929455774,724.1337073779614,11093.441164622827,11093.441164622827,11094.931583444195,11094.931583444195,11094.931583444195,11094.931583444195,11096.42201349075,11096.42201349075,727.1654262299908,None,1,727.1658181493949,727.1658678609401,727.1658768410907,727.1664384211854,,,,,,,ES,001,1,24,F,2024-02-08_13h01.40.124,eye_track_exp,2023.1.3,120.07363106799905,
180,180,12,180,180,180,0,-168,180,180,None,abs,inhibit,freq_top,,,,,0,128,128,367,,,,,,,,,,,0.8956501552598023,,,,,,,,,,,,,,,,,,,,,,,727.1669599113266,727.3490196241928,727.3490327736981,728.2471414258162,728.2471552167608,11097.554391485792,11097.554391485792,11099.053134585507,11099.053134585507,11099.053134585507,11099.053134585507,11100.535201867357,11100.535201867357,731.2787255755939,None,1,731.2792377648657,731.2792813827364,731.279290362887,731.2798057593536,,,,,,,ES,001,1,24,F,2024-02-08_13h01.40.124,eye_track_exp,2023.1.3,120.07363106799905,
180,-168,180,270,0,180,12,0,180,180,None,present,inhibit,freq_top,,,,,0,129,129,47,,,,,,,,,,,0.8902431954630865,,,,,,,,,,,,,,,,,,,,,,,731.2803028748021,731.4697987933232,731.4698119428285,732.3606239023356,732.360637051841,11101.66761385868,11101.66761385868,11103.158024341337,11103.158024341337,11103.158024341337,11103.158024341337,11104.648443804144,11104.648443804144,735.3921548126546,None,1,735.392547373498,735.3925858598541,735.3925951607253,735.3930428853473,,,,,,,ES,001,1,24,F,2024-02-08_13h01.40.124,eye_track_exp,2023.1.3,120.07363106799905,
180,180,90,180,-12,180,-12,180,180,180,j,present,resp,freq_top,,,,,0,130,130,444,,,,,,,,,,,0.9790492474103338,,,,,,,,,,,,,,,,,,,,,,,735.39354384943,735.5582090117077,735.5582237648123,736.5401839262995,736.5401977172442,11105.847442324986,11105.847442324986,,,,,,,737.807344030829,j,1,737.8078597480162,737.8079008001296,737.8079094595614,737.8083700129682,1.217636692557221,None,,,,,ES,001,1,24,F,2024-02-08_13h01.40.124,eye_track_exp,2023.1.3,120.07363106799905,
270,0,180,0,180,12,0,-168,0,0,None,present,inhibit,freq_top,,,,,0,131,131,293,,,,,,,,,,,0.9013371368501998,,,,,,,,,,,,,,,,,,,,,,,737.8088934274274,738.1392484512435,738.1392619214694,739.0471332795369,739.0471470704815,11108.362013259832,11108.362013259832,11109.852425987527,11109.852425987527,11109.852425987527,11109.852425987527,11111.326208760263,11111.326208760263,742.0865138031313,None,1,742.0868858379181,742.0869361909008,742.0869531890421,742.0875138069805,,,,,,,ES,001,1,24,F,2024-02-08_13h01.40.124,eye_track_exp,2023.1.3,120.07363106799905,
0,180,0,0,180,0,180,168,0,168,f,abs,resp,freq_top,,,,,0,132,132,913,,,,,,,,,,,0.8668238566360735,,,,,,,,,,,,,,,,,,,,,,,742.0880118845871,742.2697835912131,742.2697964199979,743.1345527949434,743.134575245318,11112.441933067093,11112.441933067093,,,,,,,744.2846713970666,f,1,744.2851980187206,744.2852384293965,744.2852474095471,744.28602772044,1.1028193808809874,None,,,,,ES,001,1,24,F,2024-02-08_13h01.40.124,eye_track_exp,2023.1.3,120.07363106799905,
0,168,0,168,0,180,0,180,90,0,f,present,resp,freq_top,,,,,0,133,133,589,,,,,,,,,,,0.7732568284366339,,,,,,,,,,,,,,,,,,,,,,,744.2865171386147,744.509226141985,744.5092399329296,745.2833205259285,745.2833339961526,11114.598457402657,11114.598457402657,11116.08889129785,11116.08889129785,11116.08889129785,11116.08889129785,,,747.4826949301914,j,0,747.4832119302573,747.9883870624253,747.9883986083332,747.989136904951,2.1456290389045307,None,11116.77163863363,,,,ES,001,1,24,F,2024-02-08_13h01.40.124,eye_track_exp,2023.1.3,120.07363106799905,
0,0,180,0,12,0,0,0,180,-168,None,abs,inhibit,freq_top,,,,,0,134,134,380,,,,,,,,,,,0.9261976300164265,,,,,,,,,,,,,,,,,,,,,,,747.9896869391414,747.990709714084,747.990720297832,748.921350563247,748.9213640334729,11118.228760983044,11118.228760983044,11119.7191714657,11119.7191714657,11119.7191714657,11119.7191714657,11121.209600229378,11121.209600229378,751.9533959078726,None,1,751.9537810921647,751.9545363869256,751.9545466499549,751.9550928355075,,,,,,,ES,001,1,24,F,2024-02-08_13h01.40.124,eye_track_exp,2023.1.3,120.07363106799905,
90,180,180,12,180,-168,0,180,180,180,None,present,inhibit,freq_top,,,,,0,135,135,25,,,,,,,,,,,0.8258708789057874,,,,,,,,,,,,,,,,,,,,,,,751.9556188157221,752.1616869596673,752.1617001091727,752.9934287752221,752.9934425661668,11122.308677583107,11122.308677583107,11123.799096083756,11123.799096083756,11123.799096083756,11123.799096083756,11125.27286410339,11125.27286410339,756.0328230897612,None,1,756.0333022449086,756.0333404105459,756.0333493906965,756.0338009639545,,,,,,,ES,001,1,24,F,2024-02-08_13h01.40.124,eye_track_exp,2023.1.3,120.07363106799905,
-168,0,0,180,180,180,180,0,-168,180,f,abs,resp,freq_top,,,,,0,136,136,888,,,,,,,,,,,1.0696380325769077,,,,,,,,,,,,,,,,,,,,,,,756.0343192468972,756.2081034308012,756.2081172217459,757.2818551578766,757.28186926954,11126.588433951638,11126.588433951638,11128.078852452287,11128.078852452287,11128.078852452287,11128.078852452287,,,759.389373852624,f,1,759.3898777031845,759.3899161895424,759.3899248489724,759.3903754600706,2.059926015029646,None,,,,,ES,001,1,24,F,2024-02-08_13h01.40.124,eye_track_exp,2023.1.3,120.07363106799905,
0,270,0,0,-12,0,0,12,0,0,j,present,resp,freq_top,,,,,0,137,137,655,,,,,,,,,,,0.8648775282981703,,,,,,,,,,,,,,,,,,,,,,,759.3908661611258,759.5884301030019,759.5884432525072,760.4533955871539,760.4534093780985,11129.76078836737,11129.76078836737,,,,,,,761.7207436333938,j,1,761.7212478046731,761.7212866117497,761.7212952711798,761.7217824443196,1.2228288228665178,None,,,,,ES,001,1,24,F,2024-02-08_13h01.40.124,eye_track_exp,2023.1.3,120.07363106799905,
270,0,12,0,0,12,180,180,180,0,j,present,resp,freq_top,,,,,0,138,138,594,,,,,,,,,,,0.7137229935976991,,,,,,,,,,,,,,,,,,,,,,,761.722264485943,761.911940969625,761.911953477691,762.626767646314,762.6267814372586,11131.93396382539,11131.93396382539,,,,,,,763.8766159459228,j,1,763.8771284559134,763.87716726299,763.8771765638594,763.8778180031477,1.2103383963470833,None,,,,,ES,001,1,24,F,2024-02-08_13h01.40.124,eye_track_exp,2023.1.3,120.07363106799905,
168,0,0,90,0,180,180,180,12,180,None,present,inhibit,freq_top,,,,,0,139,139,84,,,,,,,,,,,1.0778056983738717,,,,,,,,,,,,,,,,,,,,,,,763.8783253816237,764.0756657819074,764.0756786106922,765.1581981713844,765.1582122830478,11134.465193259242,11134.465193259242,11135.963921285136,11135.963921285136,11135.963921285136,11135.963921285136,11137.437691549807,11137.437691549807,768.1892024600475,None,1,768.1895539687757,768.1895927758542,768.1896014352842,768.1900398590369,,,,,,,ES,001,1,24,F,2024-02-08_13h01.40.124,eye_track_exp,2023.1.3,120.07363106799905,
168,0,180,0,180,180,12,180,180,180,None,abs,inhibit,freq_top,,,,,0,140,140,402,,,,,,,,,,,0.8052601858213646,,,,,,,,,,,,,,,,,,,,,,,768.1905475582316,768.3561655785707,768.3561790487965,769.1627584839953,769.1627722749399,11138.47017018667,11138.47017018667,11139.960575537814,11139.960575537814,11139.960575537814,11139.960575537814,11141.450997566379,11141.450997566379,772.1946675227737,None,1,772.1950379539612,772.1950960042177,772.1951049843665,772.1956675266229,,,,,,,ES,001,1,24,F,2024-02-08_13h01.40.124,eye_track_exp,2023.1.3,120.07363106799905,
12,0,270,180,0,180,168,180,0,0,None,present,inhibit,freq_top,,,,,0,141,141,217,,,,,,,,,,,0.839587210393203,,,,,,,,,,,,,,,,,,,,,,,772.1962117878575,772.3689561986757,772.3689690274623,773.2100085054844,773.2100226171478,11142.525101764342,11142.525101764342,11144.015525717225,11144.015525717225,11144.015525717225,11144.015525717225,11145.489308810682,11145.489308810682,776.249375558853,None,1,776.2497601017058,776.2497979466243,776.2498069267731,776.2503685068696,,,,,,,ES,001,1,24,F,2024-02-08_13h01.40.124,eye_track_exp,2023.1.3,120.07363106799905,
180,270,0,12,180,0,0,180,0,-168,None,present,inhibit,freq_top,,,,,0,142,142,317,,,,,,,,,,,0.7309248625544114,,,,,,,,,,,,,,,,,,,,,,,776.2508585664855,776.4410158089122,776.4410376178475,777.1734429382013,777.1734560877067,11146.488458582906,11146.488458582906,11147.978868103404,11147.978868103404,11147.978868103404,11147.978868103404,11149.45263484016,11149.45263484016,780.2129129425757,None,1,780.2132878638404,780.2133263501964,780.213335330347,780.2140171803094,,,,,,,ES,001,1,24,F,2024-02-08_13h01.40.124,eye_track_exp,2023.1.3,120.07363106799905,
