ori10,ori11,ori12,ori13,ori14,ori16,ori17,ori18,ori19,ori20,corrAns,distractor,responses,dist_freq,practice_trials.thisRepN,practice_trials.thisTrialN,practice_trials.thisN,practice_trials.thisIndex,trials.thisRepN,trials.thisTrialN,trials.thisN,trials.thisIndex,intro_2.started,intro_2.stopped,key_resp.keys,key_resp.rt,key_resp.duration,start_et_record_2.started,start_et_record_2.stopped,fix_check_3.started,fix_check_3.stopped,fix_practice_2.started,fixdur,fix_practice_2.stopped,practice_search_2.started,int14_2.started,per15_2.started,practice_search_2.stopped,response_2.keys,response_2.corr,response_2.rt,response_2.duration,feedback_4.started,feedback_4.stopped,pause_pract_2.started,pause_pract_2.stopped,text_feedback.started,text_feedback.stopped,stop_et_record_2.started,stop_et_record_2.stopped,break_3.started,break_3.stopped,key_resp_2.keys,key_resp_2.rt,key_resp_2.duration,fix_check_2.started,fix_check_2.stopped,fixation_2.started,fixation_2.stopped,search_displays_2.started,int14.started,per15.started,search_displays_2.stopped,response.keys,response.corr,response.rt,response.duration,feedback_6.started,feedback_6.stopped,pause_4.started,pause_4.stopped,int14.stopped,int14_3.started,per15.stopped,per15_3.started,int14_3.stopped,per15_3.stopped,text_feedback_2.started,text_feedback_2.stopped,end_2.started,end_2.stopped,participant,session,group,age,gender,date,expName,psychopyVersion,frameRate,
,,,,,,,,,,,,,,,,,,,,,,1.0262804778449208e-05,19.243659831638695,space,19.169450642559354,None,,,,,,,,,,,,,,,,,,,,,,,,,,,,,,,,,,,,,,,,,,,,,,,,,,,,,,,MSR,001,2,33,F,2024-02-16_10h38.39.135,eye_track_exp,2023.1.3,120.10122525700554,
12,0,0,12,0,0,180,0,180,180,j,abs,resp,freq_top,0,0,0,6,,,,,,,,,,260.55215749813345,261.0535689545024,261.11421764073515,261.3579608576626,261.35797464830654,0.7957644194694596,262.15648371934304,262.1565141870447,298.97420347806457,298.97420347806457,263.8059784686356,j,1,1.6141533675906317,None,263.8067026377974,263.8067452925797,263.80675395182124,263.80721994730044,,,,,,,,,,,,,,,,,,,,,,,,,,,,,,,,,,,,MSR,001,2,33,F,2024-02-16_10h38.39.135,eye_track_exp,2023.1.3,120.10122525700554,
180,0,180,0,12,180,180,180,12,180,j,abs,resp,freq_top,0,1,1,9,,,,,,,,,,,,263.8076901120441,264.2303239582612,264.23033678676717,0.8610148667660531,265.095358133401,265.0953706411944,301.91333606580514,301.91333606580514,268.10929758798426,None,0,,,268.109706496612,268.60024258704783,268.6002531705653,268.6013455178483,304.9107687610486,,,,,,,,,,,,,,,,,,,,,,,,,,,,,,,,,,,MSR,001,2,33,F,2024-02-16_10h38.39.135,eye_track_exp,2023.1.3,120.10122525700554,
180,180,168,0,270,0,0,168,0,180,f,present,resp,freq_top,0,2,2,47,,,,,,,,,,,,268.60188239082294,268.6028050811146,268.60281566463203,1.0391378280482595,269.6417088083088,269.6417216368147,306.4594365848465,306.4594365848465,271.591156797697,f,1,1.9045638028105145,None,271.5916715414989,271.5924171984082,271.5924264990751,271.5927943564837,,,,,,,,,,,,,,,,,,,,,,,,,,,,,,,,,,,,MSR,001,2,33,F,2024-02-16_10h38.39.135,eye_track_exp,2023.1.3,120.10122525700554,
0,0,180,0,168,0,0,0,180,168,f,abs,resp,freq_top,0,3,3,17,,,,,,,,,,,,271.593276708308,271.85674214959573,271.8567549781017,1.0610414322329245,272.9225042783067,272.9225171068127,309.73995527982817,309.73995527982817,274.055274183658,f,1,1.0877580751392202,None,274.05576711899977,274.0558049630924,274.0558133016213,274.0562661478819,,,,,,,,,,,,,,,,,,,,,,,,,,,,,,,,,,,,MSR,001,2,33,F,2024-02-16_10h38.39.135,eye_track_exp,2023.1.3,120.10122525700554,
90,0,0,12,0,180,180,180,0,12,j,present,resp,freq_top,0,4,4,36,,,,,,,,,,,,274.0567484997062,274.3801105560644,274.380123705283,0.9926215187487086,275.3786580484763,275.3786705562697,312.19618473818304,312.19618473818304,277.411443861175,j,1,1.991588538735698,None,277.4119464178962,277.41198297913826,277.4119913176672,277.4123627029149,,,,,,,,,,,,,,,,,,,,,,,,,,,,,,,,,,,,MSR,001,2,33,F,2024-02-16_10h38.39.135,eye_track_exp,2023.1.3,120.10122525700554,
0,180,0,180,168,180,12,180,0,180,None,abs,inhibit,freq_top,0,5,5,28,,,,,,,,,,,,277.41283799906097,277.79402518748856,277.79403833670716,0.9029152101021911,278.7008719535506,278.70089312058536,315.5183386699918,315.5183386699918,281.71425272669893,None,1,,,281.7156500717113,281.71568951936723,281.7156991407466,281.7161693054904,,,,,,,,,,,,,,,,,,,,,,,,,,,,,,,,,,,,MSR,001,2,33,F,2024-02-16_10h38.39.135,eye_track_exp,2023.1.3,120.10122525700554,
168,0,270,180,180,180,180,168,180,180,f,present,resp,freq_top,0,6,6,49,,,,,,,,,,,,281.71664428092373,282.00695016382,282.00696363375124,1.095085752549652,283.1055253658048,283.1055385150234,319.92288785063516,319.92288785063516,284.9549754718966,f,1,1.8007006906662468,None,284.9554626344107,284.95549919565264,284.95550721346893,284.95585262099206,,,,,,,,,,,,,,,,,,,,,,,,,,,,,,,,,,,,MSR,001,2,33,F,2024-02-16_10h38.39.135,eye_track_exp,2023.1.3,120.10122525700554,
0,180,0,-168,180,0,180,0,12,180,None,abs,inhibit,freq_top,0,7,7,24,,,,,,,,,,,,284.9563256721496,285.4369677773587,285.4369809265773,0.7501545451010204,286.1860980046542,286.1861111538728,323.00358300171644,323.00358300171644,289.19955863525223,None,1,,,289.20000218084596,289.2000406663639,289.20004964631806,289.20133249691474,,,,,,,,,,,,,,,,,,,,,,,,,,,,,,,,,,,,MSR,001,2,33,F,2024-02-16_10h38.39.135,eye_track_exp,2023.1.3,120.10122525700554,
0,168,180,90,0,180,0,168,0,0,f,present,resp,freq_top,0,8,8,48,,,,,,,,,,,,289.2018026616584,289.51661131166344,289.5166324786982,0.9241877604324978,290.4408779059773,290.4408913759085,327.25825803000333,327.25825803000333,291.95686607296335,f,1,1.4724490492589553,None,291.957393003846,291.9574295650879,291.95743790361684,291.9579292353954,,,,,,,,,,,,,,,,,,,,,,,,,,,,,,,,,,,,MSR,001,2,33,F,2024-02-16_10h38.39.135,eye_track_exp,2023.1.3,120.10122525700554,
90,0,0,12,0,0,0,12,0,0,j,present,resp,freq_top,0,9,9,34,,,,,,,,,,,,291.95839619301256,294.6541293677855,294.6541437998548,0.8661334460901614,295.51966866534787,295.51968149385385,332.3372777782054,332.3372777782054,296.91979682212246,j,1,1.352804629787272,None,296.9203057930967,296.9203433164767,296.92035197571823,296.920812839795,,,,,,,,,,,,,,,,,,,,,,,,,,,,,,,,,,,,MSR,001,2,33,F,2024-02-16_10h38.39.135,eye_track_exp,2023.1.3,120.10122525700554,
0,180,0,12,0,180,180,180,0,12,j,abs,resp,freq_top,0,10,10,4,,,,,,,,,,,,296.9212788352742,297.2770380006004,297.277051149819,0.9840435437400284,298.2672498505479,298.2672626790539,335.0848923175209,335.0848923175209,299.63328432844054,j,1,1.3259301926379408,None,299.6337775844949,299.6338154285875,299.63382408782905,299.634303232527,,,,,,,,,,,,,,,,,,,,,,,,,,,,,,,,,,,,MSR,001,2,33,F,2024-02-16_10h38.39.135,eye_track_exp,2023.1.3,120.10122525700554,
0,180,0,12,0,12,0,180,180,180,j,abs,resp,freq_top,0,11,11,0,,,,,,,,,,,,299.6347794908109,299.9498017354403,299.9498152053715,0.8429387293843921,300.7980732225463,300.798086371765,337.6160543620769,337.6160543620769,301.8819055847618,j,1,1.0344703856300725,None,301.8823991615288,301.88243604348344,301.88244470272497,301.882909094641,,,,,,,,,,,,,,,,,,,,,,,,,,,,,,,,,,,,MSR,001,2,33,F,2024-02-16_10h38.39.135,eye_track_exp,2023.1.3,120.10122525700554,
12,0,0,-168,0,0,180,180,180,180,None,abs,inhibit,freq_top,0,12,12,27,,,,,,,,,,,,301.8833815043732,302.20630033585024,302.2063138057816,0.7493261879149012,302.95466085278775,302.954674322719,339.7725284600405,339.7725284600405,305.96848036084015,None,1,,,305.96917181731175,305.96921126496767,305.9692202449218,305.97027218241107,,,,,,,,,,,,,,,,,,,,,,,,,,,,,,,,,,,,MSR,001,2,33,F,2024-02-16_10h38.39.135,eye_track_exp,2023.1.3,120.10122525700554,
90,0,180,180,180,168,0,168,0,0,f,present,resp,freq_top,0,13,13,44,,,,,,,,,,,,305.9708151489261,306.3193797673935,306.3193929166121,0.7450161121965525,307.0681309123377,307.0681440615563,343.88568710760813,343.88568710760813,308.77602102078987,f,1,1.6598943677522016,None,308.776520049672,308.7765575730519,308.7765662322934,308.7772406909946,,,,,,,,,,,,,,,,,,,,,,,,,,,,,,,,,,,,MSR,001,2,33,F,2024-02-16_10h38.39.135,eye_track_exp,2023.1.3,120.10122525700554,
0,180,0,0,180,0,180,168,0,168,f,abs,resp,freq_top,0,14,14,14,,,,,,,,,,,,308.77773875773875,308.983239236242,308.983252064748,1.0392438101197177,310.02413138186097,310.02414453107957,346.8415159958641,346.8415159958641,310.83214381011754,f,1,0.7681570160177102,None,310.83263450047076,310.83267362741395,310.8326826073682,310.833143471445,,,,,,,,,,,,,,,,,,,,,,,,,,,,,,,,,,,,MSR,001,2,33,F,2024-02-16_10h38.39.135,eye_track_exp,2023.1.3,120.10122525700554,
180,270,0,0,168,0,0,168,180,0,f,present,resp,freq_top,0,15,15,45,,,,,,,,,,,,310.8336373689247,311.37331497574127,311.37332908709783,1.0230156693170924,312.3970980636653,312.3971112128839,349.21444226787463,349.21444226787463,313.29682372606516,f,1,0.8595007891892124,None,313.2973262827864,313.2973657304423,313.2973740689711,313.2977300600117,,,,,,,,,,,,,,,,,,,,,,,,,,,,,,,,,,,,MSR,001,2,33,F,2024-02-16_10h38.39.135,eye_track_exp,2023.1.3,120.10122525700554,
180,0,180,12,180,180,12,180,180,180,j,abs,resp,freq_top,0,16,16,1,,,,,,,,,,,,313.2982037525946,313.2989449195267,313.29895486161894,0.9124358469382856,314.21209657555863,314.21211036620247,351.02952737218317,351.02952737218317,315.32061579394343,j,1,1.0600767249645173,None,315.3211209163658,315.32115843974583,315.32116709898725,315.32162764235153,,,,,,,,,,,,,,,,,,,,,,,,,,,,,,,,,,,,MSR,001,2,33,F,2024-02-16_10h38.39.135,eye_track_exp,2023.1.3,120.10122525700554,
0,0,180,0,0,0,168,0,180,168,f,abs,resp,freq_top,0,17,17,15,,,,,,,,,,,,315.3221064663367,318.3674507449513,318.36746421488255,0.9967844805408097,319.3660867540544,319.36609958256037,356.18347393375876,356.18347393375876,320.2824218038418,f,1,0.8827579083685464,None,320.28292371913784,320.7888277182962,320.7888376603884,320.78988125934876,357.0827018501272,,,,,,,,,,,,,,,,,,,,,,,,,,,,,,,,,,,MSR,001,2,33,F,2024-02-16_10h38.39.135,eye_track_exp,2023.1.3,120.10122525700554,
0,180,180,180,168,0,0,0,0,12,None,abs,inhibit,freq_top,0,18,18,31,,,,,,,,,,,,320.79042679156504,320.7914007958805,320.79141105868524,1.0907070685822886,321.880166680778,321.8801798299966,358.6979823325816,358.6979823325816,324.8939223670133,None,1,,,324.89431716428436,324.8950496719751,324.89505929335456,324.896609297588,,,,,,,,,,,,,,,,,,,,,,,,,,,,,,,,,,,,MSR,001,2,33,F,2024-02-16_10h38.39.135,eye_track_exp,2023.1.3,120.10122525700554,
180,180,90,180,12,180,12,0,0,180,j,present,resp,freq_top,0,19,19,39,,,,,,,,,,,,324.89710255364236,325.2784802453836,325.2784930738896,0.9600590841613155,326.24353347085486,326.24354629936084,363.0609055770647,363.0609055770647,327.30958873092726,j,1,1.0276988587556275,None,327.31010219187857,327.3101406773964,327.31014933663795,327.310619180669,,,,,,,,,,,,,,,,,,,,,,,,,,,,,,,,,,,,MSR,001,2,33,F,2024-02-16_10h38.39.135,eye_track_exp,2023.1.3,120.10122525700554,
180,168,180,0,180,0,180,0,0,168,f,abs,resp,freq_top,0,20,20,20,,,,,,,,,,,,327.3110980046542,327.60035932645206,327.60037247567067,1.0445527884478802,328.64926383618507,328.6492769854037,365.46715613831185,365.46715613831185,329.5501228970872,f,1,0.8621136351418386,None,329.55060941817595,329.5506463001306,329.5506546386594,329.5511366697711,,,,,,,,,,,,,,,,,,,,,,,,,,,,,,,,,,,,MSR,001,2,33,F,2024-02-16_10h38.39.135,eye_track_exp,2023.1.3,120.10122525700554,
180,180,0,168,180,180,180,0,0,168,f,abs,resp,freq_top,0,21,21,18,,,,,,,,,,,,329.55160811736545,330.1322343152272,330.1322477851584,0.7379199494756493,330.8726847753857,330.87269824531694,367.69027881474875,367.69027881474875,331.8897062785274,f,1,0.9755856189677274,None,331.8903210846758,331.8903586080558,331.89036726729734,331.89105391307913,,,,,,,,,,,,,,,,,,,,,,,,,,,,,,,,,,,,MSR,001,2,33,F,2024-02-16_10h38.39.135,eye_track_exp,2023.1.3,120.10122525700554,
0,0,0,-168,0,12,0,0,0,0,None,abs,inhibit,freq_top,0,22,22,21,,,,,,,,,,,,331.89153145421375,332.18903188396877,332.18904471247464,0.9737844202295556,333.16272478749573,333.1627376160017,369.9799663636574,369.9799663636574,336.1759275651239,None,1,,,336.1763409637287,336.1763813735225,336.17639067418924,336.1778640280996,,,,,,,,,,,,,,,,,,,,,,,,,,,,,,,,,,,,MSR,001,2,33,F,2024-02-16_10h38.39.135,eye_track_exp,2023.1.3,120.10122525700554,
180,12,180,-168,180,180,0,180,180,180,None,abs,inhibit,freq_top,0,23,23,26,,,,,,,,,,,,336.1783585670045,336.53474632912304,336.53475947834164,1.0056680288684947,337.54225645722846,337.5422699271597,374.359549347414,374.359549347414,340.555469818374,None,1,,,340.55584376932296,340.5558819341282,340.5558905933697,340.55682098076494,,,,,,,,,,,,,,,,,,,,,,,,,,,,,,,,,,,,MSR,001,2,33,F,2024-02-16_10h38.39.135,eye_track_exp,2023.1.3,120.10122525700554,
0,270,0,0,12,0,180,180,180,12,j,present,resp,freq_top,0,24,24,42,,,,,,,,,,,,340.5573123125434,340.91490242638355,340.91491557560227,1.0919077144198412,342.0127136908381,342.01272716076943,378.8307188838174,378.8307188838174,343.0632887927606,j,1,1.0016945150235301,None,343.06378782164273,343.06382566573535,343.06383400426415,343.0641896745921,,,,,,,,,,,,,,,,,,,,,,,,,,,,,,,,,,,,MSR,001,2,33,F,2024-02-16_10h38.39.135,eye_track_exp,2023.1.3,120.10122525700554,
180,168,0,180,0,180,180,180,168,180,f,abs,resp,freq_top,0,25,25,12,,,,,,,,,,,,343.0646736299797,345.818906716236,345.8189205068799,0.7508115116653059,346.5756695838689,346.5756824123749,383.3934656722009,383.3934656722009,347.975410640476,f,1,1.3502395700193688,None,347.97593436423205,347.9759715668993,347.97597990542823,347.9764552015743,,,,,,,,,,,,,,,,,,,,,,,,,,,,,,,,,,,,MSR,001,2,33,F,2024-02-16_10h38.39.135,eye_track_exp,2023.1.3,120.10122525700554,
180,180,180,-168,180,180,12,180,0,180,None,abs,inhibit,freq_top,0,26,26,22,,,,,,,,,,,,347.976974756066,349.30683605425946,349.306851127754,0.8530512395731764,350.16519684059557,350.1652099898142,386.9820599758311,386.9820599758311,353.16974101812156,None,1,,,353.17023972629096,353.17028238107326,353.17029200245275,353.1708856415664,,,,,,,,,,,,,,,,,,,,,,,,,,,,,,,,,,,,MSR,001,2,33,F,2024-02-16_10h38.39.135,eye_track_exp,2023.1.3,120.10122525700554,
180,0,180,0,168,180,0,180,12,180,None,abs,inhibit,freq_top,0,27,27,30,,,,,,,,,,,,353.17136927624136,353.7868527698027,353.7868659190213,1.011117332678558,354.8025372219101,354.8025503711287,391.6197486510826,391.6197486510826,357.8156864405258,None,1,,,357.8160789928083,357.81611779903886,357.81612709970574,357.8168756430288,,,,,,,,,,,,,,,,,,,,,,,,,,,,,,,,,,,,MSR,001,2,33,F,2024-02-16_10h38.39.135,eye_track_exp,2023.1.3,120.10122525700554,
90,0,0,12,0,12,180,180,180,0,j,present,resp,freq_top,0,28,28,32,,,,,,,,,,,,357.8173656919568,358.30760608533006,358.307620838112,0.8170638788920768,359.1313648632353,359.1313796160171,395.94936428338684,395.94936428338684,360.09835840023396,f,0,0.9219438626939223,None,360.0988654469323,360.6046620073533,360.604672270158,360.60599873767495,396.8985682104491,,,,,,,,,,,,,,,,,,,,,,,,,,,,,,,,,,,MSR,001,2,33,F,2024-02-16_10h38.39.135,eye_track_exp,2023.1.3,120.10122525700554,
180,270,0,0,0,0,0,168,0,168,f,present,resp,freq_top,0,29,29,43,,,,,,,,,,,,360.6065455527418,361.0469866480909,361.04700011802225,0.7546776312505025,361.8044775334375,361.8044910033687,398.6220744592144,398.6220744592144,364.2376596186854,j,0,2.3925787711111184,None,364.2381576854296,364.7353100778177,364.73531873705923,364.7356971779853,401.02833849039274,401.5279148289832,,,,,,,,,,,,,,,,,,,,,,,,,,,,,,,,,,MSR,001,2,33,F,2024-02-16_10h38.39.135,eye_track_exp,2023.1.3,120.10122525700554,
180,12,180,12,180,90,180,180,0,180,j,present,resp,freq_top,0,30,30,37,,,,,,,,,,,,364.7362337302473,365.42662800154966,365.42664243361884,0.7180303848715868,366.1506647090367,366.1506778582553,402.96831679738915,402.96831679738915,367.7667549909302,j,1,1.5666757084337064,None,367.7672581890768,367.7679807546753,367.7679900553422,374.60228937517473,,,,,,,,,,,,,,,,,,,,,,,,,,,,,,,,,,,,MSR,001,2,33,F,2024-02-16_10h38.39.135,eye_track_exp,2023.1.3,120.10122525700554,
0,0,0,-168,180,180,180,180,0,12,None,abs,inhibit,freq_top,0,31,31,25,,,,,,,,,,,,374.6028246445862,374.9935305844411,374.9935440543723,1.0745876123052343,376.0673528634508,376.0673656919568,412.8848089963747,412.8848089963747,379.0808725051763,None,1,,,379.08129199732144,379.0813304828393,379.08133946279344,379.08191161415954,,,,,,,,,,,,,,,,,,,,,,,,,,,,,,,,,,,,MSR,001,2,33,F,2024-02-16_10h38.39.135,eye_track_exp,2023.1.3,120.10122525700554,
180,270,180,12,180,0,12,180,0,180,j,present,resp,freq_top,0,32,32,33,,,,,,,,,,,,379.0823981352484,379.36458389458045,379.36459736451167,0.7895436193473722,380.1556431314896,380.1556556392829,416.97300978558434,416.97300978558434,381.97101399076854,j,1,1.769051483596229,None,381.97151622677717,381.97155375015717,381.9715624093987,381.9721871576392,,,,,,,,,,,,,,,,,,,,,,,,,,,,,,,,,,,,MSR,001,2,33,F,2024-02-16_10h38.39.135,eye_track_exp,2023.1.3,120.10122525700554,
0,270,0,0,12,0,0,12,0,0,j,present,resp,freq_top,0,33,33,40,,,,,,,,,,,,381.9727086364068,382.3791118568749,382.3791250060935,0.784202058844987,383.16968072414346,383.16969355264945,419.9870919572965,419.9870919572965,384.2031794810612,j,1,0.995231513717556,None,384.20369165916196,384.2037301446799,384.20373880392145,384.2042121757916,,,,,,,,,,,,,,,,,,,,,,,,,,,,,,,,,,,,MSR,001,2,33,F,2024-02-16_10h38.39.135,eye_track_exp,2023.1.3,120.10122525700554,
180,0,180,0,12,0,12,180,180,180,j,abs,resp,freq_top,0,34,34,7,,,,,,,,,,,,384.20471024253567,384.60196737967505,384.60198084960626,0.8284051532638438,385.43421926995535,385.4342333813119,422.2518187614334,422.2518187614334,386.3008387277201,j,1,0.826152125791225,None,386.30134673655635,386.30138425993636,386.3013929191779,386.3020523043845,,,,,,,,,,,,,,,,,,,,,,,,,,,,,,,,,,,,MSR,001,2,33,F,2024-02-16_10h38.39.135,eye_track_exp,2023.1.3,120.10122525700554,
12,0,0,12,0,0,90,180,180,0,j,present,resp,freq_top,0,35,35,38,,,,,,,,,,,,386.302532731933,386.9083759239731,386.90838971461704,0.9820890815182933,387.8906559086816,387.8906693786128,424.708045654087,424.708045654087,389.6902910018293,j,1,1.7612568833708906,None,389.6907900307114,389.69082787480403,389.69083653404556,389.6912903424441,,,,,,,,,,,,,,,,,,,,,,,,,,,,,,,,,,,,MSR,001,2,33,F,2024-02-16_10h38.39.135,eye_track_exp,2023.1.3,120.10122525700554,
0,0,0,0,168,0,0,12,0,0,None,abs,inhibit,freq_top,0,36,36,29,,,,,,,,,,,,389.69176307288905,390.2051669373481,390.20518072799206,0.7624032273230659,390.9712811444054,390.97129397291127,427.78873182521414,427.78873182521414,393.9847529999461,None,1,,,393.9851756992177,393.98521450544825,393.9852234854024,393.9862677257881,,,,,,,,,,,,,,,,,,,,,,,,,,,,,,,,,,,,MSR,001,2,33,F,2024-02-16_10h38.39.135,eye_track_exp,2023.1.3,120.10122525700554,
90,0,180,168,180,180,0,168,0,0,f,present,resp,freq_top,0,37,37,46,,,,,,,,,,,,393.98674943618715,394.2361336679008,394.2361474585446,0.8398138165749959,395.0756862609267,395.0756990894326,431.8935381532596,431.8935381532596,396.259459419587,f,1,1.1362703533022227,None,396.2599542792047,396.2599924440099,396.26000078253884,396.2606165508252,,,,,,,,,,,,,,,,,,,,,,,,,,,,,,,,,,,,MSR,001,2,33,F,2024-02-16_10h38.39.135,eye_track_exp,2023.1.3,120.10122525700554,
180,0,180,12,0,180,180,0,12,180,j,abs,resp,freq_top,0,38,38,3,,,,,,,,,,,,396.2610937712472,397.2324890893556,397.2325035214249,1.035989066257065,398.27335429511203,398.27336776504336,435.0915240136804,435.0915240136804,399.6809903350036,j,1,1.3593930297390102,None,399.6814951367134,399.68153169795534,399.68154003648425,399.68202238830855,,,,,,,,,,,,,,,,,,,,,,,,,,,,,,,,,,,,MSR,001,2,33,F,2024-02-16_10h38.39.135,eye_track_exp,2023.1.3,120.10122525700554,
180,180,0,168,180,180,180,180,168,180,f,abs,resp,freq_top,0,39,39,10,,,,,,,,,,,,399.6825040987076,400.33871553301157,400.3387290029429,0.8799391449709155,401.2207340086259,401.2207471578445,438.0382770546776,438.0382770546776,402.4706451712221,f,1,1.2145591973767864,None,402.47113971012703,402.47117755421965,402.4711865341738,402.4717455363213,,,,,,,,,,,,,,,,,,,,,,,,,,,,,,,,,,,,MSR,001,2,33,F,2024-02-16_10h38.39.135,eye_track_exp,2023.1.3,120.10122525700554,
0,180,0,0,180,168,180,0,0,168,f,abs,resp,freq_top,0,40,40,16,,,,,,,,,,,,402.47221858747884,402.8775855853775,402.8775984138835,0.7446628331897756,403.6270830286563,403.6270961778749,440.44456000790234,440.44456000790234,404.86018820701105,f,1,1.1924441359411162,None,404.8607241178477,404.8607616412277,404.86076997975664,404.8613026834668,,,,,,,,,,,,,,,,,,,,,,,,,,,,,,,,,,,,MSR,001,2,33,F,2024-02-16_10h38.39.135,eye_track_exp,2023.1.3,120.10122525700554,
0,180,0,12,0,180,180,12,0,0,j,abs,resp,freq_top,0,41,41,2,,,,,,,,,,,,404.8618677791547,405.4092392824247,405.4092533937813,0.9833464473677205,406.3915324163517,406.3915452448577,443.20885032212385,443.20885032212385,407.72379424872423,j,1,1.2923605582247433,None,407.7242875047786,407.7243253488712,407.72433400811275,407.72481668064967,,,,,,,,,,,,,,,,,,,,,,,,,,,,,,,,,,,,MSR,001,2,33,F,2024-02-16_10h38.39.135,eye_track_exp,2023.1.3,120.10122525700554,
168,0,180,0,0,180,180,0,168,0,f,abs,resp,freq_top,0,42,42,13,,,,,,,,,,,,407.72529325964643,408.10665716074374,408.10667030996234,0.7725089122912593,408.8806326762572,408.8806458254758,445.6983745641515,445.6983745641515,410.0971868369266,f,1,1.1700776357883456,None,410.0977554604536,410.0977917009829,410.0978000395118,410.0982676385543,,,,,,,,,,,,,,,,,,,,,,,,,,,,,,,,,,,,MSR,001,2,33,F,2024-02-16_10h38.39.135,eye_track_exp,2023.1.3,120.10122525700554,
180,12,180,12,0,180,0,180,180,180,j,abs,resp,freq_top,0,43,43,5,,,,,,,,,,,,410.0987252955046,410.72142931364925,410.72144278358047,0.7920830144110881,411.5200438991474,411.520057048366,448.33778001421405,448.33778001421405,412.8202671792937,j,1,1.2508859984348533,None,412.8207655667506,412.8208034108431,412.8208120700846,412.8211741546656,,,,,,,,,,,,,,,,,,,,,,,,,,,,,,,,,,,,MSR,001,2,33,F,2024-02-16_10h38.39.135,eye_track_exp,2023.1.3,120.10122525700554,
0,0,168,0,0,0,0,0,168,0,f,abs,resp,freq_top,0,44,44,11,,,,,,,,,,,,412.8216513750876,418.22369450709033,418.22370797702155,0.9794191184375137,419.2052025364522,419.2052153649582,456.02285751121855,456.02285751121855,420.8047199922002,f,1,1.5502058310485722,None,420.8052170968064,420.80525494089903,420.80526360014056,420.80571965352766,,,,,,,,,,,,,,,,,,,,,,,,,,,,,,,,,,,,MSR,001,2,33,F,2024-02-16_10h38.39.135,eye_track_exp,2023.1.3,120.10122525700554,
0,0,168,0,0,0,0,0,180,168,f,abs,resp,freq_top,0,45,45,19,,,,,,,,,,,,420.8061927046852,421.6205860318095,421.62059982245347,0.852052197859511,422.47757256444396,422.47758571366256,459.2950489022648,459.2950489022648,423.5615742629382,f,1,1.044534669273446,None,423.56210792878636,423.562145772879,423.5621541114079,423.5626656480833,,,,,,,,,,,,,,,,,,,,,,,,,,,,,,,,,,,,MSR,001,2,33,F,2024-02-16_10h38.39.135,eye_track_exp,2023.1.3,120.10122525700554,
180,0,90,180,12,0,180,180,12,180,j,present,resp,freq_top,0,46,46,41,,,,,,,,,,,,423.5631989932188,424.2594982258176,424.25951201646154,1.0600823086333864,425.3247985283138,425.324811998245,462.1426116144161,462.1426116144161,427.70776342695575,j,1,2.342145103466976,None,427.7082874714245,427.70832563622974,427.7083342954713,427.70882306154857,,,,,,,,,,,,,,,,,,,,,,,,,,,,,,,,,,,,MSR,001,2,33,F,2024-02-16_10h38.39.135,eye_track_exp,2023.1.3,120.10122525700554,
0,0,0,-168,0,0,0,12,0,0,None,abs,inhibit,freq_top,0,47,47,23,,,,,,,,,,,,427.70930509266026,428.1980378158699,428.19805160651384,0.7624322092514062,428.96411417883445,428.9641276487658,465.78116813809635,465.78116813809635,431.9770985511486,None,1,,,431.9774946312702,431.9775343996387,431.9775440210182,431.97842245296425,,,,,,,,,,,,,,,,,,,,,,,,,,,,,,,,,,,,MSR,001,2,33,F,2024-02-16_10h38.39.135,eye_track_exp,2023.1.3,120.10122525700554,
180,270,180,12,180,180,180,180,12,180,j,present,resp,freq_top,0,48,48,35,,,,,,,,,,,,431.97892757538665,435.1082523854606,435.10826617610456,1.0526316160935645,436.1658231923994,436.165836341618,472.98332614937004,472.98332614937004,437.5488920019397,j,1,1.3404171037132642,None,437.54942759206375,437.54946511544375,437.5494740953979,437.5500529817296,,,,,,,,,,,,,,,,,,,,,,,,,,,,,,,,,,,,MSR,001,2,33,F,2024-02-16_10h38.39.135,eye_track_exp,2023.1.3,120.10122525700554,
0,180,180,180,12,0,180,12,0,0,j,abs,resp,freq_top,0,49,49,8,,,,,,,,,,,,437.5505414270943,438.22288406622584,438.2228975361572,0.8347566666052115,439.06335165243985,439.06336512237107,475.8808283109733,475.8808283109733,440.1804521791783,j,1,1.0825910736484161,None,440.1809528116236,440.18099899424516,440.18100733277396,440.1814733282533,,,,,,,,,,,,,,,,,,,,,,,,,,,,,,,,,,,,MSR,001,2,33,F,2024-02-16_10h38.39.135,eye_track_exp,2023.1.3,120.10122525700554,
,,,,,,,,,,,,,,,,,,,,,,,,,,,,,,,,,,,,,,,,,,,,,,,,440.1815262458403,440.68374172882073,440.68376000944176,443.54233150398835,space,2.8434157669830142,None,,,,,,,,,,,,,,,,,,,,,,,,,,,MSR,001,2,33,F,2024-02-16_10h38.39.135,eye_track_exp,2023.1.3,120.10122525700554,
0,180,0,0,0,0,168,0,168,180,f,abs,resp,freq_bottom,,,,,0,0,0,989,,,,,,443.542356519575,444.0431413034275,,,,0.9522031123582673,,,,,,,,,,,,,,,,,,,,,,,444.21596469082016,444.7591406312138,444.7591553839956,445.71602819192475,445.71604294470654,482.5334442357675,482.5334442357675,447.1495441390404,f,1,1.389063119051059,None,447.1509023571097,447.15094533260464,447.1509546332715,447.1512211454829,,,,,,,,,,,MSR,001,2,33,F,2024-02-16_10h38.39.135,eye_track_exp,2023.1.3,120.10122525700554,
12,0,0,0,0,180,90,180,-168,180,None,present,inhibit,freq_bottom,,,,,0,1,1,261,,,,,,,,,,,0.8933844309307624,,,,,,,,,,,,,,,,,,,,,,,447.15169612091637,447.8230051031797,447.8230201766742,448.7216698481362,448.72168395949274,485.5392196291536,485.5392196291536,451.7529839104878,None,1,,,451.7533565785861,451.753396026242,451.75340532690876,451.75397587471167,487.02958894901184,487.02958894901184,487.02958894901184,487.02958894901184,488.5199832844567,488.5199832844567,,,,,MSR,001,2,33,F,2024-02-16_10h38.39.135,eye_track_exp,2023.1.3,120.10122525700554,
180,0,180,168,180,180,168,180,180,0,f,abs,resp,freq_bottom,,,,,0,2,2,838,,,,,,,,,,,1.0149747568462029,,,,,,,,,,,,,,,,,,,,,,,451.7544585472487,452.0110758113388,452.01109152625867,453.02634782697936,453.02636225904854,489.84383314475434,489.84383314475434,454.8676483039432,f,1,1.8072304002031956,None,454.86817042413605,454.86820923036663,454.8682182103208,454.8686450788568,491.3342403087052,491.3342403087052,491.3342403087052,491.3342403087052,,,,,,,MSR,001,2,33,F,2024-02-16_10h38.39.135,eye_track_exp,2023.1.3,120.10122525700554,
0,180,12,0,0,168,180,270,180,180,None,present,inhibit,freq_bottom,,,,,0,3,3,226,,,,,,,,,,,0.839719127521511,,,,,,,,,,,,,,,,,,,,,,,454.8691652747737,457.21446600061057,457.2144807533925,458.055573087847,458.05558687849094,494.87284898026206,494.87284898026206,461.0863752928106,None,1,,,461.08677361792087,461.0868101791629,461.08681883840444,461.08751221915196,496.36327410412133,496.36327410412133,496.36327410412133,496.36327410412133,497.85363508545066,497.85363508545066,,,,,MSR,001,2,33,F,2024-02-16_10h38.39.135,eye_track_exp,2023.1.3,120.10122525700554,
180,180,168,0,0,0,90,0,168,180,f,present,resp,freq_bottom,,,,,0,4,4,639,,,,,,,,,,,0.8313237238963317,,,,,,,,,,,,,,,,,,,,,,,461.08798911886123,461.64456571658746,461.644580790082,462.476626462129,462.4766402527728,499.2940874057426,499.2940874057426,464.06824797245457,f,1,1.555797776799352,None,464.0687569434288,464.068796070372,464.06880505032626,464.0694118386585,500.78445736702616,500.78445736702616,500.78445736702616,500.78445736702616,,,,,,,MSR,001,2,33,F,2024-02-16_10h38.39.135,eye_track_exp,2023.1.3,120.10122525700554,
0,0,-12,0,0,180,180,180,0,168,None,abs,inhibit,freq_bottom,,,,,0,5,5,409,,,,,,,,,,,1.0681598274730666,,,,,,,,,,,,,,,,,,,,,,,464.0698996425978,464.6004350146373,464.6004500881318,465.6738647413645,465.67387853200836,502.49133434421964,502.49133434421964,468.70473301313376,None,1,,,468.705138714635,468.70517559658964,468.7051845765438,468.7057368437257,503.9817283589519,503.9817283589519,503.9817283589519,503.9817283589519,505.4721117901667,505.4721117901667,,,,,MSR,001,2,33,F,2024-02-16_10h38.39.135,eye_track_exp,2023.1.3,120.10122525700554,
0,180,180,0,180,168,0,168,180,0,f,abs,resp,freq_bottom,,,,,0,6,6,848,,,,,,,,,,,0.9399712623290064,,,,,,,,,,,,,,,,,,,,,,,468.70621855412475,469.2876474957473,469.2876622485292,470.22833586054895,470.22835863114705,507.0457650536103,507.0457650536103,471.29519194010624,f,1,1.0202329889957014,None,471.2956983453793,471.29573811374775,471.295747093702,471.296167547985,,,,,,,,,,,MSR,001,2,33,F,2024-02-16_10h38.39.135,eye_track_exp,2023.1.3,120.10122525700554,
0,0,12,0,0,0,-168,0,90,0,None,present,inhibit,freq_bottom,,,,,0,7,7,228,,,,,,,,,,,0.9802302513784573,,,,,,,,,,,,,,,,,,,,,,,471.2966399577172,471.85223581616236,471.8522508896569,472.83421176527935,472.83422619734864,509.6518600050801,509.6518600050801,475.8654251238592,None,1,,,475.86579811267023,475.8658353153375,475.86584461600427,475.86630997005824,511.1422527369618,511.1422527369618,511.1422527369618,511.1422527369618,512.6326396960158,512.6326396960158,,,,,MSR,001,2,33,F,2024-02-16_10h38.39.135,eye_track_exp,2023.1.3,120.10122525700554,
180,180,180,12,180,180,270,180,12,180,j,present,resp,freq_bottom,,,,,0,8,8,492,,,,,,,,,,,1.0291570692232948,,,,,,,,,,,,,,,,,,,,,,,475.866784624779,478.5384172061053,478.5384322795998,479.57008501450906,479.5700991258656,516.3877585906091,516.3877585906091,480.98734628242727,j,1,1.373546078946731,None,480.98790015317235,480.9879418458167,480.98795082577095,480.98845594819335,,,,,,,,,,,MSR,001,2,33,F,2024-02-16_10h38.39.135,eye_track_exp,2023.1.3,120.10122525700554,
180,12,180,180,180,168,0,180,0,180,None,abs,inhibit,freq_bottom,,,,,0,9,9,402,,,,,,,,,,,1.026895499918015,,,,,,,,,,,,,,,,,,,,,,,480.9889549770755,481.74391928817187,481.743934682379,482.77598670453636,482.77600241945623,519.6016457048879,519.6016457048879,485.81515117111434,None,1,,,485.81553538486804,485.81557290824793,485.8155822089148,485.8161299861195,521.0920528688389,521.0920528688389,521.0920528688389,521.0920528688389,522.5657845785963,522.5657845785963,,,,,MSR,001,2,33,F,2024-02-16_10h38.39.135,eye_track_exp,2023.1.3,120.10122525700554,
180,168,180,180,180,168,0,0,180,270,f,present,resp,freq_bottom,,,,,0,10,10,429,,,,,,,,,,,0.9369405709086116,,,,,,,,,,,,,,,,,,,,,,,485.816603999415,489.62040803628923,489.6204224683585,490.56061885995626,490.56063329202556,527.3782988503094,527.3782988503094,491.9606639521548,f,1,1.3584004240898935,None,491.96117003671515,491.96120788080776,491.9612168607619,491.96168317695384,,,,,,,,,,,MSR,001,2,33,F,2024-02-16_10h38.39.135,eye_track_exp,2023.1.3,120.10122525700554,
180,0,180,0,180,-12,180,270,0,-12,j,present,resp,freq_bottom,,,,,0,11,11,511,,,,,,,,,,,0.7167032789343533,,,,,,,,,,,,,,,,,,,,,,,491.96215879381253,492.6263283917928,492.62634346528733,493.34214138552994,493.34215645902447,530.1592610908849,530.1592610908849,495.2829801645641,j,1,1.904710689203796,None,495.2835766900915,495.28362158986243,495.2836308905292,495.2840786053875,531.6496823661923,531.6496823661923,531.6496823661923,531.6496823661923,,,,,,,MSR,001,2,33,F,2024-02-16_10h38.39.135,eye_track_exp,2023.1.3,120.10122525700554,
0,0,0,0,12,180,180,180,90,168,None,present,inhibit,freq_bottom,,,,,0,12,12,168,,,,,,,,,,,0.7140922867231293,,,,,,,,,,,,,,,,,,,,,,,495.28461387479894,495.8398098045705,495.8398245573524,496.55521581395584,496.5552299253124,533.3731738621757,533.3731738621757,499.58701351098244,None,1,,,499.5873986868741,499.5874358895414,499.58744486949564,499.5878021433868,534.8635742911608,534.8635742911608,534.8635742911608,534.8635742911608,536.3539561188124,536.3539561188124,,,,,MSR,001,2,33,F,2024-02-16_10h38.39.135,eye_track_exp,2023.1.3,120.10122525700554,
0,0,0,180,168,0,0,168,0,0,f,abs,resp,freq_bottom,,,,,0,13,13,899,,,,,,,,,,,0.8959099435659607,,,,,,,,,,,,,,,,,,,,,,,499.5882784016707,499.5891250830645,499.58913534586935,500.48517024710264,500.48518499988455,537.3031404824033,537.3031404824033,502.26063515215884,f,1,1.7364273100726564,None,502.26113835030543,502.2611768358233,502.26118581577754,502.2616444348658,538.7935380249746,538.7935380249746,538.7935380249746,538.7935380249746,,,,,,,MSR,001,2,33,F,2024-02-16_10h38.39.135,eye_track_exp,2023.1.3,120.10122525700554,
0,0,-168,180,0,12,0,270,180,180,None,present,inhibit,freq_bottom,,,,,0,14,14,190,,,,,,,,,,,0.9932163109397742,,,,,,,,,,,,,,,,,,,,,,,502.26211588246014,502.75896904994653,502.7589838027283,503.7578664398587,503.75788055121524,540.5753337977253,540.5753337977253,505.63293763806684,f,0,1.8411294065071502,None,505.6334472504663,506.1382322831918,506.13824414955985,506.13927524072693,542.0657194739285,542.0657194739285,542.0657194739285,542.0657194739285,,,542.4320858894132,,,,MSR,001,2,33,F,2024-02-16_10h38.39.135,eye_track_exp,2023.1.3,120.10122525700554,
180,180,-168,180,180,90,180,12,0,180,None,present,inhibit,freq_bottom,,,,,0,15,15,59,,,,,,,,,,,0.9174130375193404,,,,,,,,,,,,,,,,,,,,,,,506.1398076237245,506.14070465700416,506.14071588194696,507.0634751268098,507.06349725598255,543.8808379323527,543.8808379323527,510.0946464720326,None,1,,,510.0950457592808,510.0957763426956,510.09578660550034,510.0963561911653,545.3712293813837,545.3712293813837,545.3712293813837,545.3712293813837,546.8615752892188,546.8615752892188,,,,,MSR,001,2,33,F,2024-02-16_10h38.39.135,eye_track_exp,2023.1.3,120.10122525700554,
0,-12,180,180,180,90,180,180,0,168,None,present,inhibit,freq_bottom,,,,,0,16,16,29,,,,,,,,,,,0.9195013769731654,,,,,,,,,,,,,,,,,,,,,,,510.09684303296666,515.2816751847947,515.2816896168638,516.205395605467,516.2054103582489,553.0229720056343,553.0229720056343,519.2367356455431,None,1,,,519.2371147278946,519.2371541755504,519.2371631555045,519.2378744961604,554.5217074356588,554.5217074356588,554.5217074356588,554.5217074356588,555.9954336933013,555.9954336933013,,,,,MSR,001,2,33,F,2024-02-16_10h38.39.135,eye_track_exp,2023.1.3,120.10122525700554,
180,0,180,0,180,12,180,90,0,168,None,present,inhibit,freq_bottom,,,,,0,17,17,123,,,,,,,,,,,0.990153867047495,,,,,,,,,,,,,,,,,,,,,,,519.2383526787203,519.4862000554192,519.4862144874883,520.4767297316021,520.4767438429585,557.2943276195167,557.2943276195167,523.5077756781789,None,1,,,523.5081570055188,523.5081951703241,523.5082041502783,523.5089190187732,558.784717144272,558.784717144272,558.784717144272,558.784717144272,560.2751008961995,560.2751008961995,,,,,MSR,001,2,33,F,2024-02-16_10h38.39.135,eye_track_exp,2023.1.3,120.10122525700554,
180,0,0,180,168,0,0,-168,0,180,f,abs,resp,freq_bottom,,,,,0,18,18,897,,,,,,,,,,,1.0509810320295454,,,,,,,,,,,,,,,,,,,,,,,523.509406502,523.7576432238548,523.7576582973493,524.8142974340421,524.814312186824,561.6322804978486,561.6322804978486,526.6059086174205,f,1,1.742242792539912,None,526.6064355483031,526.6064769202349,526.606485900189,526.6069464435532,563.1226264056836,563.1226264056836,563.1226264056836,563.1226264056836,,,,,,,MSR,001,2,33,F,2024-02-16_10h38.39.135,eye_track_exp,2023.1.3,120.10122525700554,
0,180,0,0,168,90,180,168,180,180,f,present,resp,freq_bottom,,,,,0,19,19,560,,,,,,,,,,,0.8877717128970236,,,,,,,,,,,,,,,,,,,,,,,526.6074217396992,527.0881485130478,527.0881629451171,527.9785593972654,527.978573508622,564.796212447756,564.796212447756,529.1450410127336,f,1,1.1221022306000918,None,529.1455865449498,529.1456263133182,529.1456352932726,529.1461102687058,,,,,,,,,,,MSR,001,2,33,F,2024-02-16_10h38.39.135,eye_track_exp,2023.1.3,120.10122525700554,
180,0,0,168,0,12,0,90,180,180,None,present,inhibit,freq_bottom,,,,,0,20,20,199,,,,,,,,,,,1.070942384451465,,,,,,,,,,,,,,,,,,,,,,,529.1465951862315,529.6945661014427,529.6945808542246,530.7677043003719,530.7677184117283,567.5855010301291,567.5855010301291,533.7989064340088,None,1,,,533.7993365096713,533.7993737123386,533.7993830130056,533.8000286075683,569.0758854234819,569.0758854234819,569.0758854234819,569.0758854234819,570.5662736653865,570.5662736653865,,,,,MSR,001,2,33,F,2024-02-16_10h38.39.135,eye_track_exp,2023.1.3,120.10122525700554,
0,0,0,0,168,0,0,0,0,168,f,abs,resp,freq_bottom,,,,,0,21,21,930,,,,,,,,,,,0.7145285971570023,,,,,,,,,,,,,,,,,,,,,,,533.8005138458066,534.3572745325935,534.3572892853751,535.0724640609405,535.072478172297,571.8901369956152,571.8901369956152,535.9237986745588,f,1,0.8121828449316695,None,535.9243272090046,535.9243663359478,535.9243753159019,535.9248454806457,,,,,,,,,,,MSR,001,2,33,F,2024-02-16_10h38.39.135,eye_track_exp,2023.1.3,120.10122525700554,
0,180,180,12,180,180,-168,180,0,180,None,abs,inhibit,freq_bottom,,,,,0,22,22,396,,,,,,,,,,,0.7350137941503257,,,,,,,,,,,,,,,,,,,,,,,535.9253233424929,536.4302648829912,536.4302809186236,537.1706800647582,537.1706938554023,573.9883385673638,573.9883385673638,540.2019405680976,None,1,,,540.2023042562416,540.2023414589089,540.2023501181504,540.2030159176102,575.478733544234,575.478733544234,575.478733544234,575.478733544234,576.9691073540694,576.9691073540694,,,,,MSR,001,2,33,F,2024-02-16_10h38.39.135,eye_track_exp,2023.1.3,120.10122525700554,
168,180,0,0,168,0,180,0,0,180,f,abs,resp,freq_bottom,,,,,0,23,23,917,,,,,,,,,,,0.9826273788071105,,,,,,,,,,,,,,,,,,,,,,,540.2035101358026,543.9982440982458,543.9982582096025,544.9809118245471,544.9809262566164,581.7983333205048,581.7983333205048,545.8150222446293,f,1,0.7913201663909035,None,545.8155148592584,545.8155517412131,545.8155607211672,545.8160286409225,,,,,,,,,,,MSR,001,2,33,F,2024-02-16_10h38.39.135,eye_track_exp,2023.1.3,120.10122525700554,
180,180,168,0,168,180,180,0,0,180,f,abs,resp,freq_bottom,,,,,0,24,24,910,,,,,,,,,,,0.8022742977228992,,,,,,,,,,,,,,,,,,,,,,,545.8164920707004,546.7472344948262,546.7472505304588,547.5531148253913,547.5531289367477,584.3711001341862,584.3711001341862,548.3877650048619,f,1,0.7947033641268604,None,548.3882726929855,548.3883108577909,548.388319837745,548.3888810848812,,,,,,,,,,,MSR,001,2,33,F,2024-02-16_10h38.39.135,eye_track_exp,2023.1.3,120.10122525700554,
12,0,-168,0,0,270,0,180,0,180,None,present,inhibit,freq_bottom,,,,,0,25,25,294,,,,,,,,,,,0.7678538784522343,,,,,,,,,,,,,,,,,,,,,,,548.3893599088663,551.5749781273973,551.5749925594666,552.3489876384517,552.3490023912334,589.166984492902,589.166984492902,555.3804495493346,None,1,,,555.3808376116401,555.3808770592959,555.3808863599627,555.3815316338128,590.6573740176573,590.6573740176573,590.6573740176573,590.6573740176573,592.1477593731479,592.1477593731479,,,,,MSR,001,2,33,F,2024-02-16_10h38.39.135,eye_track_exp,2023.1.3,120.10122525700554,
168,180,0,180,180,180,-168,180,180,180,f,abs,resp,freq_bottom,,,,,0,26,26,789,,,,,,,,,,,1.0470982877012571,,,,,,,,,,,,,,,,,,,,,,,555.3820585646954,555.3828872861809,555.3828991525488,556.4293473241019,556.4293620768838,593.2468281518998,593.2468281518998,558.0702960434321,f,1,1.5983383854349427,None,558.0708874375573,558.0709381101558,558.0709474108226,558.0715788940288,594.7372032445858,594.7372032445858,594.7372032445858,594.7372032445858,,,,,,,MSR,001,2,33,F,2024-02-16_10h38.39.135,eye_track_exp,2023.1.3,120.10122525700554,
0,0,-168,180,180,180,180,0,0,-168,f,abs,resp,freq_bottom,,,,,0,27,27,813,,,,,,,,,,,0.8271291264476311,,,,,,,,,,,,,,,,,,,,,,,558.0720702258072,558.6778794223067,558.677893854376,559.5100777535747,559.5100915442185,596.3358310434451,596.3358310434451,560.3185446316552,f,1,0.7655220408921082,None,560.3190609790202,560.3190991438255,560.3191084444923,560.3195811749372,,,,,,,,,,,MSR,001,2,33,F,2024-02-16_10h38.39.135,eye_track_exp,2023.1.3,120.10122525700554,
180,168,180,180,180,-168,0,0,180,0,f,abs,resp,freq_bottom,,,,,0,28,28,754,,,,,,,,,,,0.7733143153999047,,,,,,,,,,,,,,,,,,,,,,,560.320067696026,560.9756091616059,560.9756242351002,561.7499105211709,561.74992495324,598.5672396518858,598.5672396518858,564.7812027750624,None,0,,,564.781584423115,565.2874877808481,565.287499647216,565.2882125914352,600.057628214503,600.057628214503,600.057628214503,600.057628214503,601.5480321713273,601.5480321713273,601.5813336899657,,,,MSR,001,2,33,F,2024-02-16_10h38.39.135,eye_track_exp,2023.1.3,120.10122525700554,
180,0,180,0,180,180,-168,180,-168,0,f,abs,resp,freq_bottom,,,,,0,29,29,866,,,,,,,,,,,1.0725660578703993,,,,,,,,,,,,,,,,,,,,,,,565.2887440122947,565.3639116808679,565.3639254715117,566.437402663711,566.4374177372056,603.2548847743594,603.2548847743594,567.753903393653,f,1,1.2700559556133726,None,567.7543838212014,567.7551176117427,567.7551275538349,567.755538707451,,,,,,,,,,,MSR,001,2,33,F,2024-02-16_10h38.39.135,eye_track_exp,2023.1.3,120.10122525700554,
180,12,0,-12,0,0,0,180,180,270,j,present,resp,freq_bottom,,,,,0,30,30,711,,,,,,,,,,,0.9261610879871168,,,,,,,,,,,,,,,,,,,,,,,567.7560191349994,568.4030296441115,568.4030443968934,569.3344410748234,569.3344548654675,606.1523955952041,606.1523955952041,570.2678976900993,j,1,0.8838685362725869,None,570.2683963982686,570.2684358459244,570.2684448258788,570.2690108837044,,,,,,,,,,,MSR,001,2,33,F,2024-02-16_10h38.39.135,eye_track_exp,2023.1.3,120.10122525700554,
0,0,0,168,0,0,90,180,180,12,None,present,inhibit,freq_bottom,,,,,0,31,31,203,,,,,,,,,,,0.8400891387049155,,,,,,,,,,,,,,,,,,,,,,,570.269484897,570.7756794618185,570.7756942146004,571.6159347362586,571.615950130466,608.4337535951888,608.4337535951888,574.6474142863374,None,1,,,574.6478161392868,574.647853341954,574.6478623219082,574.648359747227,609.9241867368642,609.9241867368642,609.9241867368642,609.9241867368642,611.4145371346763,611.4145371346763,,,,,MSR,001,2,33,F,2024-02-16_10h38.39.135,eye_track_exp,2023.1.3,120.10122525700554,
0,270,0,180,180,180,12,180,0,-12,j,present,resp,freq_bottom,,,,,0,32,32,455,,,,,,,,,,,0.8938694206236136,,,,,,,,,,,,,,,,,,,,,,,574.6488440233272,577.3698618626477,577.3698759740043,578.2688521309431,578.268866883725,615.0947439686779,615.0947439686779,579.7787810738484,j,1,1.4612183337105193,None,579.779292610524,579.7793323788924,579.7793413588468,579.77982723851,616.5768065102102,616.5768065102102,616.5768065102102,616.5768065102102,,,,,,,MSR,001,2,33,F,2024-02-16_10h38.39.135,eye_track_exp,2023.1.3,120.10122525700554,
180,0,180,0,180,-168,180,90,180,-168,f,present,resp,freq_bottom,,,,,0,33,33,514,,,,,,,,,,,0.9180179011947461,,,,,,,,,,,,,,,,,,,,,,,579.7803115146103,580.3921821801789,580.392197574386,581.3158695674483,581.3158852823683,618.1337913751388,618.1337913751388,582.332943346752,f,1,0.9818577962474251,None,582.3335321751758,582.3335700192683,582.3335789992225,582.334103364404,,,,,,,,,,,MSR,001,2,33,F,2024-02-16_10h38.39.135,eye_track_exp,2023.1.3,120.10122525700554,
180,0,180,0,180,168,0,0,180,168,f,abs,resp,freq_bottom,,,,,0,34,34,859,,,,,,,,,,,1.0180729500127892,,,,,,,,,,,,,,,,,,,,,,,582.334596941171,583.1230135058511,583.1230289000582,584.1472603442658,584.1472744556224,620.9646949894423,620.9646949894423,585.0649763827205,f,1,0.8706971884841437,None,585.0654847122694,585.0655225563621,585.0655315363163,585.0659991353587,,,,,,,,,,,MSR,001,2,33,F,2024-02-16_10h38.39.135,eye_track_exp,2023.1.3,120.10122525700554,
180,180,12,0,0,0,90,0,-168,180,None,present,inhibit,freq_bottom,,,,,0,35,35,222,,,,,,,,,,,0.9867671389186556,,,,,,,,,,,,,,,,,,,,,,,585.06647507293,585.0672396518858,585.0672495939777,586.0619427617721,586.0619568731286,622.8797237766096,622.8797237766096,589.0932225078702,None,1,,,589.0936150601528,589.0936529042453,589.0936618841997,589.0941554609667,624.3784402845877,624.3784402845877,624.3784402845877,624.3784402845877,625.8521998963456,625.8521998963456,,,,,MSR,001,2,33,F,2024-02-16_10h38.39.135,eye_track_exp,2023.1.3,120.10122525700554,
168,180,0,180,180,180,0,180,168,180,f,abs,resp,freq_bottom,,,,,0,36,36,786,,,,,,,,,,,0.9016275366467634,,,,,,,,,,,,,,,,,,,,,,,589.0946323606761,592.6984229917616,592.6984374238307,593.606171601793,593.6061860338621,630.423245445239,630.423245445239,594.6062549870817,f,1,0.9634559458637,None,594.606762995918,594.6068001985852,594.6068091785394,594.6071796016492,,,,,,,,,,,MSR,001,2,33,F,2024-02-16_10h38.39.135,eye_track_exp,2023.1.3,120.10122525700554,
12,0,0,0,0,168,180,0,0,180,None,abs,inhibit,freq_bottom,,,,,0,37,37,401,,,,,,,,,,,0.7479814536216551,,,,,,,,,,,,,,,,,,,,,,,594.6076641984621,595.2795722719541,595.2795873454486,596.0286165482596,596.0286313010415,632.8545087067071,632.8545087067071,599.0679766495534,None,1,,,599.0683720882498,599.0684089702045,599.0684179501586,599.0689766315936,634.3448674430479,634.3448674430479,634.3448674430479,634.3448674430479,635.818617754139,635.818617754139,,,,,MSR,001,2,33,F,2024-02-16_10h38.39.135,eye_track_exp,2023.1.3,120.10122525700554,
180,12,0,168,0,0,90,180,180,180,None,present,inhibit,freq_bottom,,,,,0,38,38,198,,,,,,,,,,,0.8577152610253858,,,,,,,,,,,,,,,,,,,,,,,599.0694583419925,602.9232223539282,602.9232380688479,603.7799497507422,603.779963541386,640.5978564849381,640.5978564849381,606.8114046059468,None,1,,,606.8117827261601,606.8118192874022,606.8118279466437,606.8122823964675,642.0882485753943,642.0882485753943,642.0882485753943,642.0882485753943,643.5786137259884,643.5786137259884,,,,,MSR,001,2,33,F,2024-02-16_10h38.39.135,eye_track_exp,2023.1.3,120.10122525700554,
180,180,180,168,0,0,0,90,180,168,f,present,resp,freq_bottom,,,,,0,39,39,613,,,,,,,,,,,1.0592509616462584,,,,,,,,,,,,,,,,,,,,,,,606.8127666725677,610.791514648871,610.7915297223656,611.8569089201733,611.8569233522426,648.6742547279459,648.6742547279459,613.2730072840257,f,1,1.3674939105442832,None,613.2735050300571,613.2735441570003,613.2735534576673,613.2741102148261,,,,,,,,,,,MSR,001,2,33,F,2024-02-16_10h38.39.135,eye_track_exp,2023.1.3,120.10122525700554,
0,-12,180,0,0,90,180,180,-12,180,j,present,resp,freq_bottom,,,,,0,40,40,638,,,,,,,,,,,0.8190775402335135,,,,,,,,,,,,,,,,,,,,,,,613.2745781345814,613.8550766888086,613.8550911208779,614.6791455958455,614.6791600279148,651.496838093992,651.496838093992,615.613033890347,j,1,0.897576115610434,None,615.6135547276892,615.6135928924946,615.6136018724487,615.6140665850774,,,,,,,,,,,MSR,001,2,33,F,2024-02-16_10h38.39.135,eye_track_exp,2023.1.3,120.10122525700554,
180,180,180,168,180,180,168,0,180,0,f,abs,resp,freq_bottom,,,,,0,41,41,818,,,,,,,,,,,0.9431585382010879,,,,,,,,,,,,,,,,,,,,,,,615.6145502197523,616.1943159455764,616.1943303776457,617.1441295473846,617.1441436587413,653.9613900455925,653.9613900455925,618.610805258148,f,1,1.4252706150037397,None,618.6113119841336,618.6113507903642,618.6113597703184,625.1376418512048,,,,,,,,,,,MSR,001,2,33,F,2024-02-16_10h38.39.135,eye_track_exp,2023.1.3,120.10122525700554,
0,180,0,180,180,12,180,90,180,168,None,present,inhibit,freq_bottom,,,,,0,42,42,45,,,,,,,,,,,1.012692480129442,,,,,,,,,,,,,,,,,,,,,,,625.1381909112602,626.8531578650286,626.8531729385231,627.8680241791681,627.8680382905245,664.685522325449,664.685522325449,630.8992481212654,None,1,,,630.8996268829039,630.8996650477093,630.8996740276634,630.9002298226844,666.1759019081121,666.1759019081121,666.1759019081121,666.1759019081121,667.6662946399936,667.6662946399936,,,,,MSR,001,2,33,F,2024-02-16_10h38.39.135,eye_track_exp,2023.1.3,120.10122525700554,
168,0,168,0,0,0,0,0,270,0,f,present,resp,freq_bottom,,,,,0,43,43,643,,,,,,,,,,,1.0916427828583561,,,,,,,,,,,,,,,,,,,,,,,630.9007047981179,630.9014902233955,630.9014998447751,631.9889867276277,631.989001159697,668.8069774885378,668.8069774885378,633.4732647521405,f,1,1.441883209517698,None,633.4737682709997,633.4738064358048,633.473815415759,633.474277883399,,,,,,,,,,,MSR,001,2,33,F,2024-02-16_10h38.39.135,eye_track_exp,2023.1.3,120.10122525700554,
180,180,-12,0,0,0,270,0,-168,180,None,present,inhibit,freq_bottom,,,,,0,44,44,298,,,,,,,,,,,1.0614587242461346,,,,,,,,,,,,,,,,,,,,,,,633.4747554245337,633.9714504806841,633.9714649127534,635.0368755404008,635.0368912553206,671.8543688759919,671.8543688759919,638.0679776116913,None,1,,,638.0683868410317,638.0684237229864,638.0684327029405,638.0691539856884,673.3447644942876,673.3447644942876,673.3447644942876,673.3447644942876,674.8351466426518,674.8351466426518,,,,,MSR,001,2,33,F,2024-02-16_10h38.39.135,eye_track_exp,2023.1.3,120.10122525700554,
0,-168,180,0,180,180,180,90,180,-168,f,present,resp,freq_bottom,,,,,0,45,45,518,,,,,,,,,,,0.8140926855963643,,,,,,,,,,,,,,,,,,,,,,,638.0696459588924,638.0703662795024,638.0703762215944,638.8839533350267,638.8839680878086,675.7010688711171,675.7010688711171,640.1506522012432,f,1,1.2194086933447466,None,640.1511589272291,640.1511970920342,640.1512070341264,640.15175224563,,,,,,,,,,,MSR,001,2,33,F,2024-02-16_10h38.39.135,eye_track_exp,2023.1.3,120.10122525700554,
0,0,-12,0,0,0,0,270,0,168,None,present,inhibit,freq_bottom,,,,,0,46,46,299,,,,,,,,,,,0.8224027145456921,,,,,,,,,,,,,,,,,,,,,,,640.1522496709488,640.6074486795619,640.607464073769,641.4315175865988,641.4315320186681,678.2571714555479,678.2571714555479,644.4707243872465,None,1,,,644.4711041110229,644.4711413136904,644.4711499729319,644.4717493848732,679.7392647854945,679.7392647854945,679.7392647854945,679.7392647854945,681.2296411610312,681.2296411610312,,,,,MSR,001,2,33,F,2024-02-16_10h38.39.135,eye_track_exp,2023.1.3,120.10122525700554,
180,0,180,0,180,180,-168,180,168,0,f,abs,resp,freq_bottom,,,,,0,47,47,861,,,,,,,,,,,0.9491183357142025,,,,,,,,,,,,,,,,,,,,,,,644.4722593179854,644.4731560305524,644.4731675762077,645.4197769379382,645.4197920114327,682.2371205007223,682.2371205007223,646.735813596677,f,1,1.275367598508808,None,646.736318077674,646.736356563192,646.7363655431461,646.7369277524201,,,,,,,,,,,MSR,001,2,33,F,2024-02-16_10h38.39.135,eye_track_exp,2023.1.3,120.10122525700554,
0,0,168,0,180,180,180,168,0,270,f,present,resp,freq_bottom,,,,,0,48,48,520,,,,,,,,,,,0.7869096570228936,,,,,,,,,,,,,,,,,,,,,,,646.737399520727,647.4682795947219,647.4682937060784,648.2583811836605,648.2583952950172,685.0763571917887,685.0763571917887,649.409014142145,f,1,1.108352317192555,None,649.4095923870514,649.4096295897186,649.4096382489602,649.410093660922,,,,,,,,,,,MSR,001,2,33,F,2024-02-16_10h38.39.135,eye_track_exp,2023.1.3,120.10122525700554,
180,180,0,168,0,90,0,12,0,0,None,present,inhibit,freq_bottom,,,,,0,49,49,191,,,,,,,,,,,0.7928154041187521,,,,,,,,,,,,,,,,,,,,,,,649.4105660706543,650.2244677452875,650.2244824980694,651.0229492350361,651.0229636671054,687.8406491095734,687.8406491095734,654.0547273685911,None,1,,,654.0551308251038,654.0551680277711,654.0551770077252,654.0556298539859,689.3310370307654,689.3310370307654,689.3310370307654,689.3310370307654,690.8214493261187,690.8214493261187,,,,,MSR,001,2,33,F,2024-02-16_10h38.39.135,eye_track_exp,2023.1.3,120.10122525700554,
180,168,0,12,180,180,270,180,0,0,None,present,inhibit,freq_bottom,,,,,0,50,50,96,,,,,,,,,,,0.7845433878342882,,,,,,,,,,,,,,,,,,,,,,,654.0561080365458,654.3287804965657,654.328794928635,655.1191466734401,655.1191607847966,691.9371117773383,691.9371117773383,658.1505681745293,None,1,,,658.1509530297083,658.1509899116629,658.1509985709044,658.1514613592572,693.4275247141168,693.4275247141168,693.4275247141168,693.4275247141168,694.9179036553546,694.9179036553546,,,,,MSR,001,2,33,F,2024-02-16_10h38.39.135,eye_track_exp,2023.1.3,120.10122525700554,
180,168,180,180,180,180,0,168,180,0,f,abs,resp,freq_bottom,,,,,0,51,51,753,,,,,,,,,,,0.8490505028267267,,,,,,,,,,,,,,,,,,,,,,,658.1519437110815,658.6417197125388,658.641735106746,659.491075208399,659.4910896404683,696.3083927934586,696.3083927934586,660.6500143037842,f,1,1.1237381858234698,None,660.6505200676318,660.6505595152878,660.6505684952419,660.6510960675498,,,,,,,,,,,MSR,001,2,33,F,2024-02-16_10h38.39.135,eye_track_exp,2023.1.3,120.10122525700554,
12,0,12,0,180,0,90,180,180,180,j,present,resp,freq_bottom,,,,,0,52,52,523,,,,,,,,,,,0.7772476034362895,,,,,,,,,,,,,,,,,,,,,,,660.6519870072891,661.20643952514,661.2064735206809,661.9883690350655,661.9883837878474,698.8062340766171,698.8062340766171,662.8730102987245,j,1,0.8337748240365386,None,662.8735240803885,662.8735619244812,662.8735705837228,662.8740545391101,,,,,,,,,,,MSR,001,2,33,F,2024-02-16_10h38.39.135,eye_track_exp,2023.1.3,120.10122525700554,
0,168,0,0,168,0,0,0,0,0,f,abs,resp,freq_bottom,,,,,0,53,53,924,,,,,,,,,,,0.7508466225333087,,,,,,,,,,,,,,,,,,,,,,,662.8745304766817,663.3460127079179,663.3460274606998,664.1034086623204,664.1034234151023,700.9210896148113,700.9210896148113,666.0949591668655,f,1,1.9508249988890043,None,666.0954735899547,666.0955123961853,666.0955213761395,666.0958847435709,702.4114733667388,702.4114733667388,702.4114733667388,702.4114733667388,,,,,,,MSR,001,2,33,F,2024-02-16_10h38.39.135,eye_track_exp,2023.1.3,120.10122525700554,
180,0,-12,180,180,-12,0,90,180,180,j,present,resp,freq_bottom,,,,,0,54,54,480,,,,,,,,,,,1.0815753656914775,,,,,,,,,,,,,,,,,,,,,,,666.096373830361,666.5598026462642,666.5598177197587,667.642772612166,667.6427870442353,704.4680220624646,704.4680220624646,670.6818892925592,None,0,,,670.6823142368194,671.1882772471051,671.1882891134733,671.1898272513386,705.9584340371052,705.9584340371052,705.9584340371052,705.9584340371052,707.4321651054374,707.4321651054374,707.482123156223,,,,MSR,001,2,33,F,2024-02-16_10h38.39.135,eye_track_exp,2023.1.3,120.10122525700554,
0,168,180,180,0,0,90,0,12,0,None,present,inhibit,freq_bottom,,,,,0,55,55,186,,,,,,,,,,,0.8212879083863295,,,,,,,,,,,,,,,,,,,,,,,671.1903769528194,671.1914372288375,671.1914481330675,672.0137537619594,672.0137678733158,708.8309741710862,708.8309741710862,675.0448083677779,None,1,,,675.0452079757388,675.0459238063715,675.0459337484638,675.0464856949329,710.3213582437263,710.3213582437263,710.3213582437263,710.3213582437263,711.8117477684814,711.8117477684814,,,,,MSR,001,2,33,F,2024-02-16_10h38.39.135,eye_track_exp,2023.1.3,120.10122525700554,
0,0,0,168,180,-168,0,0,0,0,f,abs,resp,freq_bottom,,,,,0,56,56,841,,,,,,,,,,,0.8065804945036857,,,,,,,,,,,,,,,,,,,,,,,675.0469542561134,678.2751583037636,678.2751727358327,679.0829019748203,679.0829160861767,715.8999209764033,715.8999209764033,682.1138074492569,None,0,,,682.1141772309413,682.6201126599394,682.6201245263073,682.6209304771949,717.3902928619627,717.3902928619627,717.3902928619627,717.3902928619627,718.8806737274763,718.8806737274763,718.9139845467816,,,,MSR,001,2,33,F,2024-02-16_10h38.39.135,eye_track_exp,2023.1.3,120.10122525700554,
0,270,0,0,0,-12,0,0,-168,0,None,present,inhibit,freq_bottom,,,,,0,57,57,239,,,,,,,,,,,0.7291811055270074,,,,,,,,,,,,,,,,,,,,,,,682.6214564459394,682.9211617751573,682.9211768486518,683.6531531184814,683.6531675505507,720.4709700531357,720.4709700531357,686.0938924765944,j,0,2.399287117593815,None,686.0944075411089,686.5928251448979,686.592836049128,686.5932077550883,721.9613775377993,721.9613775377993,721.9613775377993,721.9613775377993,,,722.8855543325712,723.3851409339666,,,MSR,001,2,33,F,2024-02-16_10h38.39.135,eye_track_exp,2023.1.3,120.10122525700554,
180,12,0,180,180,180,-168,180,270,0,None,present,inhibit,freq_bottom,,,,,0,58,58,49,,,,,,,,,,,0.9476970902217198,,,,,,,,,,,,,,,,,,,,,,,686.5937308374191,686.5944944542368,686.5945050377543,687.5413687246155,687.5413834773974,724.3593007951108,724.3593007951108,690.5726760520017,None,1,,,690.5730644350197,690.5738113747796,690.5738213168718,690.5743957132265,725.8496951305558,725.8496951305558,725.8496951305558,725.8496951305558,727.3400657332645,727.3400657332645,,,,,MSR,001,2,33,F,2024-02-16_10h38.39.135,eye_track_exp,2023.1.3,120.10122525700554,
180,168,0,0,0,0,12,0,90,180,None,present,inhibit,freq_bottom,,,,,0,59,59,249,,,,,,,,,,,1.0770949682634856,,,,,,,,,,,,,,,,,,,,,,,690.574893459258,691.0640376567965,691.064052730291,692.1461320771659,692.1461468299478,728.9636764060683,728.9636764060683,695.1775019435186,None,1,,,695.1779438855492,695.1779801260786,695.1779891060328,695.1785477874676,730.4624111946675,730.4624111946675,730.4624111946675,730.4624111946675,731.9361413008619,731.9361413008619,,,,,MSR,001,2,33,F,2024-02-16_10h38.39.135,eye_track_exp,2023.1.3,120.10122525700554,
180,168,0,12,180,180,270,180,0,0,None,present,inhibit,freq_bottom,,,,,0,60,60,95,,,,,,,,,,,0.8736204528616087,,,,,,,,,,,,,,,,,,,,,,,695.1790336671311,698.5412288939006,698.5412436466825,699.4148809386361,699.414895691418,736.2324685637461,736.2324685637461,701.4066876925879,f,0,1.949481854314456,None,701.4072098127808,701.911881633941,701.9118935003091,701.9128386404861,737.7228404493057,737.7228404493057,737.7228404493057,737.7228404493057,,,738.2057904027381,,,,MSR,001,2,33,F,2024-02-16_10h38.39.135,eye_track_exp,2023.1.3,120.10122525700554,
180,168,0,0,0,0,12,0,90,180,None,present,inhibit,freq_bottom,,,,,0,61,61,247,,,,,,,,,,,1.0961917226609477,,,,,,,,,,,,,,,,,,,,,,,701.913362684955,701.9142504175677,701.9142610010852,703.0120212722286,703.012035383585,739.8293811913577,739.8293811913577,706.0433289203272,None,1,,,706.0437063991153,706.0444485281855,706.0444587909901,706.0449263900327,741.3197591704575,741.3197591704575,741.3197591704575,741.3197591704575,742.8101387531206,742.8101387531206,,,,,MSR,001,2,33,F,2024-02-16_10h38.39.135,eye_track_exp,2023.1.3,120.10122525700554,
-168,0,0,0,0,-168,0,0,270,0,f,present,resp,freq_bottom,,,,,0,62,62,672,,,,,,,,,,,0.8295350641513177,,,,,,,,,,,,,,,,,,,,,,,706.0454568487544,706.3010853557473,706.301100108529,707.1329260924113,707.1329405244805,743.9508276952051,743.9508276952051,708.1176624152997,f,1,0.950360286260377,None,708.1181675377222,708.1182063439528,708.118215323907,708.1188945932979,,,,,,,,,,,MSR,001,2,33,F,2024-02-16_10h38.39.135,eye_track_exp,2023.1.3,120.10122525700554,
12,0,180,0,180,90,180,168,180,180,None,present,inhibit,freq_bottom,,,,,0,63,63,128,,,,,,,,,,,0.8230308633079573,,,,,,,,,,,,,,,,,,,,,,,708.1193724551451,708.6321647205823,708.6321791526514,709.4561521666062,709.4561669193881,746.2738491547298,746.2738491547298,712.4873940686118,None,1,,,712.4878199750101,712.4878616676544,712.4878706476086,712.4884331775952,747.7642274545424,747.7642274545424,747.7642274545424,747.7642274545424,749.2546051129293,749.2546051129293,,,,,MSR,001,2,33,F,2024-02-16_10h38.39.135,eye_track_exp,2023.1.3,120.10122525700554,
0,180,0,0,168,180,180,0,-168,180,f,abs,resp,freq_bottom,,,,,0,64,64,920,,,,,,,,,,,1.0453148813377933,,,,,,,,,,,,,,,,,,,,,,,712.488930602914,712.7545419325374,712.7545563646065,713.8021193333282,713.8021337653972,750.6200716087203,750.6200716087203,716.0765310180445,f,1,2.232663426422107,None,716.0770730224217,716.0771297885606,716.0771390892273,716.0777991158593,752.1105018639819,752.1105018639819,752.1105018639819,752.1105018639819,,,,,,,MSR,001,2,33,F,2024-02-16_10h38.39.135,eye_track_exp,2023.1.3,120.10122525700554,
-12,0,-12,0,0,0,90,0,0,0,j,present,resp,freq_bottom,,,,,0,65,65,694,,,,,,,,,,,0.9827501164199999,,,,,,,,,,,,,,,,,,,,,,,716.0782760155687,716.3513702127223,716.3513849655042,717.3327547677143,717.3327691997833,754.15040845963,754.15040845963,718.6160649455942,j,1,1.246511798613085,None,718.6165784065456,718.616618174914,718.6166274755808,718.617101809589,,,,,,,,,,,MSR,001,2,33,F,2024-02-16_10h38.39.135,eye_track_exp,2023.1.3,120.10122525700554,
180,180,168,0,0,0,168,0,180,0,f,abs,resp,freq_bottom,,,,,0,66,66,968,,,,,,,,,,,0.71905571712845,,,,,,,,,,,,,,,,,,,,,,,718.6175957070686,719.098574881272,719.0985902754792,719.8225820831954,719.8225971566899,756.6482779655016,756.6482779655016,721.1303424313096,f,1,1.2608444469040592,None,721.1309370325612,721.1309748766539,721.130983856608,721.1314639634438,,,,,,,,,,,MSR,001,2,33,F,2024-02-16_10h38.39.135,eye_track_exp,2023.1.3,120.10122525700554,
180,168,180,0,180,180,180,180,168,180,f,abs,resp,freq_bottom,,,,,0,67,67,855,,,,,,,,,,,1.0896280221813848,,,,,,,,,,,,,,,,,,,,,,,721.1319517673833,721.7127376801443,721.7127530743514,722.8035805001578,722.8035955736523,759.6207050162025,759.6207050162025,723.7200050287743,f,1,0.8807242694602451,None,723.7205970643247,723.7206422848083,723.7206512647624,723.7211236744945,,,,,,,,,,,MSR,001,2,33,F,2024-02-16_10h38.39.135,eye_track_exp,2023.1.3,120.10122525700554,
0,0,168,0,0,0,0,0,0,168,f,abs,resp,freq_bottom,,,,,0,68,68,980,,,,,,,,,,,1.0563471403267857,,,,,,,,,,,,,,,,,,,,,,,723.7216085920202,724.4854309864863,724.4854463806935,725.5426262389128,725.5426409916947,762.3600393963418,762.3600393963418,726.1592675051377,f,1,0.571984144202645,None,726.159848636458,726.159887121976,726.1598961019301,726.1603765294785,,,,,,,,,,,MSR,001,2,33,F,2024-02-16_10h38.39.135,eye_track_exp,2023.1.3,120.10122525700554,
180,180,168,0,168,180,270,0,180,180,f,present,resp,freq_bottom,,,,,0,69,69,556,,,,,,,,,,,1.016190326863935,,,,,,,,,,,,,,,,,,,,,,,726.1608527877625,726.3917934764481,726.3918079085172,727.4074070510599,727.4074474608537,764.2250854378499,764.2250854378499,729.0316376614146,f,1,1.5866904227301006,None,729.0321421424117,729.0321790243663,729.0321880043205,729.0327620799626,765.7154954882146,765.7154954882146,765.7154954882146,765.7154954882146,,,,,,,MSR,001,2,33,F,2024-02-16_10h38.39.135,eye_track_exp,2023.1.3,120.10122525700554,
180,-168,180,180,180,180,0,180,180,168,f,abs,resp,freq_bottom,,,,,0,70,70,770,,,,,,,,,,,0.9715653256394114,,,,,,,,,,,,,,,,,,,,,,,729.0332380175339,729.2226246096927,729.2226393624744,730.1969316779428,730.1969464307247,767.0143724166596,767.0143724166596,731.2466174436893,f,1,1.0061184253061697,None,731.2471264146634,731.247165220894,731.2471742008481,731.247780347755,,,,,,,,,,,MSR,001,2,33,F,2024-02-16_10h38.39.135,eye_track_exp,2023.1.3,120.10122525700554,
12,0,0,0,0,168,180,270,180,180,None,present,inhibit,freq_bottom,,,,,0,71,71,260,,,,,,,,,,,0.8748810327784903,,,,,,,,,,,,,,,,,,,,,,,731.2482720002463,731.8953703846241,731.8953848166934,732.7692834894563,732.7692979215253,769.5871796401348,769.5871796401348,734.2036506079428,j,0,1.392471973799104,None,734.2041839530784,734.7087425626737,734.7087547497542,734.7097794266683,,,,,,,771.0026221466196,,,,MSR,001,2,33,F,2024-02-16_10h38.39.135,eye_track_exp,2023.1.3,120.10122525700554,
0,0,0,180,180,168,0,168,0,270,f,present,resp,freq_bottom,,,,,0,72,72,473,,,,,,,,,,,1.0456604822336792,,,,,,,,,,,,,,,,,,,,,,,734.7102938497576,734.7112646469466,734.711275230464,735.758306778326,735.7583208896824,772.5762670715344,772.5762670715344,736.9251568926279,f,1,1.1231807872391641,None,736.9257271197182,736.9264544960065,736.9264644380985,736.9270266473725,,,,,,,,,,,MSR,001,2,33,F,2024-02-16_10h38.39.135,eye_track_exp,2023.1.3,120.10122525700554,
0,0,180,-12,180,90,180,180,180,-12,j,present,resp,freq_bottom,,,,,0,73,73,547,,,,,,,,,,,1.0362088757513106,,,,,,,,,,,,,,,,,,,,,,,736.9275182998638,737.4075157726479,737.4075305254298,738.4478729695682,738.4478886844879,775.2739498585017,775.2739498585017,739.957802553899,j,1,1.4661714198642244,None,739.9583115248731,739.9583509725289,739.9583596317705,739.9588474357099,776.7560107964707,776.7560107964707,776.7560107964707,776.7560107964707,,,,,,,MSR,001,2,33,F,2024-02-16_10h38.39.135,eye_track_exp,2023.1.3,120.10122525700554,
0,0,-12,0,0,0,0,270,0,168,None,present,inhibit,freq_bottom,,,,,0,74,74,302,,,,,,,,,,,1.0142232766219828,,,,,,,,,,,,,,,,,,,,,,,739.9597306783457,740.3795502710664,740.3795640617102,741.3954079080042,741.3954220193607,778.2131081032542,778.2131081032542,744.4264573824203,None,1,,,744.4269551284517,744.4269913689811,744.4270000282227,744.4275426740251,779.7034562560775,779.7034562560775,779.7034562560775,779.7034562560775,781.1938704757067,781.1938704757067,,,,,MSR,001,2,33,F,2024-02-16_10h38.39.135,eye_track_exp,2023.1.3,120.10122525700554,
180,180,180,12,180,168,0,0,90,0,None,present,inhibit,freq_bottom,,,,,0,75,75,87,,,,,,,,,,,0.8366521977024994,,,,,,,,,,,,,,,,,,,,,,,744.428029836539,744.6848959736451,744.6849104057142,745.525314170111,745.5253282814676,782.3429072473361,782.3429072473361,748.5564749318164,None,1,,,748.5568463170641,748.5568841611569,748.556893141111,748.5573617022912,783.8332743222059,783.8332743222059,783.8332743222059,783.8332743222059,785.3236500563173,785.3236500563173,,,,,MSR,001,2,33,F,2024-02-16_10h38.39.135,eye_track_exp,2023.1.3,120.10122525700554,
180,12,180,0,180,270,180,180,180,168,None,present,inhibit,freq_bottom,,,,,0,76,76,116,,,,,,,,,,,0.8602005169875158,,,,,,,,,,,,,,,,,,,,,,,748.5578357155869,751.6869110112198,751.6869260847143,752.5529483755263,752.5529624868827,789.3701719917797,789.3701719917797,755.5844561483179,None,1,,,755.5848541527157,755.5848942417967,755.5849032217509,755.5853762729084,790.8605804385811,790.8605804385811,790.8605804385811,790.8605804385811,792.3509484755887,792.3509484755887,,,,,MSR,001,2,33,F,2024-02-16_10h38.39.135,eye_track_exp,2023.1.3,120.10122525700554,
180,-168,180,180,180,270,180,180,-168,180,f,present,resp,freq_bottom,,,,,0,77,77,442,,,,,,,,,,,0.8612036939573418,,,,,,,,,,,,,,,,,,,,,,,755.5858634354224,760.1889096924492,760.1889266902197,761.0539887673601,761.054003520142,797.8795621374345,797.8795621374345,762.1367942076729,f,1,1.0354456727960155,None,762.137299650808,762.1373397398891,762.1373487198434,762.1379250404739,,,,,,,,,,,MSR,001,2,33,F,2024-02-16_10h38.39.135,eye_track_exp,2023.1.3,120.10122525700554,
0,0,12,0,0,0,270,0,0,-12,j,present,resp,freq_bottom,,,,,0,78,78,655,,,,,,,,,,,1.0243592416411136,,,,,,,,,,,,,,,,,,,,,,,762.1384019401833,763.0109154550141,763.0109295663708,764.0344997010957,764.0345138124524,800.8519933573996,800.8519933573996,765.2841251087216,j,1,1.2152984400329956,None,765.2846318347072,765.2846693580871,765.284678658754,765.2851452956586,,,,,,,,,,,MSR,001,2,33,F,2024-02-16_10h38.39.135,eye_track_exp,2023.1.3,120.10122525700554,
0,180,0,180,90,168,0,12,180,180,None,present,inhibit,freq_bottom,,,,,0,79,79,2,,,,,,,,,,,0.7475101408978702,,,,,,,,,,,,,,,,,,,,,,,765.2856218746551,765.5923841650053,765.5923995592125,766.3408280672315,766.3408421785882,803.1583598883408,803.1583598883408,767.9987020759088,j,0,1.6121460271193087,None,767.9992822450911,768.5047388501039,768.5047500750468,768.5056243377282,804.6487494130959,804.6487494130959,804.6487494130959,804.6487494130959,,,804.7986133026477,,,,MSR,001,2,33,F,2024-02-16_10h38.39.135,eye_track_exp,2023.1.3,120.10122525700554,
0,-168,0,180,0,0,270,0,-168,0,f,present,resp,freq_bottom,,,,,0,80,80,607,,,,,,,,,,,0.8641246491050163,,,,,,,,,,,,,,,,,,,,,,,768.5061487029097,768.506820275197,768.5068308587145,769.3712046865098,769.3712187978663,806.1890748594637,806.1890748594637,770.3048745756971,f,1,0.8846321530903083,None,770.3053889987864,770.3061147715114,770.306124392891,770.3067003928088,,,,,,,,,,,MSR,001,2,33,F,2024-02-16_10h38.39.135,eye_track_exp,2023.1.3,120.10122525700554,
180,0,180,0,180,90,180,12,180,168,None,present,inhibit,freq_bottom,,,,,0,81,81,124,,,,,,,,,,,0.8272316652440078,,,,,,,,,,,,,,,,,,,,,,,770.3071772925182,772.2529393314296,772.2529531220734,773.0851376626974,773.0851517740541,809.9025697421728,809.9025697421728,776.1161893821022,None,1,,,776.1165633330511,776.1165998942931,776.1166088742473,776.1171698006706,811.3929557390888,811.3929557390888,811.3929557390888,811.3929557390888,812.883339811729,812.883339811729,,,,,MSR,001,2,33,F,2024-02-16_10h38.39.135,eye_track_exp,2023.1.3,120.10122525700554,
180,0,12,180,180,270,180,12,180,180,j,present,resp,freq_bottom,,,,,0,82,82,453,,,,,,,,,,,0.7813819313213047,,,,,,,,,,,,,,,,,,,,,,,776.1176492660811,780.7540361686897,780.7540525250347,781.5361500883882,781.5361641997449,818.3536386132898,818.3536386132898,782.4861317436248,j,1,0.9115521314357125,None,782.4866349417714,782.4866740687146,782.4866827279561,785.3828199365246,,,,,,,,,,,MSR,001,2,33,F,2024-02-16_10h38.39.135,eye_track_exp,2023.1.3,120.10122525700554,
168,0,168,0,0,0,0,180,0,180,f,abs,resp,freq_bottom,,,,,0,83,83,976,,,,,,,,,,,1.0525365927648538,,,,,,,,,,,,,,,,,,,,,,,785.3833439809932,785.6828555997711,785.682870352553,786.7398215426533,786.73983565401,823.5574996087307,823.5574996087307,787.9063323429725,f,1,1.131780376214067,None,787.9068281647283,787.9068669709588,787.906875950913,787.907449064417,,,,,,,,,,,MSR,001,2,33,F,2024-02-16_10h38.39.135,eye_track_exp,2023.1.3,120.10122525700554,
0,180,12,0,0,168,180,270,180,180,None,present,inhibit,freq_bottom,,,,,0,84,84,225,,,,,,,,,,,0.8763319304874301,,,,,,,,,,,,,,,,,,,,,,,787.9079246812757,788.3806349212457,788.3806496740276,789.2627537799192,789.2627682119885,826.0886501076313,826.0886501076313,791.3035542017205,j,0,1.9928040396760593,None,791.304062851982,791.8097401072976,791.8097516529529,791.8106345748761,827.5707331747731,827.5707331747731,827.5707331747731,827.5707331747731,,,828.1036251433586,,,,MSR,001,2,33,F,2024-02-16_10h38.39.135,eye_track_exp,2023.1.3,120.10122525700554,
0,0,12,0,12,180,180,270,0,0,j,present,resp,freq_bottom,,,,,0,85,85,580,,,,,,,,,,,0.9697090839995421,,,,,,,,,,,,,,,,,,,,,,,791.8111624678966,791.8121223608555,791.8121335857982,792.784861464964,792.7848755763205,829.610651636789,829.610651636789,793.5529502998022,j,1,0.7258004964426732,None,793.5534480458336,793.5541795913864,793.5541898541912,793.5546552082451,,,,,,,,,,,MSR,001,2,33,F,2024-02-16_10h38.39.135,eye_track_exp,2023.1.3,120.10122525700554,
180,-168,180,-168,0,180,180,90,180,180,f,present,resp,freq_bottom,,,,,0,86,86,698,,,,,,,,,,,0.9227968455759731,,,,,,,,,,,,,,,,,,,,,,,793.5551385222072,801.0616002406628,801.0616162762951,801.9853610711289,801.9853751824853,838.8027511372472,838.8027511372472,803.486007307117,f,1,1.4536860764322341,None,803.4865076188496,803.4865464250802,803.4865547636091,803.4870313426056,840.2848210551704,840.2848210551704,840.2848210551704,840.2848210551704,,,,,,,MSR,001,2,33,F,2024-02-16_10h38.39.135,eye_track_exp,2023.1.3,120.10122525700554,
0,180,0,180,180,12,180,180,0,168,None,abs,inhibit,freq_bottom,,,,,0,87,87,348,,,,,,,,,,,0.934639217012908,,,,,,,,,,,,,,,,,,,,,,,803.4875152979932,804.2833223649607,804.283338400593,805.2241512019027,805.2241656339718,842.0416605731264,842.0416605731264,808.2549704046367,None,1,,,808.2553517319766,808.255397914598,808.2554072152648,808.255868720767,843.5320311758353,843.5320311758353,843.5320311758353,843.5320311758353,845.0224194177399,845.0224194177399,,,,,MSR,001,2,33,F,2024-02-16_10h38.39.135,eye_track_exp,2023.1.3,120.10122525700554,
0,168,180,0,180,168,0,0,180,180,f,abs,resp,freq_bottom,,,,,0,88,88,856,,,,,,,,,,,0.7444993645348843,,,,,,,,,,,,,,,,,,,,,,,808.2563517140165,812.3688945932979,812.3689093460796,813.1172753151322,813.1172897472013,849.9348767308863,849.9348767308863,815.0086893885164,f,1,1.8409854065276363,None,815.0091890588237,815.0092265822036,815.009235562158,815.0097996957077,851.425255672124,851.425255672124,851.425255672124,851.425255672124,,,,,,,MSR,001,2,33,F,2024-02-16_10h38.39.135,eye_track_exp,2023.1.3,120.10122525700554,
180,180,180,12,0,270,0,168,0,180,None,present,inhibit,freq_bottom,,,,,0,89,89,209,,,,,,,,,,,0.7884513356481082,,,,,,,,,,,,,,,,,,,,,,,815.0102724261526,815.5243138673584,815.5243286201401,816.314147661235,816.3141627347295,853.1321310457542,853.1321310457542,819.345435745862,None,1,,,819.3458093760983,819.3458462580529,819.3458552380073,819.3463100085437,854.6225125526933,854.6225125526933,854.6225125526933,854.6225125526933,856.1128975874713,856.1128975874713,,,,,MSR,001,2,33,F,2024-02-16_10h38.39.135,eye_track_exp,2023.1.3,120.10122525700554,
180,0,0,168,0,168,0,90,180,180,f,present,resp,freq_bottom,,,,,0,90,90,616,,,,,,,,,,,1.065315808045538,,,,,,,,,,,,,,,,,,,,,,,819.3468013403221,824.8335142152673,824.8335286473366,825.8981753374537,825.8981891280978,862.715580156354,862.715580156354,828.9295952349796,None,0,,,828.9299974086416,829.435770877752,829.4357827441199,829.436528721742,864.2059613425802,864.2059613425802,864.2059613425802,864.2059613425802,865.696321041059,865.696321041059,865.7296517445486,,,,MSR,001,2,33,F,2024-02-16_10h38.39.135,eye_track_exp,2023.1.3,120.10122525700554,
0,-12,0,-12,0,0,270,180,180,180,j,present,resp,freq_bottom,,,,,0,91,91,716,,,,,,,,,,,0.7273238516043335,,,,,,,,,,,,,,,,,,,,,,,829.4370813096364,829.4379042582941,829.4379148418116,830.1690338467301,830.1690485995118,866.9868790040975,866.9868790040975,830.936301015761,j,1,0.7243239354057209,None,830.9368228152412,830.9376066369557,830.9376168997605,830.9382066903224,,,,,,,,,,,MSR,001,2,33,F,2024-02-16_10h38.39.135,eye_track_exp,2023.1.3,120.10122525700554,
168,180,180,168,180,0,180,0,180,180,f,abs,resp,freq_bottom,,,,,0,92,92,828,,,,,,,,,,,1.038314885212901,,,,,,,,,,,,,,,,,,,,,,,830.9386993049516,831.8600791647102,831.8600942382047,832.9002381612131,832.900252913995,869.7261947829033,869.7261947829033,833.9838970178855,f,1,1.040742242197041,None,833.9844008574573,833.9844387015498,833.9844473607914,833.9851231023431,,,,,,,,,,,MSR,001,2,33,F,2024-02-16_10h38.39.135,eye_track_exp,2023.1.3,120.10122525700554,
180,0,180,-168,180,180,-168,0,180,0,f,abs,resp,freq_bottom,,,,,0,93,93,885,,,,,,,,,,,0.817323483607382,,,,,,,,,,,,,,,,,,,,,,,833.9856205276619,842.0842945091429,842.0843089412119,842.9082858037186,842.9082995943625,879.7259754154513,879.7259754154513,843.7085466072449,f,1,0.7522868712863442,None,843.7090725759897,843.7091107407948,843.7091194000363,843.7099388208551,,,,,,,,,,,MSR,001,2,33,F,2024-02-16_10h38.39.135,eye_track_exp,2023.1.3,120.10122525700554,
0,180,180,0,180,180,0,-168,180,-168,f,abs,resp,freq_bottom,,,,,0,94,94,846,,,,,,,,,,,0.7054062333357595,,,,,,,,,,,,,,,,,,,,,,,843.7104198898287,848.8784592066338,848.8784736387031,849.5862842104182,849.5862996046253,886.4035703656382,886.4035703656382,850.9199995125166,f,1,1.290012300207593,None,850.9205411961811,850.9205825681129,850.9205918687796,850.9211563230422,,,,,,,,,,,MSR,001,2,33,F,2024-02-16_10h38.39.135,eye_track_exp,2023.1.3,120.10122525700554,
180,180,0,0,168,270,0,168,180,180,f,present,resp,freq_bottom,,,,,0,95,95,558,,,,,,,,,,,0.7822103024876392,,,,,,,,,,,,,,,,,,,,,,,850.9216399577172,851.2856703022651,851.2856844136218,852.0672540839548,852.0672681953113,888.8847839807881,888.8847839807881,853.0343576253922,f,1,0.9212440676934079,None,853.0348463914695,853.0348832734242,853.0348919326657,853.035207834625,,,,,,,,,,,MSR,001,2,33,F,2024-02-16_10h38.39.135,eye_track_exp,2023.1.3,120.10122525700554,
180,-168,180,180,180,180,180,180,-168,180,f,abs,resp,freq_bottom,,,,,0,96,96,772,,,,,,,,,,,0.8989657184828466,,,,,,,,,,,,,,,,,,,,,,,853.0356799236447,853.2833656611683,853.2833788103869,854.1818283571558,854.1818424685123,890.9996241247752,890.9996241247752,855.1828296220465,f,1,0.9500835112442587,None,855.1833459694117,855.1833838135042,855.1833921520331,855.1839277421573,,,,,,,,,,,MSR,001,2,33,F,2024-02-16_10h38.39.135,eye_track_exp,2023.1.3,120.10122525700554,
180,0,180,168,180,180,168,180,180,0,f,abs,resp,freq_bottom,,,,,0,97,97,836,,,,,,,,,,,0.8832616328539801,,,,,,,,,,,,,,,,,,,,,,,855.1844011140274,864.948777058526,864.948792773446,865.83046135156,865.830475142204,902.6479617428297,902.6479617428297,866.5142393209101,f,1,0.6456556882672544,None,866.5147393119303,866.5147774767354,866.5147861359769,866.5154092806542,,,,,,,,,,,MSR,001,2,33,F,2024-02-16_10h38.39.135,eye_track_exp,2023.1.3,120.10122525700554,
168,0,180,180,180,0,0,168,0,0,f,abs,resp,freq_bottom,,,,,0,98,98,765,,,,,,,,,,,1.0065214535283833,,,,,,,,,,,,,,,,,,,,,,,866.5158868217889,872.1421154719478,872.1421302247297,873.1492057871956,873.1492195778394,909.9666805214531,909.9666805214531,874.0330927347038,f,1,0.845601102974399,None,874.0336004228275,874.0336369840695,874.033645643311,874.0341109973649,,,,,,,,,,,MSR,001,2,33,F,2024-02-16_10h38.39.135,eye_track_exp,2023.1.3,120.10122525700554,
180,180,180,0,270,0,-12,0,0,-12,j,present,resp,freq_bottom,,,,,0,99,99,418,,,,,,,,,,,1.008432062334647,,,,,,,,,,,,,,,,,,,,,,,874.0345846899477,874.3736424233559,874.3736571761378,875.3801102353516,875.3801243467083,912.1980977891353,912.1980977891353,876.8641188612391,j,1,1.4468847232813573,None,876.8646416228573,876.8646797876625,876.8646887676166,876.8651477074177,,,,,,,,,,,MSR,001,2,33,F,2024-02-16_10h38.39.135,eye_track_exp,2023.1.3,120.10122525700554,
12,0,0,0,0,180,90,180,-168,180,None,present,inhibit,freq_bottom,,,,,0,100,100,259,,,,,,,,,,,1.0352620638157863,,,,,,,,,,,,,,,,,,,,,,,876.8656281349661,877.7040938328239,877.704109227031,878.7442656578328,878.7442797691895,915.5618782985296,915.5618782985296,881.7752881923864,None,1,,,881.775657974071,881.7756958181635,881.7757047981177,881.7761505887001,917.0522665404342,917.0522665404342,917.0522665404342,917.0522665404342,918.5426871743164,918.5426871743164,,,,,MSR,001,2,33,F,2024-02-16_10h38.39.135,eye_track_exp,2023.1.3,120.10122525700554,
168,0,180,180,180,0,0,168,0,0,f,abs,resp,freq_bottom,,,,,0,101,101,764,,,,,,,,,,,0.930843812176883,,,,,,,,,,,,,,,,,,,,,,,881.7766191498804,882.1746318860212,882.1746466388031,883.1067892943552,883.1068034057116,919.9248073158406,919.9248073158406,883.9406867612383,f,1,0.7918137431577748,None,883.9411864315457,883.9412239549256,883.9412326141671,883.94179225774,,,,,,,,,,,MSR,001,2,33,F,2024-02-16_10h38.39.135,eye_track_exp,2023.1.3,120.10122525700554,
0,168,0,0,0,180,0,168,0,0,f,abs,resp,freq_bottom,,,,,0,102,102,999,,,,,,,,,,,0.7903462611505881,,,,,,,,,,,,,,,,,,,,,,,883.942267553886,884.831540870337,884.8315556231189,885.6220564993059,885.6220709313752,922.4392926233527,922.4392926233527,886.4556675697934,f,1,0.7884770487560786,None,886.4561909728368,886.4562333069066,886.4562419661481,886.4567316943633,,,,,,,,,,,MSR,001,2,33,F,2024-02-16_10h38.39.135,eye_track_exp,2023.1.3,120.10122525700554,
180,168,180,168,180,0,180,0,180,180,f,abs,resp,freq_bottom,,,,,0,103,103,835,,,,,,,,,,,0.7465317278189332,,,,,,,,,,,,,,,,,,,,,,,886.4572454760273,887.1290409793794,887.1290550907358,887.8782279728136,887.8782420841703,924.6956732015076,924.6956732015076,888.5625412115753,f,1,0.6447897641147051,None,888.5630395990322,888.5630771224121,888.5630861023662,888.5635591535238,,,,,,,,,,,MSR,001,2,33,F,2024-02-16_10h38.39.135,eye_track_exp,2023.1.3,120.10122525700554,
168,0,0,0,0,0,12,0,270,180,None,present,inhibit,freq_bottom,,,,,0,104,104,257,,,,,,,,,,,1.0135837207083844,,,,,,,,,,,,,,,,,,,,,,,888.564037015371,889.0772590357581,889.0772731471147,890.0931458575471,890.0931606103288,926.910473063986,926.910473063986,892.1168474844583,j,0,1.981307132628956,None,892.1173452304897,892.6232444189584,892.6232556439011,892.6243765346101,928.400856495201,928.400856495201,928.400856495201,928.400856495201,,,928.9170880830877,,,,MSR,001,2,33,F,2024-02-16_10h38.39.135,eye_track_exp,2023.1.3,120.10122525700554,
-168,0,0,0,0,12,0,0,0,0,None,abs,inhibit,freq_bottom,,,,,0,105,105,355,,,,,,,,,,,0.75203509769078,,,,,,,,,,,,,,,,,,,,,,,892.6248999376535,892.6257546368633,892.6257652203808,893.38164388324,893.3816576738839,930.199302065133,930.199302065133,896.4132241370905,None,1,,,896.4136195757869,896.4143485556385,896.4143588184431,896.4149919052127,931.6897233404404,931.6897233404404,931.6897233404404,931.6897233404404,933.1717586213974,933.1717586213974,,,,,MSR,001,2,33,F,2024-02-16_10h38.39.135,eye_track_exp,2023.1.3,120.10122525700554,
180,168,180,168,180,0,180,0,180,180,f,abs,resp,freq_bottom,,,,,0,106,106,834,,,,,,,,,,,1.0344577668595516,,,,,,,,,,,,,,,,,,,,,,,896.4154781055888,896.7965668352331,896.7965809465898,897.8363759342358,897.8363894041672,934.6538339914357,934.6538339914357,898.8365965845385,f,1,0.9579297462060481,None,898.8370959341332,898.8371334575131,898.8371424374673,898.8377043260286,,,,,,,,,,,MSR,001,2,33,F,2024-02-16_10h38.39.135,eye_track_exp,2023.1.3,120.10122525700554,
180,168,0,0,12,90,0,180,180,180,None,present,inhibit,freq_bottom,,,,,0,107,107,165,,,,,,,,,,,0.868050383125246,,,,,,,,,,,,,,,,,,,,,,,898.8381834707266,899.3600814096988,899.3600955210554,900.2340772583943,900.2340907283256,937.0517473066552,937.0517473066552,903.2651145457296,None,1,,,903.2654856102647,903.2655224922194,903.2655311514609,903.2659814320205,938.5421528670429,938.5421528670429,938.5421528670429,938.5421528670429,940.0325462403498,940.0325462403498,,,,,MSR,001,2,33,F,2024-02-16_10h38.39.135,eye_track_exp,2023.1.3,120.10122525700554,
180,180,0,180,12,0,0,12,0,90,j,present,resp,freq_bottom,,,,,0,108,108,565,,,,,,,,,,,1.0255913216861166,,,,,,,,,,,,,,,,,,,,,,,903.2664605767181,912.4492125863037,912.4492273390856,913.4814996908328,913.4815138021895,950.2987322870404,950.2987322870404,915.0722389206608,f,0,1.5524251625809597,None,915.0727331388532,915.5785046836875,915.5785159086302,915.579501458601,951.7891137939794,951.7891137939794,951.7891137939794,951.7891137939794,,,951.8723958132889,,,,MSR,001,2,33,F,2024-02-16_10h38.39.135,eye_track_exp,2023.1.3,120.10122525700554,
168,0,0,0,0,0,12,0,270,180,None,present,inhibit,freq_bottom,,,,,0,109,109,255,,,,,,,,,,,0.7345469037987153,,,,,,,,,,,,,,,,,,,,,,,915.5800264652078,916.3296829819606,916.3296974140296,917.069814333033,917.0698278029643,953.8873237042569,953.8873237042569,920.1009443063242,None,1,,,920.1013182572731,920.1020507649637,920.1020607070559,920.1026283684448,955.3777000797934,955.3777000797934,955.3777000797934,955.3777000797934,956.868085435284,956.868085435284,,,,,MSR,001,2,33,F,2024-02-16_10h38.39.135,eye_track_exp,2023.1.3,120.10122525700554,
180,0,-168,0,-168,180,270,0,180,0,f,present,resp,freq_bottom,,,,,0,110,110,727,,,,,,,,,,,0.8555601025773548,,,,,,,,,,,,,,,,,,,,,,,920.103112644545,920.3758720176929,920.3758861290496,921.2328306483269,921.2328454011088,958.0504173112993,958.0504173112993,923.2901795221123,f,1,2.007804732415309,None,923.2906692503277,923.2907061322824,923.2907147915239,923.2912025954633,959.5408033082151,959.5408033082151,959.5408033082151,959.5408033082151,,,,,,,MSR,001,2,33,F,2024-02-16_10h38.39.135,eye_track_exp,2023.1.3,120.10122525700554,
180,12,0,180,-168,90,0,180,0,180,None,present,inhibit,freq_bottom,,,,,0,111,111,304,,,,,,,,,,,0.8196686136687367,,,,,,,,,,,,,,,,,,,,,,,923.2916676288046,923.5565121344837,923.5565259251277,924.3796990817355,924.3797135138047,961.1977151789449,961.1977151789449,927.411313010414,None,1,,,927.4116994691562,927.4117363511109,927.4117453310653,927.4123024089367,962.6880934787573,962.6880934787573,962.6880934787573,962.6880934787573,964.1784813999493,964.1784813999493,,,,,MSR,001,2,33,F,2024-02-16_10h38.39.135,eye_track_exp,2023.1.3,120.10122525700554,
0,180,0,180,180,180,168,0,168,180,f,abs,resp,freq_bottom,,,,,0,112,112,795,,,,,,,,,,,0.9862680295892317,,,,,,,,,,,,,,,,,,,,,,,927.412787647175,934.2720214133421,934.2720364868367,935.2622518646233,935.2622659759797,972.0800498772312,972.0800498772312,936.2129936088384,j,0,0.905851784809613,None,936.2134990519733,936.7186949176025,936.7187061425452,936.7194896435471,,,,,,,973.0125809158014,,,,MSR,001,2,33,F,2024-02-16_10h38.39.135,eye_track_exp,2023.1.3,120.10122525700554,
12,180,0,0,0,0,-168,0,90,0,None,present,inhibit,freq_bottom,,,,,0,113,113,243,,,,,,,,,,,0.9062969294006068,,,,,,,,,,,,,,,,,,,,,,,936.7199989352339,937.3772584584754,937.3772911711656,938.2849509437931,938.2849647344369,975.1024083595678,975.1024083595678,941.3157358302738,None,1,,,941.316096632004,941.3168291396946,941.3168390817868,941.3174131574287,976.5928338041397,976.5928338041397,976.5928338041397,976.5928338041397,978.0832230081821,978.0832230081821,,,,,MSR,001,2,33,F,2024-02-16_10h38.39.135,eye_track_exp,2023.1.3,120.10122525700554,
0,12,180,180,180,0,12,0,0,270,j,present,resp,freq_bottom,,,,,0,114,114,433,,,,,,,,,,,1.0853828503608938,,,,,,,,,,,,,,,,,,,,,,,941.3179009613682,944.4054173497846,944.4054321025665,945.4949856577302,945.4950000897995,982.3129151625244,982.3129151625244,947.1202759026778,f,0,1.5848511356871882,None,947.1207598580654,947.6260150555345,947.6260269219026,947.6264929173817,983.8032857652333,983.8032857652333,983.8032857652333,983.8032857652333,,,983.919868661756,,,,MSR,001,2,33,F,2024-02-16_10h38.39.135,eye_track_exp,2023.1.3,120.10122525700554,
180,0,168,0,0,90,0,180,168,180,f,present,resp,freq_bottom,,,,,0,115,115,640,,,,,,,,,,,0.7236920870887844,,,,,,,,,,,,,,,,,,,,,,,947.6270179239884,948.0353829437315,948.0353967343754,948.7595052814959,948.7595187514271,985.5767904745778,985.5767904745778,950.2597717937074,f,1,1.4557614079847667,None,950.2603359272571,950.2610742077754,950.261083829155,950.2616482834176,987.0588488468456,987.0588488468456,987.0588488468456,987.0588488468456,,,,,,,MSR,001,2,33,F,2024-02-16_10h38.39.135,eye_track_exp,2023.1.3,120.10122525700554,
90,0,0,180,180,12,0,168,0,0,None,present,inhibit,freq_bottom,,,,,0,116,116,56,,,,,,,,,,,0.9537074703445135,,,,,,,,,,,,,,,,,,,,,,,950.2621309559545,950.7908485286987,950.7908799585382,951.7483945124782,951.7484086238348,988.5658852823683,988.5658852823683,952.8158714917242,j,0,1.0268194646717461,None,952.8163868769514,953.3211282927566,953.3211395176995,953.3221202569805,,,,,,,989.6150024245876,,,,MSR,001,2,33,F,2024-02-16_10h38.39.135,eye_track_exp,2023.1.3,120.10122525700554,
180,168,180,0,180,270,180,180,168,180,f,present,resp,freq_bottom,,,,,0,117,117,507,,,,,,,,,,,0.8260169366297461,,,,,,,,,,,,,,,,,,,,,,,953.3226433393113,953.323641076363,953.3236513391676,954.154673617151,954.1546880492203,990.9804881631376,990.9804881631376,955.4712157190249,f,1,1.2684738801152093,None,955.4717792111494,955.4725011353228,955.4725110774148,955.4730652688727,,,,,,,,,,,MSR,001,2,33,F,2024-02-16_10h38.39.135,eye_track_exp,2023.1.3,120.10122525700554,
180,180,12,0,0,0,90,0,-168,180,None,present,inhibit,freq_bottom,,,,,0,118,118,220,,,,,,,,,,,0.8022664853313165,,,,,,,,,,,,,,,,,,,,,,,955.473544734283,956.1112680465008,956.1112824785698,956.9189430850504,956.9189652142231,993.7364454005958,993.7364454005958,959.9500400249385,None,1,,,959.9504264836808,959.9504624034976,959.9504710627391,959.951019481369,995.2268301146612,995.2268301146612,995.2268301146612,995.2268301146612,996.7172241293936,996.7172241293936,,,,,MSR,001,2,33,F,2024-02-16_10h38.39.135,eye_track_exp,2023.1.3,120.10122525700554,
0,180,180,0,180,168,0,168,180,0,f,abs,resp,freq_bottom,,,,,0,119,119,845,,,,,,,,,,,0.8315144225643895,,,,,,,,,,,,,,,,,,,,,,,959.9514893254002,965.878136248996,965.878151001778,966.7099436315448,966.7099577429012,1003.5280466418822,1003.5280466418822,967.7441097914855,f,1,0.9919422847877399,None,967.7446190831722,967.7446559651269,967.7446646243684,967.7451254884452,,,,,,,,,,,MSR,001,2,33,F,2024-02-16_10h38.39.135,eye_track_exp,2023.1.3,120.10122525700554,
180,180,12,180,180,90,180,168,0,0,None,present,inhibit,freq_bottom,,,,,0,120,120,35,,,,,,,,,,,0.8413718245894474,,,,,,,,,,,,,,,,,,,,,,,967.7456075195571,968.8677688918992,968.8677836446811,969.7077621441051,969.7077765761744,1006.5254812614014,1006.5254812614014,972.7393991640945,None,1,,,972.7397673422158,972.7398042241705,972.7398128834118,972.7403507185245,1008.0158473741333,1008.0158473741333,1008.0158473741333,1008.0158473741333,1009.506237219601,1009.506237219601,,,,,MSR,001,2,33,F,2024-02-16_10h38.39.135,eye_track_exp,2023.1.3,120.10122525700554,
180,0,168,180,180,168,0,180,180,180,f,abs,resp,freq_bottom,,,,,0,121,121,780,,,,,,,,,,,1.0812453664051782,,,,,,,,,,,,,,,,,,,,,,,972.7408269768086,977.1183875465995,977.1184022993814,978.2011121673247,978.2011275615318,1015.0181844072076,1015.0181844072076,979.3509260257031,f,1,1.1012703404738318,None,979.3514285824244,979.3514667472296,979.3514757271837,979.3519378741112,,,,,,,,,,,MSR,001,2,33,F,2024-02-16_10h38.39.135,eye_track_exp,2023.1.3,120.10122525700554,
168,0,0,180,180,0,90,168,0,0,f,present,resp,freq_bottom,,,,,0,122,122,469,,,,,,,,,,,1.0237287509234614,,,,,,,,,,,,,,,,,,,,,,,979.3524150945332,980.2157988823806,980.2158133144496,981.2396413021445,981.2396550927886,1018.0572436800367,1018.0572436800367,982.172811200312,f,1,0.8944437151661191,None,982.173351280413,982.1733894452184,982.1733984251725,982.1738621756633,,,,,,,,,,,MSR,001,2,33,F,2024-02-16_10h38.39.135,eye_track_exp,2023.1.3,120.10122525700554,
0,-12,180,180,180,90,180,180,0,168,None,present,inhibit,freq_bottom,,,,,0,123,123,30,,,,,,,,,,,0.8328914781840566,,,,,,,,,,,,,,,,,,,,,,,982.1743586388441,983.9543420644145,983.954357137909,984.7861933845959,984.7862074959526,1021.6041902390464,1021.6041902390464,987.8179109034602,None,1,,,987.8182810058574,987.8183175670995,987.8183265470536,987.8192367295519,1023.0945666145831,1023.0945666145831,1023.0945666145831,1023.0945666145831,1024.5849744199593,1024.5849744199593,,,,,MSR,001,2,33,F,2024-02-16_10h38.39.135,eye_track_exp,2023.1.3,120.10122525700554,
-168,180,0,12,180,90,180,180,0,180,None,present,inhibit,freq_bottom,,,,,0,124,124,93,,,,,,,,,,,0.731168797371205,,,,,,,,,,,,,,,,,,,,,,,987.8197235713533,988.175923716572,988.1759375072158,988.9078637458724,988.9078784986543,1025.725658551354,1025.725658551354,991.9395809440241,None,1,,,991.9399568192489,991.9399940219162,991.9400026811577,996.1520620540489,1027.216035247603,1027.216035247603,1027.216035247603,1027.216035247603,1028.7064228480824,1028.7064228480824,,,,,MSR,001,2,33,F,2024-02-16_10h38.39.135,eye_track_exp,2023.1.3,120.10122525700554,
168,0,0,0,0,-168,0,0,180,180,f,abs,resp,freq_bottom,,,,,0,125,125,1006,,,,,,,,,,,0.833324249855868,,,,,,,,,,,,,,,,,,,,,,,996.1526027755756,997.6592046454584,997.659219718953,998.4914623085665,998.4914767406358,1035.3090973991489,1035.3090973991489,999.5424732589793,f,1,1.0010332055410913,None,999.5429799849649,999.5430187911954,999.5430277711496,999.5435197443535,,,,,,,,,,,MSR,001,2,33,F,2024-02-16_10h38.39.135,eye_track_exp,2023.1.3,120.10122525700554,
0,180,180,180,90,12,180,180,12,0,j,present,resp,freq_bottom,,,,,0,126,126,417,,,,,,,,,,,0.7429872930173858,,,,,,,,,,,,,,,,,,,,,,,999.5439985683386,1000.1572925566443,1000.1573076301388,1000.9063653763756,1000.9063801291572,1037.723703166332,1037.723703166332,1002.3725917687173,j,1,1.4186616894422173,None,1002.3732056127278,1002.3732437775332,1002.3732524367747,1002.3737306193345,,,,,,,,,,,MSR,001,2,33,F,2024-02-16_10h38.39.135,eye_track_exp,2023.1.3,120.10122525700554,
0,0,270,0,0,-168,0,0,-168,0,f,present,resp,freq_bottom,,,,,0,127,127,629,,,,,,,,,,,0.7165654806531441,,,,,,,,,,,,,,,,,,,,,,,1002.3742075190439,1002.9132546047922,1002.9132696782867,1003.6287831264094,1003.6287969170535,1040.4463495844848,1040.4463495844848,1005.1533785794738,f,1,1.4798895827194087,None,1005.1539116038966,1005.1539504101272,1005.1539593900814,1005.1545402006891,1041.9367397506653,1041.9367397506653,1041.9367397506653,1041.9367397506653,,,,,,,MSR,001,2,33,F,2024-02-16_10h38.39.135,eye_track_exp,2023.1.3,120.10122525700554,
180,0,180,12,180,180,12,0,270,180,j,present,resp,freq_bottom,,,,,0,128,128,497,,,,,,,,,,,1.0462886153843025,,,,,,,,,,,,,,,,,,,,,,,1005.155008441157,1005.7606964082747,1005.7607111610566,1006.8089514748933,1006.8089659069624,1043.6269605164243,1043.6269605164243,1008.1091183096135,f,0,1.2593172132688437,None,1008.1096497304729,1008.6153183265469,1008.6153295514896,1008.6164382551178,,,,,,,1044.9091898926767,,,,MSR,001,2,33,F,2024-02-16_10h38.39.135,eye_track_exp,2023.1.3,120.10122525700554,
180,180,180,12,0,180,0,12,0,90,j,present,resp,freq_bottom,,,,,0,129,129,618,,,,,,,,,,,1.03063598574434,,,,,,,,,,,,,,,,,,,,,,,1008.6169616581612,1008.9908035647852,1008.9908170347164,1010.022848851977,1010.0228629633334,1046.8408582142208,1046.8408582142208,1010.7741073284124,j,1,0.7011989498381013,None,1010.7745938495011,1010.7753625977211,1010.7753725398131,1010.7759610475243,,,,,,,,,,,MSR,001,2,33,F,2024-02-16_10h38.39.135,eye_track_exp,2023.1.3,120.10122525700554,
180,180,168,0,0,-168,180,0,180,180,f,abs,resp,freq_bottom,,,,,0,130,130,965,,,,,,,,,,,0.8273206020467365,,,,,,,,,,,,,,,,,,,,,,,1010.7764360229578,1011.0730644350197,1011.0730779049509,1011.9051986237578,1011.9052127351144,1048.722579709922,1048.722579709922,1013.5793969062775,f,1,1.6347306118735219,None,1013.5799061979642,1013.5799437213443,1013.5799527012985,1013.5804382602494,1050.2129718003782,1050.2129718003782,1050.2129718003782,1050.2129718003782,,,,,,,MSR,001,2,33,F,2024-02-16_10h38.39.135,eye_track_exp,2023.1.3,120.10122525700554,
180,168,0,12,180,180,270,180,0,0,None,present,inhibit,freq_bottom,,,,,0,131,131,98,,,,,,,,,,,0.7576162780692407,,,,,,,,,,,,,,,,,,,,,,,1013.5809141978207,1013.9281571594609,1013.9281706293921,1014.6861076260336,1014.6861223788155,1051.503532329118,1051.503532329118,1017.7170913543566,None,1,,,1017.7174614567537,1017.7174983387083,1017.7175069979498,1017.717953109245,1052.9939135153443,1052.9939135153443,1052.9939135153443,1052.9939135153443,1054.4843049643753,1054.4843049643753,,,,,MSR,001,2,33,F,2024-02-16_10h38.39.135,eye_track_exp,2023.1.3,120.10122525700554,
180,0,90,180,180,180,-12,180,-168,0,None,present,inhibit,freq_bottom,,,,,0,132,132,7,,,,,,,,,,,1.010318818143174,,,,,,,,,,,,,,,,,,,,,,,1017.7184344989314,1022.2713918544118,1022.2714062864809,1023.2869679056437,1023.2869813755749,1060.1044625240856,1060.1044625240856,1026.3177624135037,None,1,,,1026.3181309123377,1026.3181700392809,1026.318179019235,1026.3187232686007,1061.594861990933,1061.594861990933,1061.594861990933,1061.594861990933,1063.0852521571132,1063.0852521571132,,,,,MSR,001,2,33,F,2024-02-16_10h38.39.135,eye_track_exp,2023.1.3,120.10122525700554,
180,12,180,180,180,270,180,180,-168,180,None,present,inhibit,freq_bottom,,,,,0,133,133,16,,,,,,,,,,,0.7341287686873885,,,,,,,,,,,,,,,,,,,,,,,1026.3191976026087,1032.2547821463115,1032.2547959369556,1032.9951068871117,1032.9951206777555,1069.8128192694423,1069.8128192694423,1036.026701893744,None,1,,,1036.0270832210838,1036.0271191409006,1036.0271278001421,1036.0278760227525,1071.3032004556685,1071.3032004556685,1071.3032004556685,1071.3032004556685,1072.7935723412281,1072.7935723412281,,,,,MSR,001,2,33,F,2024-02-16_10h38.39.135,eye_track_exp,2023.1.3,120.10122525700554,
180,12,0,0,180,180,12,180,180,270,j,present,resp,freq_bottom,,,,,0,134,134,530,,,,,,,,,,,0.9766067998732504,,,,,,,,,,,,,,,,,,,,,,,1036.0283622231286,1036.3345513999748,1036.334564869906,1037.3163875183768,1037.3164019504459,1074.1341034285465,1074.1341034285465,1038.6326560523607,j,1,1.2777498520668473,None,1038.6331547605303,1038.6331929253354,1038.633201584577,1038.633757379598,,,,,,,,,,,MSR,001,2,33,F,2024-02-16_10h38.39.135,eye_track_exp,2023.1.3,120.10122525700554,
180,180,12,0,0,0,90,0,-168,180,None,present,inhibit,freq_bottom,,,,,0,135,135,219,,,,,,,,,,,0.9356223089748132,,,,,,,,,,,,,,,,,,,,,,,1038.6342294686176,1038.8655841973332,1038.8655983086896,1039.806023689119,1039.806037479763,1076.623635367678,1076.623635367678,1042.8372428205266,None,1,,,1042.8376106779351,1042.8376475598898,1042.8376562191313,1042.8382161834168,1078.1140069325247,1078.1140069325247,1078.1140069325247,1078.1140069325247,1079.6043990229812,1079.6043990229812,,,,,MSR,001,2,33,F,2024-02-16_10h38.39.135,eye_track_exp,2023.1.3,120.10122525700554,
180,180,180,0,12,0,12,0,90,180,j,present,resp,freq_bottom,,,,,0,136,136,572,,,,,,,,,,,0.7437480325552501,,,,,,,,,,,,,,,,,,,,,,,1042.8386962902525,1046.9006746511286,1046.9006897246231,1047.6494193818198,1047.6494338138891,1084.4668934746521,1084.4668934746521,1049.0499660686016,j,1,1.3608452166143366,None,1049.0505414270942,1049.0505799126122,1049.0505888925663,1049.0510981842533,,,,,,,,,,,MSR,001,2,33,F,2024-02-16_10h38.39.135,eye_track_exp,2023.1.3,120.10122525700554,
-168,0,0,0,0,90,0,12,180,180,None,present,inhibit,freq_bottom,,,,,0,137,137,275,,,,,,,,,,,0.721572661061122,,,,,,,,,,,,,,,,,,,,,,,1049.0515776496636,1049.0526164379344,1049.0526260593138,1049.780908681563,1049.7809227929197,1086.5983965650394,1086.5983965650394,1052.8122756615019,None,1,,,1052.8127532026365,1052.812791046729,1052.8128000266831,1052.8132195188284,1088.0887601120698,1088.0887601120698,1088.0887601120698,1088.0887601120698,1089.5791692002967,1089.5791692002967,,,,,MSR,001,2,33,F,2024-02-16_10h38.39.135,eye_track_exp,2023.1.3,120.10122525700554,
12,180,180,168,180,270,180,0,0,0,None,present,inhibit,freq_bottom,,,,,0,138,138,68,,,,,,,,,,,1.0436732625554803,,,,,,,,,,,,,,,,,,,,,,,1052.8137012292273,1053.07014081851,1053.0701546091539,1054.1183291768973,1054.1183439296792,1090.9363471983827,1090.9363471983827,1057.1500983304982,None,1,,,1057.1504770921367,1057.1505136533788,1057.1505223126203,1057.1509735553177,1092.4267380059885,1092.4267380059885,1092.4267380059885,1092.4267380059885,1093.9171246443298,1093.9171246443298,,,,,MSR,001,2,33,F,2024-02-16_10h38.39.135,eye_track_exp,2023.1.3,120.10122525700554,
180,0,0,168,0,12,0,90,180,180,None,present,inhibit,freq_bottom,,,,,0,139,139,200,,,,,,,,,,,0.8082119001333292,,,,,,,,,,,,,,,,,,,,,,,1057.151453982866,1057.5077259677182,1057.5077394376494,1058.3155199906607,1058.31553442273,1095.1327464933279,1095.1327464933279,1061.3464142401547,None,1,,,1061.3467930017935,1061.3468305251733,1061.3468388637023,1061.3473869616196,1096.623130565968,1096.623130565968,1096.623130565968,1096.623130565968,1098.113512072907,1098.113512072907,,,,,MSR,001,2,33,F,2024-02-16_10h38.39.135,eye_track_exp,2023.1.3,120.10122525700554,
180,0,180,0,180,90,180,12,180,168,None,present,inhibit,freq_bottom,,,,,0,140,140,122,,,,,,,,,,,0.8361940747815997,,,,,,,,,,,,,,,,,,,,,,,1061.3478539192367,1069.114667600582,1069.1146836362143,1069.9550835520592,1069.955097663416,1106.7727568074467,1106.7727568074467,1072.9866647680476,None,1,,,1072.9870573203302,1072.9870942022849,1072.987103182239,1072.9875691777183,1108.2631373522477,1108.2631373522477,1108.2631373522477,1108.2631373522477,1109.7535034649795,1109.7535034649795,,,,,MSR,001,2,33,F,2024-02-16_10h38.39.135,eye_track_exp,2023.1.3,120.10122525700554,
0,180,0,0,-168,180,12,180,270,180,None,present,inhibit,freq_bottom,,,,,0,141,141,329,,,,,,,,,,,0.7211649546586703,,,,,,,,,,,,,,,,,,,,,,,1072.988055698807,1073.368786513135,1073.3688009452042,1074.092955674946,1074.0929697863028,1110.910875237648,1110.910875237648,1077.1244307350476,None,1,,,1077.1248005167322,1077.1248377193995,1077.124846378641,1077.125389345156,1112.4012484060581,1112.4012484060581,1112.4012484060581,1112.4012484060581,1113.8916376101008,1113.8916376101008,,,,,MSR,001,2,33,F,2024-02-16_10h38.39.135,eye_track_exp,2023.1.3,120.10122525700554,
-12,0,12,0,0,0,0,180,90,180,j,present,resp,freq_bottom,,,,,0,142,142,656,,,,,,,,,,,0.8020762415402862,,,,,,,,,,,,,,,,,,,,,,,1077.1258733005436,1077.4410302444855,1077.4410440351296,1078.2479009357112,1078.2479150470676,1115.065634164364,1115.065634164364,1080.2726936270547,j,1,1.9761596946096347,None,1080.2731977873393,1080.273234669294,1080.2732436492481,1080.2737208696701,1116.5560108606132,1116.5560108606132,1116.5560108606132,1116.5560108606132,,,,,,,MSR,001,2,33,F,2024-02-16_10h38.39.135,eye_track_exp,2023.1.3,120.10122525700554,
0,180,180,0,12,90,180,168,180,0,None,present,inhibit,freq_bottom,,,,,0,143,143,160,,,,,,,,,,,1.0107961899274094,,,,,,,,,,,,,,,,,,,,,,,1080.27419905223,1080.3223377001566,1080.32235020795,1081.337301831654,1081.3373156222979,1118.154652770829,1118.154652770829,1084.3679270032353,None,1,,,1084.3682948606438,1084.3683317425985,1084.3683407225526,1084.368786513135,1119.6450256185265,1119.6450256185265,1119.6450256185265,1119.6450256185265,1121.1354164261322,1121.1354164261322,,,,,MSR,001,2,33,F,2024-02-16_10h38.39.135,eye_track_exp,2023.1.3,120.10122525700554,
180,12,180,0,180,270,180,180,180,168,None,present,inhibit,freq_bottom,,,,,0,144,144,117,,,,,,,,,,,0.8062016498891145,,,,,,,,,,,,,,,,,,,,,,,1084.3692704685227,1084.6682314236818,1084.6682452143257,1085.4750982663556,1085.4751120569995,1122.2927548446853,1122.2927548446853,1088.506543179468,None,1,,,1088.5069206582561,1088.5069562573603,1088.5069649166019,1088.5075088452547,1123.7831478972796,1123.7831478972796,1123.7831478972796,1123.7831478972796,1125.2735415912994,1125.2735415912994,,,,,MSR,001,2,33,F,2024-02-16_10h38.39.135,eye_track_exp,2023.1.3,120.10122525700554,
0,0,270,0,0,0,-168,0,0,-168,f,present,resp,freq_bottom,,,,,0,145,145,630,,,,,,,,,,,0.9450876396207664,,,,,,,,,,,,,,,,,,,,,,,1088.5079950456309,1091.86145438055,1091.8614684919064,1092.8107262986937,1092.810740730763,1129.6281234204903,1129.6281234204903,1094.8523782125785,f,1,2.0048823987561377,None,1094.852874996472,1094.8529128405646,1094.8529221412316,1094.8534077001823,1131.118515190234,1131.118515190234,1131.118515190234,1131.118515190234,,,,,,,MSR,001,2,33,F,2024-02-16_10h38.39.135,eye_track_exp,2023.1.3,120.10122525700554,
