ori10,ori11,ori12,ori13,ori14,ori16,ori17,ori18,ori19,ori20,corrAns,distractor,responses,dist_freq,practice_trials.thisRepN,practice_trials.thisTrialN,practice_trials.thisN,practice_trials.thisIndex,trials.thisRepN,trials.thisTrialN,trials.thisN,trials.thisIndex,intro_2.started,intro_2.stopped,key_resp.keys,key_resp.rt,key_resp.duration,start_et_record_2.started,start_et_record_2.stopped,fix_check_3.started,fix_check_3.stopped,fix_practice_2.started,fixdur,fix_practice_2.stopped,practice_search_2.started,int14_2.started,per15_2.started,practice_search_2.stopped,response_2.keys,response_2.corr,response_2.rt,response_2.duration,feedback_4.started,feedback_4.stopped,pause_pract_2.started,pause_pract_2.stopped,text_feedback.started,stop_et_record_2.started,stop_et_record_2.stopped,break_3.started,break_3.stopped,key_resp_2.keys,key_resp_2.rt,key_resp_2.duration,fix_check_2.started,fix_check_2.stopped,fixation_2.started,fixation_2.stopped,search_displays_2.started,int14.started,per15.started,search_displays_2.stopped,response.keys,response.corr,response.rt,response.duration,feedback_6.started,feedback_6.stopped,pause_4.started,pause_4.stopped,text_feedback_2.started,int14.stopped,int14_3.started,per15.stopped,per15_3.started,int14_3.stopped,per15_3.stopped,text_feedback_2.stopped,end_2.started,end_2.stopped,participant,session,group,age,gender,date,expName,psychopyVersion,frameRate,
,,,,,,,,,,,,,,,,,,,,,,9.94218498817645e-06,19.809882339057367,space,19.791765264868445,None,,,,,,,,,,,,,,,,,,,,,,,,,,,,,,,,,,,,,,,,,,,,,,,,,,,,,,NGS,001,2,24,f,2024-02-09_14h55.39.801,eye_track_exp,2023.1.3,120.11306247385781,
180,270,180,12,180,0,12,180,0,180,j,present,resp,freq_top,0,0,0,33,,,,,,,,,,139.55021556901193,140.05201077476522,140.0750676629832,140.25853785101936,140.25855164179302,0.9018693736590201,141.1651701540759,141.16518266198545,564.363245090568,564.363245090568,142.54878004584316,j,1,1.3340501777311147,None,142.5495292375599,142.54957381703207,142.5495827970699,142.55006130479524,,,,,,,,,,,,,,,,,,,,,,,,,,,,,,,,,,,NGS,001,2,24,f,2024-02-09_14h55.39.801,eye_track_exp,2023.1.3,120.11306247385781,
180,12,180,12,180,90,180,180,0,180,j,present,resp,freq_top,0,1,1,37,,,,,,,,,,,,142.5505446232528,142.83956104292884,142.83957387155533,1.0805179312721682,143.9216645654451,143.92167771478853,567.1192388648342,567.1192388648342,145.0717495390527,j,1,1.105787240943755,None,145.07225017615565,145.07229154846937,145.0723002077939,145.07262829988395,,,,,,,,,,,,,,,,,,,,,,,,,,,,,,,,,,,NGS,001,2,24,f,2024-02-09_14h55.39.801,eye_track_exp,2023.1.3,120.11306247385781,
0,0,0,-168,0,12,0,0,0,0,None,abs,inhibit,freq_top,0,2,2,21,,,,,,,,,,,,145.0731071283226,147.60200793643162,147.60202140648835,0.8323259603794014,148.4343204853576,148.43433427613127,571.6320872141259,571.6320872141259,151.44796244548343,None,1,,,151.44835243569105,151.44839412872534,151.44840342947646,151.4492395351299,,,,,,,,,,,,,,,,,,,,,,,,,,,,,,,,,,,NGS,001,2,24,f,2024-02-09_14h55.39.801,eye_track_exp,2023.1.3,120.11306247385781,
180,270,0,0,168,0,0,168,180,0,f,present,resp,freq_top,0,3,3,45,,,,,,,,,,,,151.44973055076116,151.72449500918447,151.72450815852426,0.709128013472552,152.43892852756107,152.4389423183311,575.6369976911701,575.6369976911701,153.62212835232276,f,1,1.147310293825285,None,153.62263572445227,153.62267709676962,153.6226860768038,153.62313732369876,,,,,,,,,,,,,,,,,,,,,,,,,,,,,,,,,,,NGS,001,2,24,f,2024-02-09_14h55.39.801,eye_track_exp,2023.1.3,120.11306247385781,
180,180,90,180,12,180,12,0,0,180,j,present,resp,freq_top,0,4,4,39,,,,,,,,,,,,153.62362705646956,153.91324096937024,153.9132547601439,0.7325107347524075,154.64570928988178,154.6457227599385,577.8434686421897,577.8434686421897,155.68698539172328,j,1,1.0045982518822711,None,155.68749372599996,155.68753477760401,155.68754375764183,155.6881800574556,,,,,,,,,,,,,,,,,,,,,,,,,,,,,,,,,,,NGS,001,2,24,f,2024-02-09_14h55.39.801,eye_track_exp,2023.1.3,120.11306247385781,
90,0,180,168,180,180,0,168,0,0,f,present,resp,freq_top,0,5,5,46,,,,,,,,,,,,155.68868903316252,155.9204859354977,155.9204987641242,0.9861679440466982,156.91035966013078,156.91037248875728,580.1082084921036,580.1082084921036,157.9438189598768,f,1,0.9959748499677517,None,157.9443426885009,157.9443859851126,157.94439977588627,157.94493408812923,,,,,,,,,,,,,,,,,,,,,,,,,,,,,,,,,,,NGS,001,2,24,f,2024-02-09_14h55.39.801,eye_track_exp,2023.1.3,120.11306247385781,
0,0,168,0,0,0,0,0,180,168,f,abs,resp,freq_top,0,6,6,19,,,,,,,,,,,,157.94542446233027,158.23452234377692,158.23453549312035,0.8500353399566818,159.08384885698615,159.08386200632594,582.2813561268085,582.2813561268085,159.95024000754347,f,1,0.8230539612122811,None,159.95076117044664,159.95080190133012,159.95081056065465,159.95126982544025,,,,,,,,,,,,,,,,,,,,,,,,,,,,,,,,,,,NGS,001,2,24,f,2024-02-09_14h55.39.801,eye_track_exp,2023.1.3,120.11306247385781,
0,180,0,0,180,0,180,168,0,168,f,abs,resp,freq_top,0,7,7,14,,,,,,,,,,,,159.9517739904113,160.18338808483895,160.1834009134618,1.0905177656796243,161.27332733167714,161.27334048101693,584.4711729564879,584.4711729564879,162.23271735620074,f,1,0.9209068662712525,None,162.23323338765476,162.23327700497975,162.23328630573087,162.23373402475409,,,,,,,,,,,,,,,,,,,,,,,,,,,,,,,,,,,NGS,001,2,24,f,2024-02-09_14h55.39.801,eye_track_exp,2023.1.3,120.11306247385781,
180,180,168,0,270,0,0,168,0,180,f,present,resp,freq_top,0,8,8,47,,,,,,,,,,,,162.23422920969097,162.4975431579005,162.4975575901044,0.8101322010686798,163.31333147532132,163.31334430394782,586.5111065426972,586.5111065426972,164.24676053157964,f,1,0.8968227258847037,None,164.24726630013174,164.24730671030193,164.24731569033975,164.2477842558801,,,,,,,,,,,,,,,,,,,,,,,,,,,,,,,,,,,NGS,001,2,24,f,2024-02-09_14h55.39.801,eye_track_exp,2023.1.3,120.11306247385781,
12,0,0,12,0,0,180,0,180,180,j,abs,resp,freq_top,0,9,9,6,,,,,,,,,,,,164.2482916280096,164.48801245146387,164.4880256008073,0.9987811158180125,165.48628251134505,165.48629694354895,588.6842708546137,588.6842708546137,167.16900238516246,j,1,1.635295163745468,None,167.16950975729196,167.16955080889238,167.1695594682169,167.17003669307815,,,,,,,,,,,,,,,,,,,,,,,,,,,,,,,,,,,NGS,001,2,24,f,2024-02-09_14h55.39.801,eye_track_exp,2023.1.3,120.11306247385781,
0,180,0,0,180,168,180,0,0,168,f,abs,resp,freq_top,0,10,10,16,,,,,,,,,,,,167.17051808724136,167.43585414751215,167.4358765976067,0.9280446442333906,168.3674904033869,168.36750387344364,591.5651452023994,591.5651452023994,170.34206182307025,f,1,1.938272655599576,None,170.3425682330526,170.3426089639397,170.3426176232606,170.34307336017446,,,,,,,,,,,,,,,,,,,,,,,,,,,,,,,,,,,NGS,001,2,24,f,2024-02-09_14h55.39.801,eye_track_exp,2023.1.3,120.11306247385781,
12,0,0,12,0,0,90,180,180,0,j,present,resp,freq_top,0,11,11,38,,,,,,,,,,,,170.34356277222832,170.5742779007378,170.5742910500776,1.0652766590152973,171.6395849041728,171.6395980535126,594.8373708758772,594.8373708758772,172.82348196471867,j,1,1.1466659761208575,None,172.82398292253492,172.82402301198817,172.82403135059576,172.82459805511826,,,,,,,,,,,,,,,,,,,,,,,,,,,,,,,,,,,NGS,001,2,24,f,2024-02-09_14h55.39.801,eye_track_exp,2023.1.3,120.11306247385781,
0,180,0,-168,180,0,180,0,12,180,None,abs,inhibit,freq_top,0,12,12,24,,,,,,,,,,,,172.82506790351908,173.13881342271998,173.13882657205977,0.8693149022017213,174.01275838855872,174.01277121718522,597.2103426301328,597.2103426301328,177.02624383945658,None,1,,,177.02663286751704,177.02667648484203,177.02668610631008,177.0280250940741,,,,,,,,,,,,,,,,,,,,,,,,,,,,,,,,,,,NGS,001,2,24,f,2024-02-09_14h55.39.801,eye_track_exp,2023.1.3,120.11306247385781,
168,0,180,0,0,180,180,0,168,0,f,abs,resp,freq_top,0,13,13,13,,,,,,,,,,,,177.02852380688273,178.01842832021794,178.0184421109916,1.0302963150608502,179.05029302183902,179.05030617117882,602.247753146461,602.247753146461,179.99994291261828,f,1,0.9034746888100926,None,180.00044515329864,180.00048620489906,180.00050320282753,180.00096920263968,,,,,,,,,,,,,,,,,,,,,,,,,,,,,,,,,,,NGS,001,2,24,f,2024-02-09_14h55.39.801,eye_track_exp,2023.1.3,120.11306247385781,
0,0,0,0,168,0,0,12,0,0,None,abs,inhibit,freq_top,0,14,14,29,,,,,,,,,,,,180.00145155895007,180.24958924345628,180.24960239279608,1.0671515486766685,181.3227743056741,181.32278745501753,604.5208020969694,604.5208020969694,184.33670843774235,None,1,,,184.33711318086716,184.33715327032405,184.3371628917921,184.33822670554218,,,,,,,,,,,,,,,,,,,,,,,,,,,,,,,,,,,NGS,001,2,24,f,2024-02-09_14h55.39.801,eye_track_exp,2023.1.3,120.11306247385781,
0,168,180,90,0,180,0,168,0,0,f,present,resp,freq_top,0,15,15,48,,,,,,,,,,,,184.33870745827517,184.5624553603957,184.56246915116571,0.7485060681470251,185.3113180225846,185.31133149264133,608.5091216336514,608.5091216336514,186.24464605341927,f,1,0.898771073349053,None,186.24515567056005,186.24519672216047,186.24520538148136,186.24558029805485,,,,,,,,,,,,,,,,,,,,,,,,,,,,,,,,,,,NGS,001,2,24,f,2024-02-09_14h55.39.801,eye_track_exp,2023.1.3,120.11306247385781,
180,12,180,-168,180,180,0,180,180,180,None,abs,inhibit,freq_top,0,16,16,26,,,,,,,,,,,,186.24607259655022,186.48552498102435,186.48553813036415,1.082785921967297,187.56746012783333,187.56747327717312,610.7655267257142,610.7655267257142,190.5814519887099,None,1,,,190.581831074589,190.58187180547247,190.58188174765746,190.58323741263303,,,,,,,,,,,,,,,,,,,,,,,,,,,,,,,,,,,NGS,001,2,24,f,2024-02-09_14h55.39.801,eye_track_exp,2023.1.3,120.11306247385781,
0,180,180,180,168,0,0,0,0,12,None,abs,inhibit,freq_top,0,17,17,31,,,,,,,,,,,,190.58375440623422,191.11574081943763,191.11575461020766,0.9225238035968577,192.03867862594052,192.03869209599725,615.2367259808852,615.2367259808852,195.0526166065938,None,1,,,195.0539581600824,195.05400113597716,195.05401107816215,195.05462621074184,,,,,,,,,,,,,,,,,,,,,,,,,,,,,,,,,,,NGS,001,2,24,f,2024-02-09_14h55.39.801,eye_track_exp,2023.1.3,120.11306247385781,
180,0,180,12,0,180,180,0,12,180,j,abs,resp,freq_top,0,18,18,3,,,,,,,,,,,,195.05511145349374,195.3362748302061,195.33628862097976,0.9896372607405817,196.32730024467674,196.3273130732996,619.5247581242911,619.5247581242911,197.29376461461288,j,1,0.9220226359539083,None,197.29427615604436,197.29431720764478,197.2943258669693,197.29480084681927,,,,,,,,,,,,,,,,,,,,,,,,,,,,,,,,,,,NGS,001,2,24,f,2024-02-09_14h55.39.801,eye_track_exp,2023.1.3,120.11306247385781,
0,0,0,-168,180,180,180,180,0,12,None,abs,inhibit,freq_top,0,19,19,25,,,,,,,,,,,,197.2952780716805,197.6596187268442,197.65963251761423,1.0489239356509175,198.70857949594574,198.70859392814964,621.9060681642586,621.9060681642586,201.721967770005,None,1,,,201.72232793365765,201.722385021043,201.72239464251106,201.72365056492708,,,,,,,,,,,,,,,,,,,,,,,,,,,,,,,,,,,NGS,001,2,24,f,2024-02-09_14h55.39.801,eye_track_exp,2023.1.3,120.11306247385781,
0,180,0,180,168,180,12,180,0,180,None,abs,inhibit,freq_top,0,20,20,28,,,,,,,,,,,,201.72413869411685,202.48072034013967,202.4807338101964,0.7250986304511257,203.2045681451782,203.20458161523493,626.4022643165081,626.4022643165081,206.20982050508246,None,1,,,206.21024930188287,206.21028971205305,206.2102993335211,206.2121344683692,,,,,,,,,,,,,,,,,,,,,,,,,,,,,,,,,,,NGS,001,2,24,f,2024-02-09_14h55.39.801,eye_track_exp,2023.1.3,120.11306247385781,
0,270,0,0,12,0,0,12,0,0,j,present,resp,freq_top,0,21,21,40,,,,,,,,,,,,206.21264280264586,206.44385311608858,206.44386594471507,0.9455742966610867,207.39280545037036,207.39281827899686,630.5903531303629,630.5903531303629,208.49245532511486,j,1,1.0559897247585468,None,208.4929777708785,208.49302010534302,208.49302940609778,208.49349829235143,,,,,,,,,,,,,,,,,,,,,,,,,,,,,,,,,,,NGS,001,2,24,f,2024-02-09_14h55.39.801,eye_track_exp,2023.1.3,120.11306247385781,
90,0,180,180,180,168,0,168,0,0,f,present,resp,freq_top,0,22,22,44,,,,,,,,,,,,208.49399860873746,208.7090307428407,208.70904453361072,0.8208610350457065,209.5330207211191,209.5330338704589,632.7302207453649,632.7302207453649,210.4824021729146,f,1,0.9006042839027941,None,210.48291371434607,210.48295508666342,210.48296406670124,210.48348266387984,,,,,,,,,,,,,,,,,,,,,,,,,,,,,,,,,,,NGS,001,2,24,f,2024-02-09_14h55.39.801,eye_track_exp,2023.1.3,120.11306247385781,
180,0,180,0,12,180,180,180,12,180,j,abs,resp,freq_top,0,23,23,9,,,,,,,,,,,,210.48396213374872,210.73974183033351,210.73975562110354,0.9270695159943778,211.67281360937704,211.67282707943377,634.8700614202535,634.8700614202535,212.52260932955323,j,1,0.8082032238708052,None,212.5231433210829,212.52318341053615,212.52319206985703,212.5236535796539,,,,,,,,,,,,,,,,,,,,,,,,,,,,,,,,,,,NGS,001,2,24,f,2024-02-09_14h55.39.801,eye_track_exp,2023.1.3,120.11306247385781,
180,180,0,168,180,180,180,180,168,180,f,abs,resp,freq_top,0,24,24,10,,,,,,,,,,,,212.52414780243998,212.7641303298551,212.76414379991184,0.8273563259374903,213.59587008066592,213.59588387143594,636.793419043519,636.793419043519,214.345817723839,f,1,0.708490488865209,None,214.34634369747437,214.34638442835785,214.34639308768237,214.34684497600756,,,,,,,,,,,,,,,,,,,,,,,,,,,,,,,,,,,NGS,001,2,24,f,2024-02-09_14h55.39.801,eye_track_exp,2023.1.3,120.11306247385781,
180,270,0,0,0,0,0,168,0,168,f,present,resp,freq_top,0,25,25,43,,,,,,,,,,,,214.3473254080236,214.579142836159,214.57915598550244,0.8297956595618801,215.4110188911145,215.411031719741,638.6085678539675,638.6085678539675,216.61929001897806,f,1,1.1650817884255957,None,216.61985383705905,216.61989456794254,216.61990322726706,216.62036345419983,,,,,,,,,,,,,,,,,,,,,,,,,,,,,,,,,,,NGS,001,2,24,f,2024-02-09_14h55.39.801,eye_track_exp,2023.1.3,120.11306247385781,
180,0,90,180,12,0,180,180,12,180,j,present,resp,freq_top,0,26,26,41,,,,,,,,,,,,216.62084388621588,216.9186164840794,216.9186296334192,0.7539979167855322,217.67524303028767,217.6752565003444,640.8732984031267,640.8732984031267,218.92525690123875,f,0,1.2040894685997046,None,218.92578159201366,219.43162230474627,219.4316328883615,219.43287918930946,642.1055808689307,,,,,,,,,,,,,,,,,,,,,,,,,,,,,,,,,,NGS,001,2,24,f,2024-02-09_14h55.39.801,eye_track_exp,2023.1.3,120.11306247385781,
180,0,180,0,12,0,12,180,180,180,j,abs,resp,freq_top,0,27,27,7,,,,,,,,,,,,219.43341510512982,219.43411586878574,219.43412581097073,0.7449220659240676,220.18205679424864,220.18206994359207,643.3794880544665,643.3794880544665,221.14879024460242,j,1,0.9225335359551536,None,221.14927067661847,221.15001024686717,221.15002018904852,221.15061158867684,,,,,,,,,,,,,,,,,,,,,,,,,,,,,,,,,,,NGS,001,2,24,f,2024-02-09_14h55.39.801,eye_track_exp,2023.1.3,120.11306247385781,
180,168,180,0,180,0,180,0,0,168,f,abs,resp,freq_top,0,28,28,20,,,,,,,,,,,,221.15109907643637,221.41410513764276,221.41411828698256,0.7882234781749957,222.20500977060146,222.2050232406582,645.4027838758302,645.4027838758302,223.10514565781705,f,1,0.8505059364506451,None,223.10571428663025,223.10575886610604,223.10576784614386,223.1063412856929,,,,,,,,,,,,,,,,,,,,,,,,,,,,,,,,,,,NGS,001,2,24,f,2024-02-09_14h55.39.801,eye_track_exp,2023.1.3,120.11306247385781,
0,180,180,180,12,0,180,12,0,0,j,abs,resp,freq_top,0,29,29,8,,,,,,,,,,,,223.1068618071622,223.37973692979722,223.379750079137,1.0299639494742268,224.41170522256652,224.41171869262325,647.6092532232724,647.6092532232724,225.23741038804292,j,1,0.788124180297018,None,225.23792032590063,225.23796073607082,225.2379693953917,225.2384357159208,,,,,,,,,,,,,,,,,,,,,,,,,,,,,,,,,,,NGS,001,2,24,f,2024-02-09_14h55.39.801,eye_track_exp,2023.1.3,120.11306247385781,
180,180,180,-168,180,180,12,180,0,180,None,abs,inhibit,freq_top,0,30,30,22,,,,,,,,,,,,225.23891775151424,225.47793845274646,225.4779519228032,0.8974826317767715,226.3765666557738,226.37657980511358,649.5742602613791,649.5742602613791,229.3817930377154,None,1,,,229.38220676087803,229.3822481331954,229.38225807538038,260.1151551926923,,,,,,,,,,,,,,,,,,,,,,,,,,,,,,,,,,,NGS,001,2,24,f,2024-02-09_14h55.39.801,eye_track_exp,2023.1.3,120.11306247385781,
180,0,180,12,180,180,12,180,180,180,j,abs,resp,freq_top,0,31,31,1,,,,,,,,,,,,260.11572638723374,260.31532247796713,260.31533594802386,0.9758901961090582,261.2965436155646,261.29655644418744,684.4946172691925,684.4946172691925,262.0802533140377,j,1,0.749649208784831,None,262.08076421403894,262.0808043034922,262.08081296281307,262.081274151893,,,,,,,,,,,,,,,,,,,,,,,,,,,,,,,,,,,NGS,001,2,24,f,2024-02-09_14h55.39.801,eye_track_exp,2023.1.3,120.11306247385781,
0,180,0,12,0,12,0,180,180,180,j,abs,resp,freq_top,0,32,32,0,,,,,,,,,,,,262.0817533010486,262.2970208404222,262.2970336690487,1.09195234680382,263.3954051712826,263.3954192827732,686.5928216785833,686.5928216785833,263.9790733050104,j,1,0.5386552052041225,None,263.9796967762013,263.97973718636786,263.9797461664057,263.98004314908394,,,,,,,,,,,,,,,,,,,,,,,,,,,,,,,,,,,NGS,001,2,24,f,2024-02-09_14h55.39.801,eye_track_exp,2023.1.3,120.11306247385781,
180,180,0,168,180,180,180,0,0,168,f,abs,resp,freq_top,0,33,33,18,,,,,,,,,,,,263.98052037394154,264.19504481519834,264.1950579645418,0.9912552872279667,265.1854736985915,265.1854874893652,688.3829697433684,688.3829697433684,265.8020735548489,f,1,0.5731478507150314,None,265.802622940726,265.80266303017925,265.80267168950377,265.80314987650854,,,,,,,,,,,,,,,,,,,,,,,,,,,,,,,,,,,NGS,001,2,24,f,2024-02-09_14h55.39.801,eye_track_exp,2023.1.3,120.11306247385781,
180,12,180,12,0,180,0,180,180,180,j,abs,resp,freq_top,0,34,34,5,,,,,,,,,,,,265.8036691151174,266.0349066893905,266.03492048016415,0.9061389176852891,266.9416387350102,266.94165188435,690.1398130933449,690.1398130933449,267.5429715650316,j,1,0.560404215077142,None,267.5434872757687,267.5435292895163,267.5435379488372,267.5438997160709,,,,,,,,,,,,,,,,,,,,,,,,,,,,,,,,,,,NGS,001,2,24,f,2024-02-09_14h55.39.801,eye_track_exp,2023.1.3,120.11306247385781,
180,0,180,0,168,180,0,180,12,180,None,abs,inhibit,freq_top,0,35,35,30,,,,,,,,,,,,267.5443881659776,268.01691101456163,268.01692512605223,1.0251523677353092,269.0488029770131,269.04881644706984,692.2463458462698,692.2463458462698,272.06224641415974,None,1,,,272.0627881028631,272.06282915446354,272.0628387759316,272.06337533318583,,,,,,,,,,,,,,,,,,,,,,,,,,,,,,,,,,,NGS,001,2,24,f,2024-02-09_14h55.39.801,eye_track_exp,2023.1.3,120.11306247385781,
12,0,0,-168,0,0,180,180,180,180,None,abs,inhibit,freq_top,0,36,36,27,,,,,,,,,,,,272.0638695559719,272.2959134093471,272.29592720011715,0.7742846713472593,273.0701247936595,273.07013858443315,696.2679482890962,696.2679482890962,276.0838430841068,None,1,,,276.0842231321294,276.08426482516006,276.08427476734505,276.08498226603115,,,,,,,,,,,,,,,,,,,,,,,,,,,,,,,,,,,NGS,001,2,24,f,2024-02-09_14h55.39.801,eye_track_exp,2023.1.3,120.11306247385781,
90,0,0,12,0,12,180,180,180,0,j,present,resp,freq_top,0,37,37,32,,,,,,,,,,,,276.0854697537907,276.4434243192918,276.44343843077877,1.0708770065636293,277.5160843700214,277.5160975193612,700.7141823980382,700.7141823980382,278.26737709455483,f,0,0.7050758295299602,None,278.26788895670325,278.7729468025791,278.7729573861943,278.7737283865754,701.446882595952,,,,,,,,,,,,,,,,,,,,,,,,,,,,,,,,,,NGS,001,2,24,f,2024-02-09_14h55.39.801,eye_track_exp,2023.1.3,120.11306247385781,
0,0,0,-168,0,0,0,12,0,0,None,abs,inhibit,freq_top,0,38,38,23,,,,,,,,,,,,278.7742700752751,278.7752546722659,278.77526461445086,1.0193931592543495,279.7980097670734,279.7980232371301,702.9955744449944,702.9955744449944,282.8114673157106,None,1,,,282.81185570234084,282.8125988004613,282.81260970479343,282.81393522250073,,,,,,,,,,,,,,,,,,,,,,,,,,,,,,,,,,,NGS,001,2,24,f,2024-02-09_14h55.39.801,eye_track_exp,2023.1.3,120.11306247385781,
168,0,270,180,180,180,180,168,180,180,f,present,resp,freq_top,0,39,39,49,,,,,,,,,,,,282.8144323317283,283.10382046082304,283.1038342515967,0.9882902941319789,284.09400207246654,284.09401522180633,707.2919275554705,707.2919275554705,285.1446854052265,f,1,1.0069734718526888,None,285.1451918152088,285.145232225379,285.1452412054168,285.1457213167196,,,,,,,,,,,,,,,,,,,,,,,,,,,,,,,,,,,NGS,001,2,24,f,2024-02-09_14h55.39.801,eye_track_exp,2023.1.3,120.11306247385781,
0,180,0,12,0,180,180,180,0,12,j,abs,resp,freq_top,0,40,40,4,,,,,,,,,,,,285.1461998244413,285.3600780236993,285.36009117304275,0.7696684201426215,286.1341806854143,286.13419383475775,709.3318730081555,709.3318730081555,286.8353734589218,j,1,0.6626294363450143,None,286.83587088886634,286.83591001617606,286.83591835478,286.8363962210715,,,,,,,,,,,,,,,,,,,,,,,,,,,,,,,,,,,NGS,001,2,24,f,2024-02-09_14h55.39.801,eye_track_exp,2023.1.3,120.11306247385781,
0,0,168,0,0,0,0,0,168,0,f,abs,resp,freq_top,0,41,41,11,,,,,,,,,,,,286.8368641451816,287.0751751027201,287.0751885727732,0.8099916731444666,287.89087746834775,287.8908906176912,711.0887083402449,711.0887083402449,288.8573735891332,f,1,0.9225133308718796,None,288.85794991512375,288.857990004577,288.8579986639015,288.85847300232126,,,,,,,,,,,,,,,,,,,,,,,,,,,,,,,,,,,NGS,001,2,24,f,2024-02-09_14h55.39.801,eye_track_exp,2023.1.3,120.11306247385781,
0,180,0,12,0,180,180,12,0,0,j,abs,resp,freq_top,0,42,42,2,,,,,,,,,,,,288.8589576036393,289.1571468111106,289.15715963973344,0.718468704224164,289.88088076209897,289.88089359072546,713.0786776381356,713.0786776381356,290.7643362292911,j,1,0.8357475652155699,None,290.764835262813,290.7648763144134,290.76488529445123,290.76533750349336,,,,,,,,,,,,,,,,,,,,,,,,,,,,,,,,,,,NGS,001,2,24,f,2024-02-09_14h55.39.801,eye_track_exp,2023.1.3,120.11306247385781,
90,0,0,12,0,0,0,12,0,0,j,present,resp,freq_top,0,43,43,34,,,,,,,,,,,,290.7658188976566,290.98063839729366,290.98065122592016,0.934303956533011,291.92092499520004,291.92093814453983,715.118614752213,715.118614752213,292.68811110359457,j,1,0.7319068993056135,None,292.6886200793015,292.68866048947166,292.6886694695095,292.6891258478536,,,,,,,,,,,,,,,,,,,,,,,,,,,,,,,,,,,NGS,001,2,24,f,2024-02-09_14h55.39.801,eye_track_exp,2023.1.3,120.11306247385781,
0,0,180,0,0,0,168,0,180,168,f,abs,resp,freq_top,0,44,44,15,,,,,,,,,,,,292.6896232777981,292.90365285483495,292.9036663248917,0.9985565312923088,293.90309609249744,293.90310956255416,717.100251857988,717.100251857988,294.8860510188024,f,1,0.9420853230330977,None,294.88655774950166,294.88659848038515,294.88660713970967,294.88713150976764,,,,,,,,,,,,,,,,,,,,,,,,,,,,,,,,,,,NGS,001,2,24,f,2024-02-09_14h55.39.801,eye_track_exp,2023.1.3,120.11306247385781,
180,270,180,12,180,180,180,180,12,180,j,present,resp,freq_top,0,45,45,35,,,,,,,,,,,,294.88761899752717,295.1105561305303,295.1105696005834,1.090372084184247,296.2004447042964,296.2004581743531,719.398324645681,719.398324645681,297.26754611169235,f,0,1.0286769401027414,None,297.2680698403201,297.7734977920336,297.7735083756488,297.7746716112488,720.4474223603575,,,,,,,,,,,,,,,,,,,,,,,,,,,,,,,,,,NGS,001,2,24,f,2024-02-09_14h55.39.801,eye_track_exp,2023.1.3,120.11306247385781,
0,0,180,0,168,0,0,0,180,168,f,abs,resp,freq_top,0,46,46,17,,,,,,,,,,,,297.775230297877,298.0576149597182,298.0576287504882,0.8099628845965938,298.8732939131078,298.8733077038778,722.0710490961137,722.0710490961137,299.7067328153353,f,1,0.7876825548737543,None,299.7072405081817,299.7079845684493,299.7079948313476,299.70857083662486,,,,,,,,,,,,,,,,,,,,,,,,,,,,,,,,,,,NGS,001,2,24,f,2024-02-09_14h55.39.801,eye_track_exp,2023.1.3,120.11306247385781,
90,0,0,12,0,180,180,180,0,12,j,present,resp,freq_top,0,47,47,36,,,,,,,,,,,,299.7090554379429,299.9140645671141,299.9140773957406,0.9665641759997694,300.87988750578734,300.87990065512713,724.0776824575296,724.0776824575296,301.5797416122441,j,1,0.6527164368744707,None,301.58025219153205,301.58029260170224,301.58030158174006,301.58097444313535,,,,,,,,,,,,,,,,,,,,,,,,,,,,,,,,,,,NGS,001,2,24,f,2024-02-09_14h55.39.801,eye_track_exp,2023.1.3,120.11306247385781,
180,168,0,180,0,180,180,180,168,180,f,abs,resp,freq_top,0,48,48,12,,,,,,,,,,,,301.5815042653594,301.8210089264794,301.82102303796637,0.9933125468900812,302.82016063363335,302.82017378297314,726.0176791285012,726.0176791285012,303.75326063565444,f,1,0.8889231791508792,None,303.75380617294286,303.75384658311305,303.75385524243393,303.7542073881996,,,,,,,,,,,,,,,,,,,,,,,,,,,,,,,,,,,NGS,001,2,24,f,2024-02-09_14h55.39.801,eye_track_exp,2023.1.3,120.11306247385781,
0,270,0,0,12,0,180,180,180,12,j,present,resp,freq_top,0,49,49,42,,,,,,,,,,,,303.7546948759591,303.97011764170384,303.9701311117569,0.7222601252272992,304.69358507799916,304.6935982273426,727.8911064593085,727.8911064593085,305.99311712182316,j,1,1.2552288589940872,None,305.99361872106965,305.99365784837937,305.99366650770025,305.99401801203203,,,,,,,,,,,,,,,,,,,,,,,,,,,,,,,,,,,NGS,001,2,24,f,2024-02-09_14h55.39.801,eye_track_exp,2023.1.3,120.11306247385781,
,,,,,,,,,,,,,,,,,,,,,,,,,,,,,,,,,,,,,,,,,,,,,,,305.9940965873611,306.4971538091231,306.49716984490806,309.0396362828178,space,2.528378834922478,None,,,,,,,,,,,,,,,,,,,,,,,,,,,NGS,001,2,24,f,2024-02-09_14h55.39.801,eye_track_exp,2023.1.3,120.11306247385781,
0,0,180,-12,180,90,180,180,180,-12,j,present,resp,freq_bottom,,,,,0,0,0,547,,,,,,309.03966161935386,309.54144720363183,,,,1.0339055454357768,,,,,,,,,,,,,,,,,,,,,,309.68849083090026,309.6898339879699,309.6898471373097,310.7300347302953,310.73005012464637,733.935984197702,733.935984197702,311.5558749170559,j,1,0.7777791768712632,None,311.55724725924665,311.5572934422962,311.55730306376427,311.557890294087,,,,,,,,,,,NGS,001,2,24,f,2024-02-09_14h55.39.801,eye_track_exp,2023.1.3,120.11306247385781,
0,180,-168,0,0,270,0,0,12,180,None,present,inhibit,freq_bottom,,,,,0,1,1,289,,,,,,,,,,,1.0859148939122776,,,,,,,,,,,,,,,,,,,,,,311.55837714041627,311.78766540507786,311.78768047871563,312.87776276472505,312.87777751764224,736.0758255140208,736.0758255140208,313.81130214716177,j,0,0.8936915791673528,None,313.8118127264461,314.31777210396467,314.31778461187423,314.3191335418196,736.9917171980887,,,,,,,,,,NGS,001,2,24,f,2024-02-09_14h55.39.801,eye_track_exp,2023.1.3,120.11306247385781,
180,0,-12,180,180,-12,0,90,180,180,j,present,resp,freq_bottom,,,,,0,2,2,480,,,,,,,,,,,1.0157509835445906,,,,,,,,,,,,,,,,,,,,,,314.3196957563232,314.32068323975545,314.3206951062348,315.33411577256993,315.334131166921,738.5320739685703,738.5320739685703,316.8020257682183,j,1,1.4296789198815532,None,316.8025850962804,316.8033413437406,316.8033525687897,316.8039311397879,,,,,,,,,,,NGS,001,2,24,f,2024-02-09_14h55.39.801,eye_track_exp,2023.1.3,120.11306247385781,
-168,0,180,0,180,180,180,180,-168,180,f,abs,resp,freq_bottom,,,,,0,3,3,870,,,,,,,,,,,1.0008772129593,,,,,,,,,,,,,,,,,,,,,,316.8044263247248,317.3418472643134,317.34186233794753,318.34837414813956,318.34838858034345,741.5461796835007,741.5461796835007,319.43167137423734,f,1,1.0393465077504516,None,319.43216848346856,319.4322082522085,319.43221723224633,319.4329901569181,,,,,,,,,,,NGS,001,2,24,f,2024-02-09_14h55.39.801,eye_track_exp,2023.1.3,120.11306247385781,
-168,0,0,0,0,90,0,12,180,180,None,present,inhibit,freq_bottom,,,,,0,4,4,273,,,,,,,,,,,0.8122131127078661,,,,,,,,,,,,,,,,,,,,,,319.43345743959435,319.6566899516911,319.6567047046119,320.47129995988143,320.4713140713684,743.6693768206642,743.6693768206642,323.50303445095415,None,1,,,323.50343310048265,323.50347351065284,323.5034828114076,323.50396324342364,,745.1597782828721,745.1597782828721,745.1597782828721,745.1597782828721,746.6501964222916,746.6501964222916,,,,NGS,001,2,24,f,2024-02-09_14h55.39.801,eye_track_exp,2023.1.3,120.11306247385781,
0,12,0,180,12,0,0,90,0,0,j,present,resp,freq_bottom,,,,,0,5,5,567,,,,,,,,,,,1.008295720604067,,,,,,,,,,,,,,,,,,,,,,323.5044481654586,323.50534135849375,323.50535258354284,324.5100337489057,324.5100584440115,747.7159524276103,747.7159524276103,325.6770807308603,j,1,1.1091467371879844,None,325.67759163086157,325.677632682462,325.67764198321674,325.6782410800188,,,,,,,,,,,NGS,001,2,24,f,2024-02-09_14h55.39.801,eye_track_exp,2023.1.3,120.11306247385781,
0,0,0,180,168,0,0,180,180,-168,f,abs,resp,freq_bottom,,,,,0,6,6,900,,,,,,,,,,,0.7285509814243283,,,,,,,,,,,,,,,,,,,,,,325.67874107568787,325.9176626757908,325.91767678727774,326.649933114757,326.64994818839114,749.8557998375254,749.8557998375254,328.17503376333843,f,1,1.481567181272112,None,328.175605920027,328.17564600948026,328.175655310235,328.1761870567534,,751.3378716733387,751.3378716733387,751.3378716733387,751.3378716733387,,,,,,NGS,001,2,24,f,2024-02-09_14h55.39.801,eye_track_exp,2023.1.3,120.11306247385781,
180,180,180,12,180,-12,0,270,0,180,j,present,resp,freq_bottom,,,,,0,7,7,493,,,,,,,,,,,1.0281985625027623,,,,,,,,,,,,,,,,,,,,,,328.1766620366034,328.4323410284778,328.4323551399648,329.4644289481803,329.4644440218144,752.6617537308048,752.6617537308048,330.9478170009461,j,1,1.4433449336793274,None,330.94834137100406,330.9483824226045,330.9483917233556,330.94884874313357,,,,,,,,,,,NGS,001,2,24,f,2024-02-09_14h55.39.801,eye_track_exp,2023.1.3,120.11306247385781,
0,0,0,168,0,0,0,168,0,0,f,abs,resp,freq_bottom,,,,,0,8,8,955,,,,,,,,,,,0.9783890906598758,,,,,,,,,,,,,,,,,,,,,,330.9493362308931,331.22925972097073,331.22927383246133,332.21197731770735,332.2119920706282,755.4177330728708,755.4177330728708,333.3533410711352,f,1,1.087602985324338,None,333.35385453686104,333.3538959091784,333.3539052099295,333.354673644586,,,,,,,,,,,NGS,001,2,24,f,2024-02-09_14h55.39.801,eye_track_exp,2023.1.3,120.11306247385781,
12,180,0,0,0,0,-168,0,90,0,None,present,inhibit,freq_bottom,,,,,0,9,9,245,,,,,,,,,,,1.0111805077079148,,,,,,,,,,,,,,,,,,,,,,333.3551851860175,333.6281969335105,333.6282116864313,334.6431974450534,334.6432118772573,757.8490349827007,757.8490349827007,337.6822936427452,None,1,,,337.6826894058322,337.6827294952891,337.6827384753269,337.68318876007106,,759.3394239369991,759.3394239369991,759.3394239369991,759.3394239369991,760.8131510727799,760.8131510727799,,,,NGS,001,2,24,f,2024-02-09_14h55.39.801,eye_track_exp,2023.1.3,120.11306247385781,
0,12,0,0,12,0,0,0,270,0,j,present,resp,freq_bottom,,,,,0,10,10,582,,,,,,,,,,,0.7432052995137737,,,,,,,,,,,,,,,,,,,,,,337.6836775306947,337.6844305710001,337.68444083390204,338.4316723363845,338.4316880514525,761.6374271294007,761.6374271294007,339.30669715175827,j,1,0.8189301996171707,None,339.30723018113713,339.30727123273755,339.3072805334923,339.30780137567854,,,,,,,,,,,NGS,001,2,24,f,2024-02-09_14h55.39.801,eye_track_exp,2023.1.3,120.11306247385781,
180,180,180,180,12,270,0,0,0,168,None,present,inhibit,freq_bottom,,,,,0,11,11,150,,,,,,,,,,,0.9893838334140168,,,,,,,,,,,,,,,,,,,,,,339.3082930327437,339.5313959757259,339.53140976649956,340.52138419583935,340.5213989487602,763.7190280905197,763.7190280905197,343.5523675709046,None,1,,,343.55279989557675,343.55284479576585,343.55285409651697,343.55352214718005,,765.2177620655639,765.2177620655639,765.2177620655639,765.2177620655639,766.6914859941899,766.6914859941899,,,,NGS,001,2,24,f,2024-02-09_14h55.39.801,eye_track_exp,2023.1.3,120.11306247385781,
12,0,180,12,0,180,180,90,0,0,j,present,resp,freq_bottom,,,,,0,12,12,620,,,,,,,,,,,0.7114575960310507,,,,,,,,,,,,,,,,,,,,,,343.55403272646436,343.75242356785384,343.75243800005774,344.46823071128165,344.46824546419884,767.6740153308492,767.6740153308492,345.1860195566005,j,1,0.670384019609628,None,345.1865339844735,345.18657407392675,345.18658465754197,345.1870490537767,,,,,,,,,,,NGS,001,2,24,f,2024-02-09_14h55.39.801,eye_track_exp,2023.1.3,120.11306247385781,
180,0,180,-12,180,90,180,180,-168,0,None,present,inhibit,freq_bottom,,,,,0,13,13,140,,,,,,,,,,,0.8366728505674029,,,,,,,,,,,,,,,,,,,,,,345.18754455943053,345.4342428721757,345.43425666294934,346.2746743373318,346.27469871171706,769.4724798726893,769.4724798726893,349.30564295947624,None,1,,,349.3060233282158,349.3060640590993,349.30607335985405,349.30664327153136,,770.9712055091259,770.9712055091259,770.9712055091259,770.9712055091259,772.4449509256992,772.4449509256992,,,,NGS,001,2,24,f,2024-02-09_14h55.39.801,eye_track_exp,2023.1.3,120.11306247385781,
180,12,180,0,180,270,180,180,180,168,None,present,inhibit,freq_bottom,,,,,0,14,14,117,,,,,,,,,,,0.8526177957301416,,,,,,,,,,,,,,,,,,,,,,349.30713172143805,349.48906151229676,349.4890762652176,350.3466304172507,350.3466451701679,773.5523361407722,773.5523361407722,353.3863702912131,None,1,,,353.3867420006318,353.38678241080197,353.3867913908398,353.3874065234195,,775.0344233709329,775.0344233709329,775.0344233709329,775.0344233709329,776.5248241917106,776.5248241917106,,,,NGS,001,2,24,f,2024-02-09_14h55.39.801,eye_track_exp,2023.1.3,120.11306247385781,
12,0,-168,0,0,270,0,180,0,180,None,present,inhibit,freq_bottom,,,,,0,15,15,294,,,,,,,,,,,1.069444061609405,,,,,,,,,,,,,,,,,,,,,,353.3879065190922,353.62734767851725,353.6273678836005,354.7013730156941,354.701387447898,777.9069857316827,777.9069857316827,357.74110775820736,None,1,,,357.7415224435208,357.7415634951212,357.74157247515905,357.74213533109287,,779.397368913098,779.397368913098,779.397368913098,779.397368913098,780.8711342140414,780.8711342140414,,,,NGS,001,2,24,f,2024-02-09_14h55.39.801,eye_track_exp,2023.1.3,120.11306247385781,
0,-12,180,180,180,90,180,180,0,168,None,present,inhibit,freq_bottom,,,,,0,16,16,29,,,,,,,,,,,1.0010016005812754,,,,,,,,,,,,,,,,,,,,,,357.7426475139582,357.96514558725903,357.9651609816101,358.97257913417707,358.9725942078112,782.1700289959008,782.1700289959008,362.00378957590874,None,1,,,362.0041712275124,362.00422959775824,362.00423889850936,362.00496788514283,,783.6604041594255,783.6604041594255,783.6604041594255,783.6604041594255,785.1508325617469,785.1508325617469,,,,NGS,001,2,24,f,2024-02-09_14h55.39.801,eye_track_exp,2023.1.3,120.11306247385781,
0,0,-168,180,180,-168,0,0,0,0,f,abs,resp,freq_bottom,,,,,0,17,17,815,,,,,,,,,,,0.8025472258235391,,,,,,,,,,,,,,,,,,,,,,362.0054826337291,362.21184037213243,362.2118541629061,363.01935615054026,363.01937026203086,786.2249137034414,786.2249137034414,363.81099522230215,f,1,0.7432105217558274,None,363.8115061223034,363.8115474946171,363.81155679537187,363.8119323533756,,,,,,,,,,,NGS,001,2,24,f,2024-02-09_14h55.39.801,eye_track_exp,2023.1.3,120.11306247385781,
0,180,12,0,12,180,180,0,270,180,j,present,resp,freq_bottom,,,,,0,18,18,579,,,,,,,,,,,1.0580791534821385,,,,,,,,,,,,,,,,,,,,,,363.8124272175992,364.1190037802771,364.1190178917641,365.17541445279494,365.17542952642907,788.3814312704817,788.3814312704817,365.8849201754856,j,1,0.6668686555676686,None,365.8855600031711,365.88560586550375,365.8856151662585,365.88613729130884,,,,,,,,,,,NGS,001,2,24,f,2024-02-09_14h55.39.801,eye_track_exp,2023.1.3,120.11306247385781,
12,180,0,180,180,90,180,180,-12,0,j,present,resp,freq_bottom,,,,,0,19,19,459,,,,,,,,,,,0.7317441513094757,,,,,,,,,,,,,,,,,,,,,,365.88664338057424,366.3418251349358,366.341839887853,367.07412123115137,367.07413566335526,790.2798150881972,790.2798150881972,368.14110974664436,j,1,1.0237045649446372,None,368.1416408517325,368.14168254476317,368.141691524801,368.14215111030353,,,,,,,,,,,NGS,001,2,24,f,2024-02-09_14h55.39.801,eye_track_exp,2023.1.3,120.11306247385781,
0,0,0,-168,180,90,180,0,-168,180,f,present,resp,freq_bottom,,,,,0,20,20,540,,,,,,,,,,,0.972616161705363,,,,,,,,,,,,,,,,,,,,,,368.14263410804415,368.3978823788275,368.3978974524616,369.37168440170717,369.371699154628,792.5695364408348,792.5695364408348,370.3394374070522,f,1,0.9271319566905731,None,370.339976530031,370.34001854377857,370.3400281652466,370.3405002586587,,,,,,,,,,,NGS,001,2,24,f,2024-02-09_14h55.39.801,eye_track_exp,2023.1.3,120.11306247385781,
168,180,180,-168,180,180,0,180,0,180,f,abs,resp,freq_bottom,,,,,0,21,21,878,,,,,,,,,,,0.9709630402145153,,,,,,,,,,,,,,,,,,,,,,370.34100346148625,370.59593871381,370.59595250458005,371.5698815308533,371.5698959630572,794.776001618975,794.776001618975,372.5116091040909,f,1,0.8954474972524622,None,372.51214020917905,372.51218222292664,372.5121908822475,372.51296733479467,,,,,,,,,,,NGS,001,2,24,f,2024-02-09_14h55.39.801,eye_track_exp,2023.1.3,120.11306247385781,
180,0,180,0,-168,180,180,0,12,0,None,abs,inhibit,freq_bottom,,,,,0,22,22,381,,,,,,,,,,,0.9113076194404806,,,,,,,,,,,,,,,,,,,,,,372.5134525775429,372.75225968216546,372.75227411436936,373.66806060371164,373.668076318776,796.8658930791826,796.8658930791826,376.6994368554224,None,1,,,376.6998582757624,376.69989804450233,376.69990734525345,376.70063376616235,,798.3562903720849,798.3562903720849,798.3562903720849,798.3562903720849,799.8466940793005,799.8466940793005,,,,NGS,001,2,24,f,2024-02-09_14h55.39.801,eye_track_exp,2023.1.3,120.11306247385781,
180,180,168,0,0,168,180,0,180,0,f,abs,resp,freq_bottom,,,,,0,23,23,963,,,,,,,,,,,1.0099835144264253,,,,,,,,,,,,,,,,,,,,,,376.70111516032557,376.9076188243416,376.9076329358286,377.9229971388959,377.92301221253,801.1289414748499,801.1289414748499,378.98162203213724,f,1,1.0060555837153515,None,378.9821447986178,378.9821864916521,378.982214714626,378.9826197784714,,,,,,,,,,,NGS,001,2,24,f,2024-02-09_14h55.39.801,eye_track_exp,2023.1.3,120.11306247385781,
0,180,0,180,180,168,180,0,180,-168,f,abs,resp,freq_bottom,,,,,0,24,24,797,,,,,,,,,,,0.883923029701982,,,,,,,,,,,,,,,,,,,,,,378.98309283402705,379.1970117641722,379.19702523422893,380.0873853882622,380.0873991790322,803.2854417232447,803.2854417232447,380.98869156681394,f,1,0.8652537240777747,None,380.9891906003395,380.98923229337015,380.98924191484184,380.9896893131481,,,,,,,,,,,NGS,001,2,24,f,2024-02-09_14h55.39.801,eye_track_exp,2023.1.3,120.11306247385781,
180,180,180,180,12,0,-168,0,90,0,None,present,inhibit,freq_bottom,,,,,0,25,25,149,,,,,,,,,,,0.8917006231344912,,,,,,,,,,,,,,,,,,,,,,380.99018449808136,381.2127813517982,381.21279546328515,382.10260045856194,382.1026145700489,805.3087292060009,805.3087292060009,385.1422001797946,None,1,,,385.1425940185909,385.1426350701913,385.14264405022914,385.14320241614405,,806.7991168774352,806.7991168774352,806.7991168774352,806.7991168774352,808.2728853855333,808.2728853855333,,,,NGS,001,2,24,f,2024-02-09_14h55.39.801,eye_track_exp,2023.1.3,120.11306247385781,
180,180,180,0,0,-168,180,180,168,180,f,abs,resp,freq_bottom,,,,,0,26,26,956,,,,,,,,,,,0.8777622873724948,,,,,,,,,,,,,,,,,,,,,,385.14369984608857,385.41767438191164,385.4176884933986,386.29962184419855,386.2996365971194,809.5051681720543,809.5051681720543,387.1914309914573,f,1,0.8371118895120162,None,387.1920092417422,387.1920502933426,387.19205927338044,387.1925348946643,,,,,,,,,,,NGS,001,2,24,f,2024-02-09_14h55.39.801,eye_track_exp,2023.1.3,120.11306247385781,
0,0,0,168,0,0,90,180,180,12,None,present,inhibit,freq_bottom,,,,,0,27,27,206,,,,,,,,,,,0.8096688143409664,,,,,,,,,,,,,,,,,,,,,,387.193013402386,387.4238176898398,387.4238311598965,388.23896874529964,388.23898317750354,811.4368432345218,811.4368432345218,389.3390416439652,j,0,1.0505260132486,None,389.3395939162838,389.8453246235549,389.8453361693173,389.84659818532964,812.5192969785057,,,,,,,,,,NGS,001,2,24,f,2024-02-09_14h55.39.801,eye_track_exp,2023.1.3,120.11306247385781,
180,0,180,0,180,0,180,168,0,-168,f,abs,resp,freq_bottom,,,,,0,28,28,862,,,,,,,,,,,0.9337774137979555,,,,,,,,,,,,,,,,,,,,,,389.8471302525613,390.6295032082817,390.62951764048194,391.56990558452526,391.5699366939443,814.7756934112513,814.7756934112513,392.77045452140374,f,1,1.1510908896962064,None,392.7709670249824,392.7717120473935,392.7717226310124,392.77233551858444,,,,,,,,,,,NGS,001,2,24,f,2024-02-09_14h55.39.801,eye_track_exp,2023.1.3,120.11306247385781,
180,168,180,168,180,0,180,0,180,180,f,abs,resp,freq_bottom,,,,,0,29,29,833,,,,,,,,,,,0.7497427297759497,,,,,,,,,,,,,,,,,,,,,,392.77283294852896,393.0019823433213,393.0019967755252,393.7513725827266,393.7513866942136,816.9488471395562,816.9488471395562,394.5189441913135,f,1,0.7211193083057879,None,394.51945380845063,394.51949486005105,394.5195041608058,394.519882925968,,,,,,,,,,,NGS,001,2,24,f,2024-02-09_14h55.39.801,eye_track_exp,2023.1.3,120.11306247385781,
180,180,12,0,0,0,90,0,-168,180,None,present,inhibit,freq_bottom,,,,,0,30,30,220,,,,,,,,,,,0.8894610305547426,,,,,,,,,,,,,,,,,,,,,,394.5203649615614,394.80019672697017,394.80021147988737,395.69082596141743,395.69084007290803,818.8888694677771,818.8888694677771,398.72225320691723,None,1,,,398.72265474288724,398.72269515305743,398.7227044538122,398.7232685926065,,820.3792667606795,820.3792667606795,820.3792667606795,820.3792667606795,821.8696602049968,821.8696602049968,,,,NGS,001,2,24,f,2024-02-09_14h55.39.801,eye_track_exp,2023.1.3,120.11306247385781,
0,12,0,0,0,180,0,168,0,0,None,abs,inhibit,freq_bottom,,,,,0,31,31,386,,,,,,,,,,,0.7619546819863134,,,,,,,,,,,,,,,,,,,,,,398.72375928752444,398.9554830666966,398.9554968574703,399.7213263387421,399.72134109165927,822.9271048647133,822.9271048647133,402.7607275369992,None,1,,,402.76112394152005,402.7611662759846,402.76117525601876,402.76175029914884,,824.4091770212399,824.4091770212399,824.4091770212399,824.4091770212399,825.8995829734631,825.8995829734631,,,,NGS,001,2,24,f,2024-02-09_14h55.39.801,eye_track_exp,2023.1.3,120.11306247385781,
12,180,180,180,0,90,0,0,12,0,j,present,resp,freq_bottom,,,,,0,32,32,593,,,,,,,,,,,0.7684823046506792,,,,,,,,,,,,,,,,,,,,,,402.76224163549705,403.01003551284157,403.0100502657624,403.7841400988509,403.78415485177175,826.9819943829862,826.9819943829862,404.58478678985193,j,1,0.7523752916567901,None,404.5852976898532,404.58533906217053,404.5853483629253,404.5858300778018,,,,,,,,,,,NGS,001,2,24,f,2024-02-09_14h55.39.801,eye_track_exp,2023.1.3,120.11306247385781,
0,0,0,168,180,-168,0,0,0,0,f,abs,resp,freq_bottom,,,,,0,33,33,841,,,,,,,,,,,1.0014476461182205,,,,,,,,,,,,,,,,,,,,,,404.58632013128954,404.81763467731435,404.81764910951824,405.8240897208416,405.8241041530455,829.0219183477238,829.0219183477238,406.7497141621934,f,1,0.8881483301847766,None,406.7503171075841,406.75035815918454,406.75036745993566,406.75082929044584,,,,,,,,,,,NGS,001,2,24,f,2024-02-09_14h55.39.801,eye_track_exp,2023.1.3,120.11306247385781,
180,0,0,180,180,180,270,180,168,180,f,present,resp,freq_bottom,,,,,0,34,34,465,,,,,,,,,,,0.8875204308866333,,,,,,,,,,,,,,,,,,,,,,406.7513170989223,407.0326834886291,407.0326976001197,407.92237334699166,407.9223880999125,831.1284844550755,831.1284844550755,410.96234958837886,None,0,,,410.96273059854866,411.4611602144578,411.46117143950323,411.46166277585144,834.1342615057547,832.6188583357361,832.6188583357361,832.6188583357361,832.6188583357361,834.092620750238,834.092620750238,834.6338415286336,,,NGS,001,2,24,f,2024-02-09_14h55.39.801,eye_track_exp,2023.1.3,120.11306247385781,
0,0,180,0,-168,180,270,0,12,180,None,present,inhibit,freq_bottom,,,,,0,35,35,318,,,,,,,,,,,0.9796474414515244,,,,,,,,,,,,,,,,,,,,,,411.4622374982646,411.46311914553735,411.46313069129974,412.4436860232454,412.44370013473235,835.6496351699352,835.6496351699352,415.4831375738577,None,1,,,415.483517301167,415.484261361431,415.48427226576314,415.48485115747826,,837.131713740775,837.131713740775,837.131713740775,837.131713740775,838.6221440673871,838.6221440673871,,,,NGS,001,2,24,f,2024-02-09_14h55.39.801,eye_track_exp,2023.1.3,120.11306247385781,
180,168,180,180,180,90,180,168,180,180,f,present,resp,freq_bottom,,,,,0,36,36,428,,,,,,,,,,,0.9086697112946984,,,,,,,,,,,,,,,,,,,,,,415.48534634241514,415.48628251134505,415.486292774247,416.3985921225212,416.39860591329125,839.5962924631531,839.5962924631531,417.4408412755911,f,1,1.00078911232049,None,417.4415840529946,417.44162574602524,417.44163472606306,417.44217224546446,,,,,,,,,,,NGS,001,2,24,f,2024-02-09_14h55.39.801,eye_track_exp,2023.1.3,120.11306247385781,
180,180,0,270,0,168,180,180,12,180,None,present,inhibit,freq_bottom,,,,,0,37,37,182,,,,,,,,,,,0.8019013859540313,,,,,,,,,,,,,,,,,,,,,,417.442659733224,417.67359840052814,417.67361315344897,418.4801228469187,418.4801469005906,841.6861755847531,841.6861755847531,421.5203453979084,None,1,,,421.52073025666687,421.52077066683705,421.52077932615794,421.52121582013206,,843.176581216263,843.176581216263,843.176581216263,843.176581216263,844.6586636356915,844.6586636356915,,,,NGS,001,2,24,f,2024-02-09_14h55.39.801,eye_track_exp,2023.1.3,120.11306247385781,
180,180,180,12,0,12,0,270,0,180,j,present,resp,freq_bottom,,,,,0,38,38,619,,,,,,,,,,,1.0184120705720503,,,,,,,,,,,,,,,,,,,,,,421.5217074771972,421.5224152965966,421.5224252387816,422.54363159780405,422.543645709291,845.7410792145165,845.7410792145165,423.94302198152945,f,0,1.3520981292058423,None,423.9435604630744,424.4492972639455,424.4493094511381,424.4503209882423,847.1232372266204,,,,,,,,,,NGS,001,2,24,f,2024-02-09_14h55.39.801,eye_track_exp,2023.1.3,120.11306247385781,
168,180,0,0,168,0,180,0,0,180,f,abs,resp,freq_bottom,,,,,0,39,39,917,,,,,,,,,,,0.7942948721143577,,,,,,,,,,,,,,,,,,,,,,424.4508674876779,424.45183444530994,424.45184502892516,425.2489240792347,425.2489381907217,848.4471115869128,848.4471115869128,426.16622017705595,f,1,0.8702402107228409,None,426.16673043562696,426.16749053167223,426.1675011152911,426.16806140550034,,,,,,,,,,,NGS,001,2,24,f,2024-02-09_14h55.39.801,eye_track_exp,2023.1.3,120.11306247385781,
0,0,180,180,180,0,0,-12,0,12,j,present,resp,freq_bottom,,,,,0,40,40,440,,,,,,,,,,,1.011688585745375,,,,,,,,,,,,,,,,,,,,,,426.16856043902226,426.4152007022385,426.4152148137291,427.43097381773987,427.43098857065706,850.6369030800597,850.6369030800597,428.3480810140536,j,1,0.8721234529148205,None,428.3485944797794,428.3486345692327,428.3486435492705,428.3491916522871,,,,,,,,,,,NGS,001,2,24,f,2024-02-09_14h55.39.801,eye_track_exp,2023.1.3,120.11306247385781,
-12,0,0,0,0,0,270,0,-168,0,None,present,inhibit,freq_bottom,,,,,0,41,41,279,,,,,,,,,,,0.9606600345611567,,,,,,,,,,,,,,,,,,,,,,428.34967144287293,428.57220479489115,428.572219547812,429.53740394166016,429.5374193360112,852.7351209595072,852.7351209595072,432.5691387534498,None,1,,,432.5696342591,432.5696759521343,432.5696849321721,445.8818329668102,,854.2338629524384,854.2338629524384,854.2338629524384,854.2338629524384,855.7076167076193,855.7076167076193,,,,NGS,001,2,24,f,2024-02-09_14h55.39.801,eye_track_exp,2023.1.3,120.11306247385781,
0,-168,0,180,168,0,0,0,180,0,f,abs,resp,freq_bottom,,,,,0,42,42,903,,,,,,,,,,,0.7530152031324899,,,,,,,,,,,,,,,,,,,,,,445.88238620127595,446.1075936802372,446.1076074710072,446.8641070138292,446.8641208045992,870.0704131170132,870.0704131170132,447.89011576872144,f,1,0.9734295031848887,None,447.8906208958433,447.89066226816067,447.8906712481985,447.8909156335103,,,,,,,,,,,NGS,001,2,24,f,2024-02-09_14h55.39.801,eye_track_exp,2023.1.3,120.11306247385781,
0,168,180,180,180,168,0,180,0,180,f,abs,resp,freq_bottom,,,,,0,43,43,762,,,,,,,,,,,0.9401022786335965,,,,,,,,,,,,,,,,,,,,,,447.8914201191983,448.13879257620283,448.13880572554626,449.0790820605471,449.079096492751,872.2852082422651,872.2852082422651,450.02139526052997,f,1,0.8873244117239665,None,450.02192283774275,450.0219638893468,450.0219731900979,450.02242988915896,,,,,,,,,,,NGS,001,2,24,f,2024-02-09_14h55.39.801,eye_track_exp,2023.1.3,120.11306247385781,
180,180,180,0,-12,0,270,0,-168,0,None,present,inhibit,freq_bottom,,,,,0,44,44,331,,,,,,,,,,,0.9744975164717535,,,,,,,,,,,,,,,,,,,,,,450.02292667767324,450.2625073483978,450.26252049773757,451.2358411264577,451.2358632558353,874.4417107356676,874.4417107356676,454.27516310795545,None,1,,,454.27555021172157,454.27559222546915,454.2756015262239,454.2761669478823,,875.9237931550961,875.9237931550961,875.9237931550961,875.9237931550961,877.4142019937608,877.4142019937608,,,,NGS,001,2,24,f,2024-02-09_14h55.39.801,eye_track_exp,2023.1.3,120.11306247385781,
-168,180,0,0,0,0,168,0,0,0,f,abs,resp,freq_bottom,,,,,0,45,45,992,,,,,,,,,,,1.0320817958780524,,,,,,,,,,,,,,,,,,,,,,454.2766730371477,454.2924163260941,454.2924281925734,455.3239997601049,455.3240138715955,878.5215801530903,878.5215801530903,456.1415343741428,f,1,0.7780200343113393,None,456.142039501261,456.1420808735784,456.1420898536162,456.14254975983204,,,,,,,,,,,NGS,001,2,24,f,2024-02-09_14h55.39.801,eye_track_exp,2023.1.3,120.11306247385781,
180,168,180,0,180,180,180,0,180,12,None,abs,inhibit,freq_bottom,,,,,0,46,46,358,,,,,,,,,,,0.8879521100723292,,,,,,,,,,,,,,,,,,,,,,456.1430285882707,456.4157613131647,456.4157757453686,457.30537419977554,457.3053883112625,880.5032073166803,880.5032073166803,460.3368213296417,None,1,,,460.3372296006419,460.3372690486649,460.3372777079894,460.3378620518706,,881.9936273803942,881.9936273803942,881.9936273803942,881.9936273803942,883.4840362190589,883.4840362190589,,,,NGS,001,2,24,f,2024-02-09_14h55.39.801,eye_track_exp,2023.1.3,120.11306247385781,
0,0,0,180,180,180,168,180,180,-168,f,abs,resp,freq_bottom,,,,,0,47,47,805,,,,,,,,,,,0.9945132906722483,,,,,,,,,,,,,,,,,,,,,,460.33836397183404,460.52049196495136,460.5205073593024,461.5184560621201,461.518470494324,884.7163132326968,884.7163132326968,463.0024063293895,f,1,1.447419946500304,None,463.00298329681027,463.0030233862635,463.00303236630134,463.0033469883383,,,,,,,,,,,NGS,001,2,24,f,2024-02-09_14h55.39.801,eye_track_exp,2023.1.3,120.11306247385781,
180,0,180,0,180,180,-168,180,-168,0,f,abs,resp,freq_bottom,,,,,0,48,48,866,,,,,,,,,,,0.7758453987060246,,,,,,,,,,,,,,,,,,,,,,463.0038341553809,463.23444889989696,463.2344623699537,464.0168029333945,464.01681704488146,887.2141931420119,887.2141931420119,464.833977704493,f,1,0.7736576602837886,None,464.83448571805275,464.8345274110834,464.83453671183815,464.83499854234833,,,,,,,,,,,NGS,001,2,24,f,2024-02-09_14h55.39.801,eye_track_exp,2023.1.3,120.11306247385781,
0,0,0,0,168,0,168,0,0,0,f,abs,resp,freq_bottom,,,,,0,49,49,934,,,,,,,,,,,0.7587915175653216,,,,,,,,,,,,,,,,,,,,,,464.83547705007004,465.0911868306466,465.0912009421372,465.8563780878103,465.8563925200142,889.0542984393651,889.0542984393651,466.6906742629253,f,1,0.7893999870793778,None,466.69122717667415,466.6912730390104,466.6912823397615,466.6917903533249,,,,,,,,,,,NGS,001,2,24,f,2024-02-09_14h55.39.801,eye_track_exp,2023.1.3,120.11306247385781,
168,180,180,168,180,0,180,0,180,180,f,abs,resp,freq_bottom,,,,,0,50,50,828,,,,,,,,,,,1.0006160191444762,,,,,,,,,,,,,,,,,,,,,,466.69228682112225,467.1223058684227,467.12232062134353,468.13001683436596,468.13003126656986,891.3356914484721,891.3356914484721,469.17135258931376,f,1,0.9880589467393293,None,469.17189556088124,469.17193661248166,469.1719455925195,469.1725482171896,,,,,,,,,,,NGS,001,2,24,f,2024-02-09_14h55.39.801,eye_track_exp,2023.1.3,120.11306247385781,
0,180,168,0,0,0,0,180,168,180,f,abs,resp,freq_bottom,,,,,0,51,51,969,,,,,,,,,,,0.9399494605472528,,,,,,,,,,,,,,,,,,,,,,469.17302832849236,469.67851400902146,469.67852876193865,470.61940579732254,470.61942119166997,893.8252561635927,893.8252561635927,471.83674612182585,f,1,1.1697761031318805,None,471.8372538146723,471.8372942248425,471.83730288416336,471.8377829954661,,,,,,,,,,,NGS,001,2,24,f,2024-02-09_14h55.39.801,eye_track_exp,2023.1.3,120.11306247385781,
0,0,12,0,0,0,-168,0,90,0,None,present,inhibit,freq_bottom,,,,,0,52,52,230,,,,,,,,,,,0.8436985138245153,,,,,,,,,,,,,,,,,,,,,,471.83826791750107,472.16805851905883,472.16807295126273,473.0168131962964,473.0168273077834,896.2148951885283,896.2148951885283,476.048572061758,None,1,,,476.04895659979957,476.0489973306867,476.04900631072087,476.049557300179,,897.7052892742759,897.7052892742759,897.7052892742759,897.7052892742759,899.1956779078573,899.1956779078573,,,,NGS,001,2,24,f,2024-02-09_14h55.39.801,eye_track_exp,2023.1.3,120.11306247385781,
0,0,0,0,0,0,12,0,270,168,None,present,inhibit,freq_bottom,,,,,0,53,53,268,,,,,,,,,,,1.079817810195543,,,,,,,,,,,,,,,,,,,,,,476.05006531373874,476.0508988536676,476.0509094372828,477.13039463738096,477.13040939029815,900.336358216271,900.336358216271,480.1702262360159,None,1,,,480.1706178298009,480.1706582399711,480.1706672200089,480.17118966577254,,901.8184566714808,901.8184566714808,901.8184566714808,901.8184566714808,903.3088648687153,903.3088648687153,,,,NGS,001,2,24,f,2024-02-09_14h55.39.801,eye_track_exp,2023.1.3,120.11306247385781,
0,270,0,0,0,-12,0,0,-168,0,None,present,inhibit,freq_bottom,,,,,0,54,54,239,,,,,,,,,,,0.7814439401177271,,,,,,,,,,,,,,,,,,,,,,480.1717008864907,480.38605502774953,480.38606881851956,481.16850078591597,481.16851521811986,904.3663079248508,904.3663079248508,484.20020705401475,None,1,,,484.20059960994695,484.2006393786869,484.2006480380078,484.20109960561604,,905.8567010484512,905.8567010484512,905.8567010484512,905.8567010484512,907.3471034728063,907.3471034728063,,,,NGS,001,2,24,f,2024-02-09_14h55.39.801,eye_track_exp,2023.1.3,120.11306247385781,
180,180,180,0,270,0,-12,0,0,-12,j,present,resp,freq_bottom,,,,,0,55,55,418,,,,,,,,,,,0.999416433265552,,,,,,,,,,,,,,,,,,,,,,484.20159543198315,484.2023330779375,484.20234366155273,485.19836839129493,485.19838314421213,908.3962005460526,908.3962005460526,486.0819104517068,j,1,0.838654852417676,None,486.0824290488854,486.08247074191604,486.0824800426708,486.08295662609817,,,,,,,,,,,NGS,001,2,24,f,2024-02-09_14h55.39.801,eye_track_exp,2023.1.3,120.11306247385781,
-12,0,0,0,0,0,270,0,-168,0,None,present,inhibit,freq_bottom,,,,,0,56,56,282,,,,,,,,,,,0.7548990968232363,,,,,,,,,,,,,,,,,,,,,,486.08343288881224,486.29865039655124,486.29866514946843,487.05522049680803,487.05523557044216,910.2529599647496,910.2529599647496,490.0869777586922,None,1,,,490.0873594102959,490.08741874268526,490.0874363820476,490.08780199786634,,911.7433585405124,911.7433585405124,911.7433585405124,911.7433585405124,913.2337728313469,913.2337728313469,,,,NGS,001,2,24,f,2024-02-09_14h55.39.801,eye_track_exp,2023.1.3,120.11306247385781,
180,168,0,168,0,0,0,180,0,180,f,abs,resp,freq_bottom,,,,,0,57,57,948,,,,,,,,,,,0.9908898654150888,,,,,,,,,,,,,,,,,,,,,,490.0882926927843,490.30289506793997,490.30290885871364,491.2929612219523,491.2929753334429,914.4910371205915,914.4910371205915,492.16021926686517,f,1,0.8228804540558485,None,492.16075389982143,492.1607949514255,492.1608042521766,492.16165350716983,,,,,,,,,,,NGS,001,2,24,f,2024-02-09_14h55.39.801,eye_track_exp,2023.1.3,120.11306247385781,
0,0,-12,0,0,0,0,270,0,168,None,present,inhibit,freq_bottom,,,,,0,58,58,301,,,,,,,,,,,0.8687882766778665,,,,,,,,,,,,,,,,,,,,,,492.1621313734613,492.46743854367014,492.4674539380212,493.34161089689223,493.34162564980943,916.5392865424219,916.5392865424219,496.37321870529195,None,1,,,496.37359811188435,496.37364012563194,496.3736494263867,496.37420683015444,,918.0380455332815,918.0380455332815,918.0380455332815,918.0380455332815,919.511772348349,919.511772348349,,,,NGS,001,2,24,f,2024-02-09_14h55.39.801,eye_track_exp,2023.1.3,120.11306247385781,
0,-12,180,180,180,0,90,0,-12,0,j,present,resp,freq_bottom,,,,,0,59,59,447,,,,,,,,,,,0.885868715951911,,,,,,,,,,,,,,,,,,,,,,496.3747183715859,496.63910479287006,496.63911922507396,497.5295149785452,497.5295297314624,920.7357271120491,920.7357271120491,498.43875277539337,j,1,0.865907342533319,None,498.43928869121373,498.4393300635311,498.43933936428584,498.4398666207853,,,,,,,,,,,NGS,001,2,24,f,2024-02-09_14h55.39.801,eye_track_exp,2023.1.3,120.11306247385781,
180,180,180,12,0,180,-168,180,270,0,None,present,inhibit,freq_bottom,,,,,0,60,60,214,,,,,,,,,,,0.8511550545285677,,,,,,,,,,,,,,,,,,,,,,498.44035859856376,498.6795364504542,498.6795508826581,499.5361024776248,499.5361169098287,922.7340279606324,922.7340279606324,502.5680688461034,None,1,,,502.56852297943624,502.56856787962533,502.5685771803801,502.56928628263995,,924.2327683499861,924.2327683499861,924.2327683499861,924.2327683499861,925.7065144079897,925.7065144079897,,,,NGS,001,2,24,f,2024-02-09_14h55.39.801,eye_track_exp,2023.1.3,120.11306247385781,
180,168,0,180,180,180,168,0,0,90,f,present,resp,freq_bottom,,,,,0,61,61,464,,,,,,,,,,,1.0733497905355607,,,,,,,,,,,,,,,,,,,,,,502.5697885233203,502.7672018234625,502.76721561423255,503.84102575122233,503.84104178700363,927.0470505867997,927.0470505867997,504.85005902771445,f,1,0.9545284481246199,None,504.8505965471122,504.85063759871264,504.8506468994674,504.85104041754676,,,,,,,,,,,NGS,001,2,24,f,2024-02-09_14h55.39.801,eye_track_exp,2023.1.3,120.11306247385781,
180,180,0,-168,0,270,0,-168,0,0,f,present,resp,freq_bottom,,,,,0,62,62,700,,,,,,,,,,,1.093265998508764,,,,,,,,,,,,,,,,,,,,,,504.8515214909967,505.082769648885,505.08278343965867,506.18084320629714,506.18085763850104,929.3783854341236,929.3783854341236,507.4139271404638,f,1,1.1838128642011725,None,507.4144470205065,507.4144883928202,507.414497372858,507.41495824122103,,,,,,,,,,,NGS,001,2,24,f,2024-02-09_14h55.39.801,eye_track_exp,2023.1.3,120.11306247385781,
180,180,-168,0,12,180,180,0,0,180,None,abs,inhibit,freq_bottom,,,,,0,63,63,363,,,,,,,,,,,1.0230620316516201,,,,,,,,,,,,,,,,,,,,,,507.41543931467095,507.6471887510925,507.64720318329637,508.67040246925535,508.67043454081795,931.8762877935333,931.8762877935333,511.7101817912444,None,1,,,511.71057081930485,511.71061155018833,511.7106208509431,511.71106247637,,933.3583487250107,933.3583487250107,933.3583487250107,933.3583487250107,934.8487511493659,934.8487511493659,,,,NGS,001,2,24,f,2024-02-09_14h55.39.801,eye_track_exp,2023.1.3,120.11306247385781,
180,180,168,0,0,0,168,0,180,0,f,abs,resp,freq_bottom,,,,,0,64,64,966,,,,,,,,,,,0.8485211005886348,,,,,,,,,,,,,,,,,,,,,,511.7115393805143,511.7122808750537,511.7122911379556,512.5584553950321,512.5584707893831,935.7563209042128,935.7563209042128,513.4006466268584,f,1,0.8046166609601642,None,513.4011732419276,513.401214293528,513.4012235942791,513.4017797151864,,,,,,,,,,,NGS,001,2,24,f,2024-02-09_14h55.39.801,eye_track_exp,2023.1.3,120.11306247385781,
0,180,-168,180,180,0,180,-168,0,180,f,abs,resp,freq_bottom,,,,,0,65,65,812,,,,,,,,,,,0.8873800588242884,,,,,,,,,,,,,,,,,,,,,,513.4022700893875,513.6329977258065,513.6330115165802,514.5234739788975,514.5234884111014,937.7213212072893,937.7213212072893,515.523858837656,f,1,0.9523591275901708,None,515.5243966777707,515.5244367672276,515.5244457472654,515.5251275886985,,,,,,,,,,,NGS,001,2,24,f,2024-02-09_14h55.39.801,eye_track_exp,2023.1.3,120.11306247385781,
180,0,180,-12,180,180,0,270,180,-12,j,present,resp,freq_bottom,,,,,0,66,66,544,,,,,,,,,,,0.8509592306950723,,,,,,,,,,,,,,,,,,,,,,515.5260890941609,515.7726828536142,515.7726966443843,516.630112567982,516.6301270001859,939.836189359492,939.836189359492,517.5559320044376,j,1,0.8690561286093725,None,517.5566167323122,517.5566577839127,517.5566670846674,517.5570253240294,,,,,,,,,,,NGS,001,2,24,f,2024-02-09_14h55.39.801,eye_track_exp,2023.1.3,120.11306247385781,
168,0,168,0,0,90,0,180,180,180,f,present,resp,freq_bottom,,,,,0,67,67,644,,,,,,,,,,,0.8034764269256892,,,,,,,,,,,,,,,,,,,,,,517.5575112082115,517.779556110323,517.7795705425269,518.5870090284661,518.58702346067,941.7845474077039,941.7845474077039,519.3213503282714,f,1,0.6968549257326231,None,519.321857058967,519.3218981105674,519.3219070906052,519.3222858557674,,,,,,,,,,,NGS,001,2,24,f,2024-02-09_14h55.39.801,eye_track_exp,2023.1.3,120.11306247385781,
180,180,180,168,180,180,180,0,168,180,f,abs,resp,freq_bottom,,,,,0,68,68,820,,,,,,,,,,,0.8114879773620954,,,,,,,,,,,,,,,,,,,,,,519.3227707778024,519.5942729168164,519.5942867075901,520.4102757929941,520.4102895837677,943.6163163436395,943.6163163436395,521.2521854364968,f,1,0.7847415925243695,None,521.2527001850867,521.2527412366871,521.252750216725,521.2532139715295,,,,,,,,,,,NGS,001,2,24,f,2024-02-09_14h55.39.801,eye_track_exp,2023.1.3,120.11306247385781,
0,180,0,0,0,0,168,0,168,180,f,abs,resp,freq_bottom,,,,,0,69,69,990,,,,,,,,,,,0.7242987753684488,,,,,,,,,,,,,,,,,,,,,,521.2537046664474,521.6510443944208,521.6510588266246,522.3753748764866,522.375405985902,945.5729722674005,945.5729722674005,523.633437426939,f,1,1.212338274657668,None,523.6340262608392,523.6340666710094,523.6340759717605,523.6345320293913,,,,,,,,,,,NGS,001,2,24,f,2024-02-09_14h55.39.801,eye_track_exp,2023.1.3,120.11306247385781,
0,180,180,168,180,180,0,180,168,180,f,abs,resp,freq_bottom,,,,,0,70,70,831,,,,,,,,,,,0.9651975661343053,,,,,,,,,,,,,,,,,,,,,,523.6350079713884,523.8743468225257,523.8743612547296,524.8401562911422,524.8401704026292,948.0459049905621,948.0459049905621,525.4900557307556,f,1,0.5950447104914929,None,525.4905810629607,525.4906217938478,525.4906307738856,525.4911092816074,,,,,,,,,,,NGS,001,2,24,f,2024-02-09_14h55.39.801,eye_track_exp,2023.1.3,120.11306247385781,
0,180,12,0,0,0,90,180,-12,180,j,present,resp,freq_bottom,,,,,0,71,71,647,,,,,,,,,,,0.8677238844917377,,,,,,,,,,,,,,,,,,,,,,525.4915855443214,525.722683928012,525.722697718782,526.5967247878252,526.5967392200255,949.7943981883436,949.7943981883436,527.5885356348772,j,1,0.9427832002475043,None,527.5890455727313,527.5890869450486,527.5890959250828,527.589563528476,,,,,,,,,,,NGS,001,2,24,f,2024-02-09_14h55.39.801,eye_track_exp,2023.1.3,120.11306247385781,
180,180,180,0,-12,0,270,0,0,-12,j,present,resp,freq_bottom,,,,,0,72,72,735,,,,,,,,,,,1.0797306239736466,,,,,,,,,,,,,,,,,,,,,,527.5900426776316,527.7880810525385,527.7880945225952,528.8702163259004,528.870230437391,952.0674705510901,952.0674705510901,529.6537733637342,j,1,0.7334027170109039,None,529.6542826601581,529.6543253153359,529.6543342953737,529.6548102373708,,,,,,,,,,,NGS,001,2,24,f,2024-02-09_14h55.39.801,eye_track_exp,2023.1.3,120.11306247385781,
168,0,0,0,0,0,90,0,168,0,f,present,resp,freq_bottom,,,,,0,73,73,665,,,,,,,,,,,0.8408423608319264,,,,,,,,,,,,,,,,,,,,,,529.6552893865264,529.8610653467731,529.861079778977,530.701480455431,530.701494566918,953.8992539192259,953.8992539192259,531.5605605724413,f,1,0.821316965349979,None,531.5611141276204,531.5611548585075,531.5611641592586,531.561891863028,,,,,,,,,,,NGS,001,2,24,f,2024-02-09_14h55.39.801,eye_track_exp,2023.1.3,120.11306247385781,
0,180,180,168,180,180,0,180,168,180,f,abs,resp,freq_bottom,,,,,0,74,74,832,,,,,,,,,,,1.0529827894122854,,,,,,,,,,,,,,,,,,,,,,531.5623732571912,531.8007457921303,531.800759582904,532.85799577746,532.8580102096639,956.055774372704,956.055774372704,533.8087829258693,f,1,0.9044894330654643,None,533.8093072959273,533.8093486682446,533.8093576482825,533.809919862786,,,,,,,,,,,NGS,001,2,24,f,2024-02-09_14h55.39.801,eye_track_exp,2023.1.3,120.11306247385781,
12,0,0,0,0,180,90,180,-168,180,None,present,inhibit,freq_bottom,,,,,0,75,75,259,,,,,,,,,,,1.032904539200411,,,,,,,,,,,,,,,,,,,,,,533.8104095955568,534.0322088294961,534.032222940983,535.0642277953339,535.0642422275378,958.262199140674,958.262199140674,538.0955607504366,None,1,,,538.0959289319835,538.0959683800065,538.0959773600443,538.0965273873517,,959.7526179215274,959.7526179215274,959.7526179215274,959.7526179215274,961.2430126487052,961.2430126487052,,,,NGS,001,2,24,f,2024-02-09_14h55.39.801,eye_track_exp,2023.1.3,120.11306247385781,
180,180,180,0,12,0,0,0,-168,180,None,abs,inhibit,freq_bottom,,,,,0,76,76,339,,,,,,,,,,,0.9320898050648955,,,,,,,,,,,,,,,,,,,,,,538.0969949907449,538.3127577150553,538.3127708643988,539.244635469804,539.244649902008,962.4420051526176,962.4420051526176,542.2759251282951,None,1,,,542.2763196085216,542.276360660122,542.2763696401598,542.276930251086,,963.9323992383652,963.9323992383652,963.9323992383652,963.9323992383652,965.4227971727014,965.4227971727014,,,,NGS,001,2,24,f,2024-02-09_14h55.39.801,eye_track_exp,2023.1.3,120.11306247385781,
0,0,0,-12,0,270,0,-12,0,0,j,present,resp,freq_bottom,,,,,0,77,77,714,,,,,,,,,,,0.9689654482223662,,,,,,,,,,,,,,,,,,,,,,542.2774280017475,542.5502107582797,542.5502248697667,543.5239688431175,543.5239839167552,966.72169708601,966.72169708601,544.6996401891338,j,1,1.1339845593138307,None,544.7001392226557,544.7001793121126,544.7001882921504,544.7006533298154,,,,,,,,,,,NGS,001,2,24,f,2024-02-09_14h55.39.801,eye_track_exp,2023.1.3,120.11306247385781,
180,0,180,0,180,168,180,0,180,168,f,abs,resp,freq_bottom,,,,,0,78,78,864,,,,,,,,,,,1.0649287928618745,,,,,,,,,,,,,,,,,,,,,,544.7011212539219,544.9313870598307,544.9314014920346,545.9966969497073,545.9967117026245,969.1945788153862,969.1945788153862,546.7979594147218,f,1,0.7573505532564013,None,546.7984671075646,546.7985081591687,546.7985171392065,546.7990184177361,,,,,,,,,,,NGS,001,2,24,f,2024-02-09_14h55.39.801,eye_track_exp,2023.1.3,120.11306247385781,
180,12,0,168,0,0,90,180,180,180,None,present,inhibit,freq_bottom,,,,,0,79,79,197,,,,,,,,,,,0.7790586103420528,,,,,,,,,,,,,,,,,,,,,,546.7995033397747,547.0213170059142,547.0213307966878,547.8034154290544,547.8034295405414,971.0013944715683,971.0013944715683,550.835124904308,None,1,,,550.8355062351948,550.8355546632556,550.8355636432934,550.836125857797,,972.5001242773069,972.5001242773069,972.5001242773069,972.5001242773069,973.9738700145972,973.9738700145972,,,,NGS,001,2,24,f,2024-02-09_14h55.39.801,eye_track_exp,2023.1.3,120.11306247385781,
180,0,0,180,-168,90,0,12,0,180,None,present,inhibit,freq_bottom,,,,,0,80,80,307,,,,,,,,,,,1.062763719760528,,,,,,,,,,,,,,,,,,,,,,550.836614628417,551.0347302957925,551.0347437658493,552.1002390293615,552.1002531408485,975.3060781705863,975.3060781705863,555.1395815366595,None,1,,,555.1399994291278,555.1400404807282,555.140049460766,555.1407527901465,,976.7881480821052,976.7881480821052,976.7881480821052,976.7881480821052,978.2785322256677,978.2785322256677,,,,NGS,001,2,24,f,2024-02-09_14h55.39.801,eye_track_exp,2023.1.3,120.11306247385781,
180,168,0,0,0,0,12,0,90,180,None,present,inhibit,freq_bottom,,,,,0,81,81,250,,,,,,,,,,,0.9011742547993062,,,,,,,,,,,,,,,,,,,,,,555.1412569551212,555.331144342239,555.3311571708655,556.237847202734,556.2378613142246,979.4358830119199,979.4358830119199,559.2694566147147,None,1,,,559.2698337762959,559.2698738657491,559.2698828457869,559.2705005440948,,980.9262982648979,980.9262982648979,980.9262982648979,980.9262982648979,982.4083800428925,982.4083800428925,,,,NGS,001,2,24,f,2024-02-09_14h55.39.801,eye_track_exp,2023.1.3,120.11306247385781,
0,-168,180,180,180,-168,0,90,180,180,f,present,resp,freq_bottom,,,,,0,82,82,443,,,,,,,,,,,0.8667282216667461,,,,,,,,,,,,,,,,,,,,,,559.2709870697108,559.4609283370555,559.4609414863953,560.3267761953321,560.3267909482529,983.532406229966,983.532406229966,561.352038965666,f,1,0.9788524838040757,None,561.3525485828068,561.3525896344072,561.352598614445,579.38552777125,,,,,,,,,,,NGS,001,2,24,f,2024-02-09_14h55.39.801,eye_track_exp,2023.1.3,120.11306247385781,
0,0,0,0,0,90,0,-12,0,-12,j,present,resp,freq_bottom,,,,,0,83,83,670,,,,,,,,,,,1.013748388632577,,,,,,,,,,,,,,,,,,,,,,579.3860787607045,579.6105829102853,579.6105976632025,580.6260109357645,580.6260266508289,1003.831859377744,1003.831859377744,581.7339939647754,j,1,1.062751693141763,None,581.7345099962258,581.7345539342678,581.7345632350225,581.7350337248536,,,,,,,,,,,NGS,001,2,24,f,2024-02-09_14h55.39.801,eye_track_exp,2023.1.3,120.11306247385781,
0,0,180,180,180,90,0,168,0,12,None,present,inhibit,freq_bottom,,,,,0,84,84,23,,,,,,,,,,,0.745193639886589,,,,,,,,,,,,,,,,,,,,,,581.7355321169453,581.9584188975932,581.9584326883632,582.7069701449036,582.7069855392547,1005.9050915851622,1005.9050915851622,585.7390529331533,None,1,,,585.7394313775985,585.7394717877687,585.7394810885235,585.7399798013321,,1007.3954994616797,1007.3954994616797,1007.3954994616797,1007.3954994616797,1008.8858909817027,1008.8858909817027,,,,NGS,001,2,24,f,2024-02-09_14h55.39.801,eye_track_exp,2023.1.3,120.11306247385781,
180,0,0,168,0,12,0,90,180,180,None,present,inhibit,freq_bottom,,,,,0,85,85,199,,,,,,,,,,,0.996571134692645,,,,,,,,,,,,,,,,,,,,,,585.7404708169634,585.9304521737649,585.9304653231047,586.928942244569,586.9289557146258,1010.1348480946472,1010.1348480946472,589.9683059190975,None,1,,,589.9686869292673,589.9687350366112,589.968744016649,589.9691926978194,,1011.6169324383663,1011.6169324383663,1011.6169324383663,1011.6169324383663,1013.1073092054685,1013.1073092054685,,,,NGS,001,2,24,f,2024-02-09_14h55.39.801,eye_track_exp,2023.1.3,120.11306247385781,
180,12,0,12,0,0,0,180,270,180,j,present,resp,freq_bottom,,,,,0,86,86,622,,,,,,,,,,,0.8202430808984646,,,,,,,,,,,,,,,,,,,,,,589.9696740919826,589.9778741492628,589.9778853743082,590.800563625653,590.8005783785702,1013.9982225939675,1013.9982225939675,591.5516132477387,j,1,0.7043394664360676,None,591.5521222234456,591.552163275046,591.5521722550839,591.5526950215644,,,,,,,,,,,NGS,001,2,24,f,2024-02-09_14h55.39.801,eye_track_exp,2023.1.3,120.11306247385781,
-168,0,0,0,0,0,90,0,-168,0,f,present,resp,freq_bottom,,,,,0,87,87,671,,,,,,,,,,,0.8959301500385466,,,,,,,,,,,,,,,,,,,,,,591.5531786607389,591.8335117046772,591.8335261368811,592.73212355121,592.7321379834102,1015.9299152957974,1015.9299152957974,593.9661821401824,f,1,1.188347462521051,None,593.9666830979986,593.9667231874519,593.9667318467764,593.9671048390555,,,,,,,,,,,NGS,001,2,24,f,2024-02-09_14h55.39.801,eye_track_exp,2023.1.3,120.11306247385781,
180,168,180,168,180,180,180,180,270,180,f,present,resp,freq_bottom,,,,,0,88,88,486,,,,,,,,,,,0.7325420125716652,,,,,,,,,,,,,,,,,,,,,,593.967592647532,594.1895871972883,594.189600988062,594.9219432673308,594.9219576995347,1018.1197215418615,1018.1197215418615,595.7054781757834,f,1,0.741707648303418,None,595.7059900379318,595.706030448102,595.7060394281398,595.706629224187,,,,,,,,,,,NGS,001,2,24,f,2024-02-09_14h55.39.801,eye_track_exp,2023.1.3,120.11306247385781,
168,0,0,0,0,-168,0,0,180,180,f,abs,resp,freq_bottom,,,,,0,89,89,1006,,,,,,,,,,,0.9454422491647035,,,,,,,,,,,,,,,,,,,,,,595.7071112597805,595.9467297749507,595.9467432450074,596.8953912201541,596.8954053316411,1020.093028059091,1020.093028059091,597.7628525987748,f,1,0.8171062898145465,None,597.7633458594173,597.7633865903044,597.7633955703423,597.764081260364,,,,,,,,,,,NGS,001,2,24,f,2024-02-09_14h55.39.801,eye_track_exp,2023.1.3,120.11306247385781,
180,168,180,180,0,180,180,12,180,0,None,abs,inhibit,freq_bottom,,,,,0,90,90,360,,,,,,,,,,,0.9670599369516547,,,,,,,,,,,,,,,,,,,,,,597.7645597680857,598.0119764838491,598.0119902746192,598.9856460511728,598.9856604833767,1022.1829515908612,1022.1829515908612,602.0164690684214,None,1,,,602.0168417399873,602.0168811880103,602.0168895266142,602.0176104953571,,1023.6733450351785,1023.6733450351785,1023.6733450351785,1023.6733450351785,1025.1637445730921,1025.1637445730921,,,,NGS,001,2,24,f,2024-02-09_14h55.39.801,eye_track_exp,2023.1.3,120.11306247385781,
180,0,180,12,180,180,0,180,0,168,None,abs,inhibit,freq_bottom,,,,,0,91,91,344,,,,,,,,,,,0.9193686645003115,,,,,,,,,,,,,,,,,,,,,,602.0180909273731,602.0188324219125,602.0188423640975,602.9405794112754,602.9405935227624,1026.1379231161263,1026.1379231161263,605.9713014031004,None,1,,,605.9716820925569,605.9717228234404,605.9717318034782,605.9722048590338,,1027.6282857717415,1027.6282857717415,1027.6282857717415,1027.6282857717415,1029.1187173812177,1029.1187173812177,,,,NGS,001,2,24,f,2024-02-09_14h55.39.801,eye_track_exp,2023.1.3,120.11306247385781,
270,0,0,0,0,-12,0,0,-12,0,j,present,resp,freq_bottom,,,,,0,92,92,663,,,,,,,,,,,0.756785084137938,,,,,,,,,,,,,,,,,,,,,,605.9726974782461,606.1545002657149,606.1545130943377,606.9120402100452,606.9120543215322,1030.11787935127,1030.11787935127,608.4373111586283,j,1,1.4632254542739247,None,608.4378307179504,608.4378711281206,608.4378797874451,608.4383461079742,,1031.5999386791736,1031.5999386791736,1031.5999386791736,1031.5999386791736,,,,,,NGS,001,2,24,f,2024-02-09_14h55.39.801,eye_track_exp,2023.1.3,120.11306247385781,
180,0,180,-168,180,180,-168,0,180,0,f,abs,resp,freq_bottom,,,,,0,93,93,885,,,,,,,,,,,0.7760624890940063,,,,,,,,,,,,,,,,,,,,,,608.4388230121185,608.6690641229216,608.6690788758424,609.4515249547258,609.451539707643,1032.6573791695846,1032.6573791695846,610.1680623676475,f,1,0.66782086027888,None,610.168569739777,610.1686107913774,610.1686197714153,610.1691781373302,,,,,,,,,,,NGS,001,2,24,f,2024-02-09_14h55.39.801,eye_track_exp,2023.1.3,120.11306247385781,
12,0,0,0,0,168,180,270,180,180,None,present,inhibit,freq_bottom,,,,,0,94,94,264,,,,,,,,,,,0.8212734892870241,,,,,,,,,,,,,,,,,,,,,,610.1696887166145,610.4259017000186,610.4259154907922,611.2494583914777,611.2494721822513,1034.447524027215,1034.447524027215,614.2815370104254,None,1,,,614.281966448656,614.2820068588262,614.2820155181471,614.2823727953619,,1035.937920678687,1035.937920678687,1035.937920678687,1035.937920678687,1037.4283234237555,1037.4283234237555,,,,NGS,001,2,24,f,2024-02-09_14h55.39.801,eye_track_exp,2023.1.3,120.11306247385781,
180,180,180,180,90,168,0,0,168,0,f,present,resp,freq_bottom,,,,,0,95,95,415,,,,,,,,,,,1.041817010765646,,,,,,,,,,,,,,,,,,,,,,614.2828920339707,614.5637500894009,614.5637645216048,615.6125796858105,615.6125937972974,1038.8104888123162,1038.8104888123162,616.7130368018006,f,1,1.0584521793789463,None,616.7135958091458,616.7136371814631,616.7136464822142,616.7141047848527,,,,,,,,,,,NGS,001,2,24,f,2024-02-09_14h55.39.801,eye_track_exp,2023.1.3,120.11306247385781,
180,180,180,168,0,180,0,168,0,270,f,present,resp,freq_bottom,,,,,0,96,96,614,,,,,,,,,,,0.8914707587087217,,,,,,,,,,,,,,,,,,,,,,616.7145893861743,616.9542374071825,616.9542518393864,617.8443672873909,617.8443813988779,1041.0502429902008,1041.0502429902008,618.8034510284888,f,1,0.9143235364936118,None,618.8039648149315,618.8040065079622,618.8040158087169,618.8042743055157,,,,,,,,,,,NGS,001,2,24,f,2024-02-09_14h55.39.801,eye_track_exp,2023.1.3,120.11306247385781,
0,0,-168,180,180,180,180,-168,0,0,f,abs,resp,freq_bottom,,,,,0,97,97,814,,,,,,,,,,,0.7733591637248123,,,,,,,,,,,,,,,,,,,,,,618.8047605104148,619.1519547457428,619.1519688572298,619.9259079539734,619.9259227068942,1043.1318198976478,1043.1318198976478,620.6758039619308,f,1,0.7048817965733178,None,620.6763575171099,620.676402417299,620.6764210188048,620.6769351259645,,,,,,,,,,,NGS,001,2,24,f,2024-02-09_14h55.39.801,eye_track_exp,2023.1.3,120.11306247385781,
0,0,0,0,0,0,12,0,270,168,None,present,inhibit,freq_bottom,,,,,0,98,98,269,,,,,,,,,,,0.9989515807199543,,,,,,,,,,,,,,,,,,,,,,620.6774559681508,620.925548111034,620.925562222521,621.9241587709148,621.9241728824054,1045.1301364612955,1045.1301364612955,624.9640275725651,None,1,,,624.964409865599,624.9644515586297,624.9644608593844,624.9650224324578,,1046.6205087383787,1046.6205087383787,1046.6205087383787,1046.6205087383787,1048.1025754427428,1048.1025754427428,,,,NGS,001,2,24,f,2024-02-09_14h55.39.801,eye_track_exp,2023.1.3,120.11306247385781,
180,0,180,168,180,180,168,180,180,0,f,abs,resp,freq_bottom,,,,,0,99,99,836,,,,,,,,,,,0.9821852798683584,,,,,,,,,,,,,,,,,,,,,,624.9655185795382,625.147008348551,625.1470214978908,626.1292519275812,626.129266680502,1049.3265600329978,1049.3265600329978,626.9129253851897,f,1,0.7342526134380023,None,626.9134744503499,626.9135167848144,626.9135260855692,626.9142938787918,,,,,,,,,,,NGS,001,2,24,f,2024-02-09_14h55.39.801,eye_track_exp,2023.1.3,120.11306247385781,
180,180,180,12,0,180,-168,180,270,0,None,present,inhibit,freq_bottom,,,,,0,100,100,210,,,,,,,,,,,0.8119618065569075,,,,,,,,,,,,,,,,,,,,,,626.9147964401855,627.5698924351855,627.5699078295365,628.385536109854,628.3855505420579,1051.5829821229927,1051.5829821229927,631.4167805474426,None,1,,,631.4171961949032,631.4172462265415,631.4172555272962,631.4178116481999,,1053.0733701151403,1053.0733701151403,1053.0733701151403,1053.0733701151403,1054.5637568244274,1054.5637568244274,,,,NGS,001,2,24,f,2024-02-09_14h55.39.801,eye_track_exp,2023.1.3,120.11306247385781,
0,180,0,0,168,180,180,168,180,0,f,abs,resp,freq_bottom,,,,,0,101,101,919,,,,,,,,,,,0.9184340325339372,,,,,,,,,,,,,,,,,,,,,,631.4183090781444,631.6330949026415,631.6331096555623,632.5566481624446,632.5566625946485,1055.76275606337,1055.76275606337,633.282564262594,f,1,0.6811449912129319,None,633.2831582279432,633.2831986381134,633.2832079388681,633.2836928609031,,,,,,,,,,,NGS,001,2,24,f,2024-02-09_14h55.39.801,eye_track_exp,2023.1.3,120.11306247385781,
0,0,0,0,12,180,180,180,90,168,None,present,inhibit,freq_bottom,,,,,0,102,102,169,,,,,,,,,,,0.7055496630201551,,,,,,,,,,,,,,,,,,,,,,633.2841963844439,633.5394315058875,633.5394456173744,634.2470818886432,634.247096320847,1057.4446658095003,1057.4446658095003,637.2782483923329,None,1,,,637.2786662848011,637.2787070156883,637.2787163164394,637.279268588758,,1058.9350480287721,1058.9350480287721,1058.9350480287721,1058.9350480287721,1060.4255139548186,1060.4255139548186,,,,NGS,001,2,24,f,2024-02-09_14h55.39.801,eye_track_exp,2023.1.3,120.11306247385781,
0,0,180,0,-168,180,270,0,12,180,None,present,inhibit,freq_bottom,,,,,0,103,103,316,,,,,,,,,,,0.7464700797193141,,,,,,,,,,,,,,,,,,,,,,637.2797503036381,637.4942243925434,637.4942375418832,638.2435001364647,638.2435148893856,1061.4412424908442,1061.4412424908442,641.2748228286691,None,1,,,641.2752022352615,641.2752426454317,641.2752516254695,641.2760845239645,,1062.9316747417543,1062.9316747417543,1062.9316747417543,1062.9316747417543,1064.4220755625283,1064.4220755625283,,,,NGS,001,2,24,f,2024-02-09_14h55.39.801,eye_track_exp,2023.1.3,120.11306247385781,
180,180,12,180,180,90,180,168,0,0,None,present,inhibit,freq_bottom,,,,,0,104,104,35,,,,,,,,,,,0.7214120107664159,,,,,,,,,,,,,,,,,,,,,,641.2765797089014,641.2773282591843,641.2773388428031,641.9989913493373,641.9990054608279,1065.1964187609665,1065.1964187609665,645.0303714496404,None,1,,,645.0307492526554,645.0307893421086,645.0307986428597,645.0312434754414,,1066.6868202231744,1066.6868202231744,1066.6868202231744,1066.6868202231744,1068.177219761088,1068.177219761088,,,,NGS,001,2,24,f,2024-02-09_14h55.39.801,eye_track_exp,2023.1.3,120.11306247385781,
0,180,0,180,180,12,180,90,180,168,None,present,inhibit,freq_bottom,,,,,0,105,105,43,,,,,,,,,,,0.7421581138889952,,,,,,,,,,,,,,,,,,,,,,645.0317274353329,645.3125851700461,645.31259960225,646.0622800892997,646.0622948422206,1069.2679511755377,1069.2679511755377,649.1017877651502,None,1,,,649.1021639645842,649.1022043747544,649.1022133547922,649.1026703745665,,1070.7500275013663,1070.7500275013663,1070.7500275013663,1070.7500275013663,1072.2404257564158,1072.2404257564158,,,,NGS,001,2,24,f,2024-02-09_14h55.39.801,eye_track_exp,2023.1.3,120.11306247385781,
0,180,0,180,180,168,0,0,90,12,None,present,inhibit,freq_bottom,,,,,0,106,106,44,,,,,,,,,,,0.7476944462317441,,,,,,,,,,,,,,,,,,,,,,649.1031504858693,649.1040475274931,649.1040577903914,649.8505205375077,649.850536573289,1073.0564010510498,1073.0564010510498,652.8900731135436,None,1,,,652.8904531615663,652.8904932510231,652.890502231061,652.8910391090285,,1074.538448833191,1074.538448833191,1074.538448833191,1074.538448833191,1076.0288788390862,1076.0288788390862,,,,NGS,001,2,24,f,2024-02-09_14h55.39.801,eye_track_exp,2023.1.3,120.11306247385781,
180,180,180,168,180,180,180,0,168,180,f,abs,resp,freq_bottom,,,,,0,107,107,817,,,,,,,,,,,0.9615537072549981,,,,,,,,,,,,,,,,,,,,,,652.8915249932106,652.8921661037602,652.8921763666585,653.8552170972216,653.8552312087122,1077.0530171804166,1077.0530171804166,654.9386531931887,f,1,1.0388391356209468,None,654.939165376054,654.9392057862242,654.939215086979,654.9397753771882,,,,,,,,,,,NGS,001,2,24,f,2024-02-09_14h55.39.801,eye_track_exp,2023.1.3,120.11306247385781,
0,180,168,0,0,0,0,180,168,180,f,abs,resp,freq_bottom,,,,,0,108,108,971,,,,,,,,,,,1.0484421935341213,,,,,,,,,,,,,,,,,,,,,,654.9402567713514,655.2302122463989,655.2302253957387,656.2780902795275,656.2781043910145,1079.4759561094252,1079.4759561094252,657.0119485815885,f,1,0.6950983662172803,None,657.0124646130389,657.0125047024958,657.0125133618167,657.0131612073928,,,,,,,,,,,NGS,001,2,24,f,2024-02-09_14h55.39.801,eye_track_exp,2023.1.3,120.11306247385781,
12,180,0,0,0,0,-168,0,90,0,None,present,inhibit,freq_bottom,,,,,0,109,109,246,,,,,,,,,,,1.0198192915769293,,,,,,,,,,,,,,,,,,,,,,657.013652543741,657.2525016621112,657.2525164150284,658.2762015851695,658.2762163380903,1081.474258240869,1081.474258240869,661.3074598135318,None,1,,,661.3078299193694,661.3078706502565,661.3078793095774,661.3083267078837,,1082.96465938236,1082.96465938236,1082.96465938236,1082.96465938236,1084.455056033832,1084.455056033832,,,,NGS,001,2,24,f,2024-02-09_14h55.39.801,eye_track_exp,2023.1.3,120.11306247385781,
180,168,0,12,180,180,270,180,0,0,None,present,inhibit,freq_bottom,,,,,0,110,110,98,,,,,,,,,,,0.8761973060020201,,,,,,,,,,,,,,,,,,,,,,661.3088042534619,661.5078015681065,661.50781471745,662.3893439665553,662.3893580780423,1085.5874326938174,1085.5874326938174,665.4212003295688,None,1,,,665.4215771704366,665.4216175806068,665.421626881358,665.4221663250537,,1087.0778389667576,1087.0778389667576,1087.0778389667576,1087.0778389667576,1088.568237221807,1088.568237221807,,,,NGS,001,2,24,f,2024-02-09_14h55.39.801,eye_track_exp,2023.1.3,120.11306247385781,
180,0,90,180,180,180,-12,180,-168,0,None,present,inhibit,freq_bottom,,,,,0,111,111,5,,,,,,,,,,,0.7675493340595568,,,,,,,,,,,,,,,,,,,,,,665.4226525299491,665.637609616595,665.6376243695158,666.4111292172929,666.4111436494932,1089.6089783699754,1089.6089783699754,669.4427379878362,None,1,,,669.4431343923607,669.4431757646744,669.4431847447122,669.4438531160886,,1091.1077505101784,1091.1077505101784,1091.1077505101784,1091.1077505101784,1092.5814933610272,1092.5814933610272,,,,NGS,001,2,24,f,2024-02-09_14h55.39.801,eye_track_exp,2023.1.3,120.11306247385781,
-168,0,0,0,0,90,0,12,180,180,None,present,inhibit,freq_bottom,,,,,0,112,112,277,,,,,,,,,,,0.7572803576405644,,,,,,,,,,,,,,,,,,,,,,669.4443576017802,669.742312366121,669.7423264776116,670.4994209479264,670.4994363422775,1093.697219427544,1093.697219427544,673.530792388905,None,1,,,673.531160249735,673.5312000184749,673.5312086777958,673.5319799988902,,1095.1876035711066,1095.1876035711066,1095.1876035711066,1095.1876035711066,1096.678006316175,1096.678006316175,,,,NGS,001,2,24,f,2024-02-09_14h55.39.801,eye_track_exp,2023.1.3,120.11306247385781,
180,-12,0,180,0,90,180,12,180,180,j,present,resp,freq_bottom,,,,,0,113,113,610,,,,,,,,,,,0.9810038345735745,,,,,,,,,,,,,,,,,,,,,,673.532469731661,673.7308679495072,673.7308820609978,674.7124486093307,674.712463362248,1097.9102919891338,1097.9102919891338,675.604328314028,j,1,0.851973851902585,None,675.6048379311687,675.6048786620522,675.60488764209,675.605364225521,,,,,,,,,,,NGS,001,2,24,f,2024-02-09_14h55.39.801,eye_track_exp,2023.1.3,120.11306247385781,
180,180,-168,180,180,90,180,12,0,180,None,present,inhibit,freq_bottom,,,,,0,114,114,62,,,,,,,,,,,1.0070633666613542,,,,,,,,,,,,,,,,,,,,,,675.6058497889862,675.8291945515557,675.8292086630427,676.8362400325605,676.8362544647644,1100.0418171491146,1100.0418171491146,679.8754876080311,None,1,,,679.8758769568085,679.8759356477676,679.8759446278054,679.8764827886371,,1101.5238973235319,1101.5238973235319,1101.5238973235319,1101.5238973235319,1103.014294295721,1103.014294295721,,,,NGS,001,2,24,f,2024-02-09_14h55.39.801,eye_track_exp,2023.1.3,120.11306247385781,
0,180,0,0,-168,180,12,180,270,180,None,present,inhibit,freq_bottom,,,,,0,115,115,330,,,,,,,,,,,0.7085917092131071,,,,,,,,,,,,,,,,,,,,,,679.876991443627,680.1337788287274,680.133792619501,680.8403381369062,680.840352889827,1104.0384287884626,1104.0384287884626,683.8723423498268,None,1,,,683.872734905759,683.8727753159292,683.8727839752537,683.873324381093,,1105.5288158184667,1105.5288158184667,1105.5288158184667,1105.5288158184667,1107.0192246571314,1107.0192246571314,,,,NGS,001,2,24,f,2024-02-09_14h55.39.801,eye_track_exp,2023.1.3,120.11306247385781,
180,180,180,180,12,0,-168,0,90,0,None,present,inhibit,freq_bottom,,,,,0,116,116,151,,,,,,,,,,,0.8586380208754905,,,,,,,,,,,,,,,,,,,,,,683.8738096238449,684.0725375373622,684.072550686702,684.9370364656897,684.9370512186069,1108.1349561758143,1108.1349561758143,687.9686182961232,None,1,,,687.9689954577043,687.9690361885914,687.9690451686292,687.9696468311558,,1109.6253364707882,1109.6253364707882,1109.6253364707882,1109.6253364707882,1111.1157504409057,1111.1157504409057,,,,NGS,001,2,24,f,2024-02-09_14h55.39.801,eye_track_exp,2023.1.3,120.11306247385781,
0,180,180,180,90,12,180,180,12,0,j,present,resp,freq_bottom,,,,,0,117,117,417,,,,,,,,,,,0.9617067627355019,,,,,,,,,,,,,,,,,,,,,,687.9701391296512,688.2346182377514,688.2346317078081,689.2002532370643,689.2002673485513,1112.3979757070738,1112.3979757070738,690.2008856882894,j,1,0.9561406856082613,None,690.2013831182376,690.2014235284041,690.2014325084419,690.2019366734166,,,,,,,,,,,NGS,001,2,24,f,2024-02-09_14h55.39.801,eye_track_exp,2023.1.3,120.11306247385781,
168,0,0,0,168,0,0,0,0,0,f,abs,resp,freq_bottom,,,,,0,118,118,929,,,,,,,,,,,0.9850062979660383,,,,,,,,,,,,,,,,,,,,,,690.2024171054327,690.4166503368979,690.4166644483848,691.4064980835647,691.4065121950516,1114.6044585245763,1114.6044585245763,692.3408735716548,f,1,0.8933314155146945,None,692.341384792373,692.3414255232565,692.3414341825774,692.3419152560273,,,,,,,,,,,NGS,001,2,24,f,2024-02-09_14h55.39.801,eye_track_exp,2023.1.3,120.11306247385781,
168,180,0,180,180,180,168,180,0,180,f,abs,resp,freq_bottom,,,,,0,119,119,794,,,,,,,,,,,0.7784340117335329,,,,,,,,,,,,,,,,,,,,,,692.3424017816396,692.6561020799381,692.6561171535723,693.4386318655997,693.4386462978036,1116.6360576736515,1116.6360576736515,694.2300605479068,f,1,0.7499263070931192,None,694.2306035194706,694.2306452125013,694.2306541925391,694.2312295563825,,,,,,,,,,,NGS,001,2,24,f,2024-02-09_14h55.39.801,eye_track_exp,2023.1.3,120.11306247385781,
0,0,0,0,168,0,0,0,0,168,f,abs,resp,freq_bottom,,,,,0,120,120,933,,,,,,,,,,,0.910807744636612,,,,,,,,,,,,,,,,,,,,,,694.2317266656137,694.4472895840881,694.4473036955751,695.3617470278477,695.3617611393383,1118.5593947711168,1118.5593947711168,696.228334456373,f,1,0.8258666373076267,None,696.2288819179594,696.22892361099,696.2289325910278,696.2293941008211,,,,,,,,,,,NGS,001,2,24,f,2024-02-09_14h55.39.801,eye_track_exp,2023.1.3,120.11306247385781,
180,0,168,0,0,90,0,180,168,180,f,present,resp,freq_bottom,,,,,0,121,121,640,,,,,,,,,,,0.8030428282367519,,,,,,,,,,,,,,,,,,,,,,696.2298674770936,696.4371873623932,696.4372008324499,697.2432070023788,697.2432214345827,1120.4411603876433,1120.4411603876433,698.1441674494818,f,1,0.8646610415889882,None,698.1446847637962,698.1447248532495,698.1447338332873,698.1452168310279,,,,,,,,,,,NGS,001,2,24,f,2024-02-09_14h55.39.801,eye_track_exp,2023.1.3,120.11306247385781,
180,-12,180,180,180,180,270,180,180,-12,j,present,resp,freq_bottom,,,,,0,122,122,445,,,,,,,,,,,0.7475932961360838,,,,,,,,,,,,,,,,,,,,,,698.1457261274518,698.3854665145627,698.3854806260497,699.1334792803282,699.133494033249,1122.3395499782418,1122.3395499782418,699.8762313475818,j,1,0.6944312777013693,None,699.8767438511604,699.8767849027608,699.8767935620854,699.8774545570013,,,,,,,,,,,NGS,001,2,24,f,2024-02-09_14h55.39.801,eye_track_exp,2023.1.3,120.11306247385781,
180,180,180,168,0,0,0,90,180,168,f,present,resp,freq_bottom,,,,,0,123,123,613,,,,,,,,,,,0.8564133965915205,,,,,,,,,,,,,,,,,,,,,,699.8779462140665,700.0836108859876,700.0836246767612,700.9403526653259,700.9403667768129,1124.1380215758254,1124.1380215758254,701.7237807754718,f,1,0.7356839673047944,None,701.7242846197296,701.7243253506167,701.7243343306545,701.724909053064,,,,,,,,,,,NGS,001,2,24,f,2024-02-09_14h55.39.801,eye_track_exp,2023.1.3,120.11306247385781,
0,180,180,0,168,0,0,0,168,0,f,abs,resp,freq_bottom,,,,,0,124,124,905,,,,,,,,,,,0.9371088498788929,,,,,,,,,,,,,,,,,,,,,,701.7253875607894,701.9812144025709,701.9812285140579,702.9221773897407,702.9221921426615,1126.1196779245365,1126.1196779245365,703.8061213068395,f,1,0.849920951139211,None,703.8066488840559,703.8066899356563,703.8066989156941,745.0206284294545,,,,,,,,,,,NGS,001,2,24,f,2024-02-09_14h55.39.801,eye_track_exp,2023.1.3,120.11306247385781,
0,180,0,12,180,0,180,0,-168,180,None,abs,inhibit,freq_bottom,,,,,0,125,125,338,,,,,,,,,,,0.8560565407379441,,,,,,,,,,,,,,,,,,,,,,745.0211890403771,745.0220110345435,745.0220219388757,745.8770138937216,745.8770286466424,1169.0748717057322,1169.0748717057322,748.9087345940243,None,1,,,748.9091386957225,748.9091803887532,748.9091900102212,748.9097054002414,,1170.5652580943024,1170.5652580943024,1170.5652580943024,1170.5652580943024,1172.0556537836273,1172.0556537836273,,,,NGS,001,2,24,f,2024-02-09_14h55.39.801,eye_track_exp,2023.1.3,120.11306247385781,
180,0,180,0,-12,180,180,-12,180,90,j,present,resp,freq_bottom,,,,,0,126,126,739,,,,,,,,,,,0.7393864115553686,,,,,,,,,,,,,,,,,,,,,,748.9101938501517,749.0994574453653,749.0994705947087,749.8399773318197,749.8399920847405,1173.0381337300823,1173.0381337300823,750.9569330220693,j,1,1.0823426075294265,None,750.9574477706592,750.9574901051237,750.9574990851615,750.9579567463661,,,,,,,,,,,NGS,001,2,24,f,2024-02-09_14h55.39.801,eye_track_exp,2023.1.3,120.11306247385781,
0,180,0,180,180,12,180,90,180,168,None,present,inhibit,freq_bottom,,,,,0,127,127,45,,,,,,,,,,,0.7233177390056927,,,,,,,,,,,,,,,,,,,,,,750.9584358955217,751.1814416616689,751.1814557731559,751.9055033840305,751.9055178162344,1175.1114008955046,1175.1114008955046,753.2720781442877,f,0,1.311507717386121,None,753.2726984083201,753.7779749822585,753.7779871694511,753.7793421929964,1176.4519136620693,,,,,,,,,,NGS,001,2,24,f,2024-02-09_14h55.39.801,eye_track_exp,2023.1.3,120.11306247385781,
-12,180,180,180,0,-12,180,270,0,0,j,present,resp,freq_bottom,,,,,0,128,128,597,,,,,,,,,,,0.7682472575971433,,,,,,,,,,,,,,,,,,,,,,753.7798777881035,753.970132715338,753.970146506108,754.7442376220606,754.7442517335476,1177.9423318014888,1177.9423318014888,755.4790282444665,j,1,0.6887841168536397,None,755.4795631981397,755.480330349932,755.4803406128303,755.4809425960739,,,,,,,,,,,NGS,001,2,24,f,2024-02-09_14h55.39.801,eye_track_exp,2023.1.3,120.11306247385781,
12,180,180,168,180,180,180,0,0,0,None,abs,inhibit,freq_bottom,,,,,0,129,129,371,,,,,,,,,,,0.8523492829263025,,,,,,,,,,,,,,,,,,,,,,755.4814377810071,755.694183212654,755.694197324141,756.5516145305992,756.5516299249502,1179.7490906910061,1179.7490906910061,759.5826921960615,None,1,,,759.5830767341031,759.5831184271337,759.5831274071716,759.5837989857064,,1181.2395604656413,1181.2395604656413,1181.2395604656413,1181.2395604656413,1182.7299154240827,1182.7299154240827,,,,NGS,001,2,24,f,2024-02-09_14h55.39.801,eye_track_exp,2023.1.3,120.11306247385781,
180,-12,180,0,180,90,180,180,-168,0,None,present,inhibit,freq_bottom,,,,,0,130,130,133,,,,,,,,,,,0.9593497394576319,,,,,,,,,,,,,,,,,,,,,,759.5842874356131,759.7905807101743,759.7905954630951,760.75610762832,760.7561223812372,1183.962213604951,1183.962213604951,763.795709273847,None,1,,,763.7961178655605,763.7961585964476,763.7961675764855,763.7967278666947,,1185.4526121807176,1185.4526121807176,1185.4526121807176,1185.4526121807176,1186.9263665773287,1186.9263665773287,,,,NGS,001,2,24,f,2024-02-09_14h55.39.801,eye_track_exp,2023.1.3,120.11306247385781,
180,0,180,0,180,168,0,0,180,168,f,abs,resp,freq_bottom,,,,,0,131,131,865,,,,,,,,,,,0.8318958745799414,,,,,,,,,,,,,,,,,,,,,,763.7972490295942,763.9870927993907,763.9871059487305,764.8194460792038,764.8194605114077,1188.0254314667582,1188.0254314667582,765.5616866050259,f,1,0.6850734369872953,None,765.5621837142535,765.5622270108652,765.562235990903,765.5627895460821,,,,,,,,,,,NGS,001,2,24,f,2024-02-09_14h55.39.801,eye_track_exp,2023.1.3,120.11306247385781,
180,180,180,12,180,168,0,0,90,0,None,present,inhibit,freq_bottom,,,,,0,132,132,90,,,,,,,,,,,1.0523596862953781,,,,,,,,,,,,,,,,,,,,,,765.5632715816791,765.7856137871822,765.7856285400994,766.8430013595134,766.8430157917173,1190.040388360976,1190.040388360976,769.8738821055776,None,1,,,769.8742634364644,769.8743044880648,769.8743137888159,769.8748715133006,,1191.5307904646106,1191.5307904646106,1191.5307904646106,1191.5307904646106,1193.0211813432034,1193.0211813432034,,,,NGS,001,2,24,f,2024-02-09_14h55.39.801,eye_track_exp,2023.1.3,120.11306247385781,
180,12,0,180,-168,90,0,180,0,180,None,present,inhibit,freq_bottom,,,,,0,133,133,305,,,,,,,,,,,0.7533916828342673,,,,,,,,,,,,,,,,,,,,,,769.8753602839242,770.0820477179986,770.0820611880554,770.83942954952,770.8394439817239,1194.0453232124055,1194.0453232124055,773.8785658366651,None,1,,,773.878953902582,773.8789965577598,773.8790052170807,773.8795343978745,,1195.535721788172,1195.535721788172,1195.535721788172,1195.535721788172,1197.0094633561566,1197.0094633561566,,,,NGS,001,2,24,f,2024-02-09_14h55.39.801,eye_track_exp,2023.1.3,120.11306247385781,
0,180,0,180,180,12,180,180,0,168,None,abs,inhibit,freq_bottom,,,,,0,134,134,348,,,,,,,,,,,0.8906349987026603,,,,,,,,,,,,,,,,,,,,,,773.8800513914757,774.04584052672,774.0458539967767,774.9361269161564,774.9361413483603,1198.141839374708,1198.141839374708,777.9758376050013,None,1,,,777.9762474795789,777.9762898140398,777.9762987940776,777.9770370814622,,1199.623918907695,1199.623918907695,1199.623918907695,1199.623918907695,1201.114314276303,1201.114314276303,,,,NGS,001,2,24,f,2024-02-09_14h55.39.801,eye_track_exp,2023.1.3,120.11306247385781,
0,180,168,0,168,0,180,0,0,180,f,abs,resp,freq_bottom,,,,,0,135,135,913,,,,,,,,,,,0.9258246114305032,,,,,,,,,,,,,,,,,,,,,,777.9775511886219,778.166945635814,778.1669594265877,779.0990680965879,779.0990825287918,1202.2966452824185,1202.2966452824185,779.9241773724243,f,1,0.7816508559772046,None,779.9246850652671,779.9247261168675,779.9247350969054,779.9252110389061,,,,,,,,,,,NGS,001,2,24,f,2024-02-09_14h55.39.801,eye_track_exp,2023.1.3,120.11306247385781,
180,168,180,168,180,0,180,0,180,180,f,abs,resp,freq_bottom,,,,,0,136,136,834,,,,,,,,,,,0.7902433564998163,,,,,,,,,,,,,,,,,,,,,,779.9256908294919,780.2406714245917,780.2406855360787,781.0305305245929,781.0305449567968,1204.2366531784392,1204.2366531784392,781.6899795928657,f,1,0.6013724299118621,None,781.6905337894786,781.6905754825093,781.6905844625471,781.6909622655621,,,,,,,,,,,NGS,001,2,24,f,2024-02-09_14h55.39.801,eye_track_exp,2023.1.3,120.11306247385781,
0,0,12,0,0,0,90,0,0,168,None,present,inhibit,freq_bottom,,,,,0,137,137,227,,,,,,,,,,,1.025653809141605,,,,,,,,,,,,,,,,,,,,,,781.6914401318536,782.0631248542777,782.0631389657647,783.0952724270828,783.0952862178565,1206.2932434517097,1206.2932434517097,784.1460253551377,f,0,1.008493663950503,None,784.1465388208635,784.6517259151406,784.6517377816162,784.6528121789852,1207.3257146265896,,,,,,,,,,NGS,001,2,24,f,2024-02-09_14h55.39.801,eye_track_exp,2023.1.3,120.11306247385781,
180,12,180,0,180,0,180,0,180,168,None,abs,inhibit,freq_bottom,,,,,0,138,138,342,,,,,,,,,,,1.0740665481794627,,,,,,,,,,,,,,,,,,,,,,784.6533657341643,785.3771920512554,785.3772071248932,786.4509406108409,786.4509556844787,1209.6487352418699,1209.6487352418699,789.4822366836488,None,1,,,789.4826276360036,789.4833928635016,789.4834056921281,789.4840471233911,,1211.1474525396989,1211.1474525396989,1211.1474525396989,1211.1474525396989,1212.6212078984572,1212.6212078984572,,,,NGS,001,2,24,f,2024-02-09_14h55.39.801,eye_track_exp,2023.1.3,120.11306247385781,
180,0,180,0,-12,180,-12,180,270,180,j,present,resp,freq_bottom,,,,,0,139,139,738,,,,,,,,,,,0.8634460836367273,,,,,,,,,,,,,,,,,,,,,,789.4845400633167,789.7321193819043,789.7321334933913,790.5976134908415,790.5976276023284,1213.8035408288633,1213.8035408288633,791.7979004030458,j,1,1.1463382047440973,None,791.7984093787527,791.79845075107,791.7984597311079,791.7987159828954,,,,,,,,,,,NGS,001,2,24,f,2024-02-09_14h55.39.801,eye_track_exp,2023.1.3,120.11306247385781,
180,180,180,0,12,90,0,0,12,0,j,present,resp,freq_bottom,,,,,0,140,140,571,,,,,,,,,,,1.044461982624271,,,,,,,,,,,,,,,,,,,,,,791.7992172614286,792.0385577161469,792.0385721483508,793.0868943726273,793.0869088048312,1216.2930818110326,1216.2930818110326,793.8788076562523,j,1,0.736065939621767,None,793.8793673050313,793.879408998062,793.8794179780998,793.8798772428854,,,,,,,,,,,NGS,001,2,24,f,2024-02-09_14h55.39.801,eye_track_exp,2023.1.3,120.11306247385781,
180,180,180,270,0,0,12,0,-12,180,j,present,resp,freq_bottom,,,,,0,141,141,591,,,,,,,,,,,0.7693539169404727,,,,,,,,,,,,,,,,,,,,,,793.8803541470297,794.2948172033175,794.2948319562347,795.0687184556155,795.0687325671024,1218.2664130233643,1218.2664130233643,796.1436789995751,j,1,1.0355136352300178,None,796.1441847681272,796.1442267818747,796.1442357619126,796.1448031078653,,,,,,,,,,,NGS,001,2,24,f,2024-02-09_14h55.39.801,eye_track_exp,2023.1.3,120.11306247385781,
168,0,168,0,0,0,0,0,0,0,f,abs,resp,freq_bottom,,,,,0,142,142,975,,,,,,,,,,,1.0385691060437119,,,,,,,,,,,,,,,,,,,,,,796.145281615587,796.3685962308882,796.3686100216582,797.4086693283934,797.4086831191671,1220.6144209142512,1220.6144209142512,798.2171110128293,f,1,0.7506257878849283,None,798.2176350621739,798.2176761137744,798.2176854145291,798.2181417928732,,,,,,,,,,,NGS,001,2,24,f,2024-02-09_14h55.39.801,eye_track_exp,2023.1.3,120.11306247385781,
180,-12,180,-12,180,180,270,180,0,180,j,present,resp,freq_bottom,,,,,0,143,143,548,,,,,,,,,,,0.7945593903774139,,,,,,,,,,,,,,,,,,,,,,798.2186126034212,798.4492414594242,798.4492716066925,799.2486434530583,799.2486578852586,1222.4461597029149,1222.4461597029149,799.915568723427,j,1,0.6307329838782607,None,799.9160780198508,799.9161190714512,799.9161280514891,799.9166020691955,,,,,,,,,,,NGS,001,2,24,f,2024-02-09_14h55.39.801,eye_track_exp,2023.1.3,120.11306247385781,
180,0,180,0,180,180,180,12,180,168,None,abs,inhibit,freq_bottom,,,,,0,144,144,346,,,,,,,,,,,1.0005874090505162,,,,,,,,,,,,,,,,,,,,,,799.917129325695,802.1386123340199,802.138627407654,803.1451100327249,803.1451241442119,1226.3428889486859,1226.3428889486859,806.1763207951699,None,1,,,806.1766921838716,806.1767338769059,806.1767428569437,806.1773060335909,,1227.8332795065617,1227.8332795065617,1227.8332795065617,1227.8332795065617,1229.3236777616112,1229.3236777616112,,,,NGS,001,2,24,f,2024-02-09_14h55.39.801,eye_track_exp,2023.1.3,120.11306247385781,
12,0,0,0,0,168,180,270,180,180,None,present,inhibit,freq_bottom,,,,,0,145,145,266,,,,,,,,,,,1.0262963899725783,,,,,,,,,,,,,,,,,,,,,,806.1777806927275,806.1785055100554,806.1785157729573,807.2082416220255,807.2082560542294,1230.4060991133192,1230.4060991133192,810.2399267228939,None,1,,,810.2402910558521,810.2403484639508,810.2403574439886,810.240907150579,,1231.904834050507,1231.904834050507,1231.904834050507,1231.904834050507,1233.3785650348764,1233.3785650348764,,,,NGS,001,2,24,f,2024-02-09_14h55.39.801,eye_track_exp,2023.1.3,120.11306247385781,
0,-12,0,180,-12,0,0,180,90,0,j,present,resp,freq_bottom,,,,,0,146,146,734,,,,,,,,,,,0.7251846486960413,,,,,,,,,,,,,,,,,,,,,,810.2413911104704,810.2421255492663,810.2421358121683,810.9635994171986,810.9636135286855,1234.1612282382412,1234.1612282382412,812.0474947779476,j,1,1.0435799540937296,None,812.0480576338814,812.0480980440516,812.0481073448063,812.048580400362,,,,,,,,,,,NGS,001,2,24,f,2024-02-09_14h55.39.801,eye_track_exp,2023.1.3,120.11306247385781,
0,-12,0,180,180,180,90,180,0,12,j,present,resp,freq_bottom,,,,,0,147,147,476,,,,,,,,,,,1.0327157349031748,,,,,,,,,,,,,,,,,,,,,,812.0490537766345,812.3125463634533,812.3125604749439,813.3448693677128,813.3448837999167,1236.542557521152,1236.542557521152,814.1115936455972,j,1,0.7259399849717738,None,814.1121109599117,814.1121513700818,814.1121606708366,814.1127068495553,,,,,,,,,,,NGS,001,2,24,f,2024-02-09_14h55.39.801,eye_track_exp,2023.1.3,120.11306247385781,
168,0,168,0,0,0,0,180,0,180,f,abs,resp,freq_bottom,,,,,0,148,148,974,,,,,,,,,,,1.0532580328369296,,,,,,,,,,,,,,,,,,,,,,814.1131879230052,814.3369727074205,814.3369868189111,815.3930344413311,815.393049194252,1238.5907957179334,1238.5907957179334,816.4272220862767,f,1,0.9973503993132908,None,816.427727213395,816.4277679442821,816.4277772450332,816.4281550480482,,,,,,,,,,,NGS,001,2,24,f,2024-02-09_14h55.39.801,eye_track_exp,2023.1.3,120.11306247385781,
180,0,180,-12,180,180,-12,180,180,270,j,present,resp,freq_bottom,,,,,0,149,149,545,,,,,,,,,,,0.7242872518142434,,,,,,,,,,,,,,,,,,,,,,816.428635159351,816.9335079523044,816.9335227052252,817.6577749326752,817.6577909684565,1240.863894058646,1240.863894058646,818.7241585784868,j,1,1.0125231351485127,None,818.7246627434615,818.7247037950619,818.7247130958131,818.7252855732186,,,,,,,,,,,NGS,001,2,24,f,2024-02-09_14h55.39.801,eye_track_exp,2023.1.3,120.11306247385781,
0,0,168,0,0,0,0,0,168,0,f,abs,resp,freq_bottom,,,,,0,150,150,979,,,,,,,,,,,0.9353059164163895,,,,,,,,,,,,,,,,,,,,,,818.7257595909214,819.024754115344,819.0247688682648,819.964159065974,819.9641734981778,1243.1702547797067,1243.1702547797067,820.8057890454475,f,1,0.7863551128721156,None,820.8062925689883,820.8063342620189,820.8063435627737,820.8068955143754,,,,,,,,,,,NGS,001,2,24,f,2024-02-09_14h55.39.801,eye_track_exp,2023.1.3,120.11306247385781,
