ori10,ori11,ori12,ori13,ori14,ori16,ori17,ori18,ori19,ori20,corrAns,distractor,responses,dist_freq,practice_trials.thisRepN,practice_trials.thisTrialN,practice_trials.thisN,practice_trials.thisIndex,trials.thisRepN,trials.thisTrialN,trials.thisN,trials.thisIndex,intro_2.started,intro_2.stopped,key_resp.keys,key_resp.rt,key_resp.duration,start_et_record_2.started,start_et_record_2.stopped,fix_check_2.started,fix_check_2.stopped,fix_practice_2.started,fixdur,fix_practice_2.stopped,practice_search_2.started,int14_2.started,per15_2.started,practice_search_2.stopped,response_2.keys,response_2.corr,feedback_4.started,text_feedback.started,feedback_4.stopped,pause_pract_2.started,pause_pract_2.stopped,response_2.rt,response_2.duration,text_feedback.stopped,stop_et_record_2.started,stop_et_record_2.stopped,break_3.started,break_3.stopped,key_resp_2.keys,key_resp_2.rt,key_resp_2.duration,fixation_2.started,fixation_2.stopped,search_displays_2.started,int14.started,per15.started,search_displays_2.stopped,response.keys,response.corr,response.rt,response.duration,feedback_6.started,feedback_6.stopped,pause_4.started,pause_4.stopped,int14.stopped,int14_3.started,per15.stopped,per15_3.started,int14_3.stopped,per15_3.stopped,text_feedback_2.started,text_feedback_2.stopped,end_2.started,end_2.stopped,participant,session,group,age,gender,date,expName,psychopyVersion,frameRate,
,,,,,,,,,,,,,,,,,,,,,,1.0583449579826265e-05,34.34665287183509,space,34.33585623684985,None,,,,,,,,,,,,,,,,,,,,,,,,,,,,,,,,,,,,,,,,,,,,,,,,,,,,,s1,001,1,m,27,2024-01-19_13h07.43.352,eye_track_exp,2023.1.3,120.12975855194534,
90,0,180,180,180,168,0,168,0,0,f,present,resp,freq_top,0,0,0,44,,,,,,,,,,88.45880953511073,88.9605840268166,89.06695282603766,89.12625189379605,89.12626696719394,0.748788461711252,89.87385009217223,89.87386259988534,169.9529376448811,169.9529376448811,92.88728177247765,None,0,92.88767688792711,172.95033507842663,93.37826050423405,93.37827076697295,93.37937016288254,,,,,,,,,,,,,,,,,,,,,,,,,,,,,,,,,,,s1,001,1,m,27,2024-01-19_13h07.43.352,eye_track_exp,2023.1.3,120.12975855194534,
180,180,168,0,270,0,0,168,0,180,f,present,resp,freq_top,0,1,1,47,,,,,,,,,,,,93.3799217851008,94.47854446139229,94.47855761052654,1.0129876195126062,95.49399790126995,95.49401072969363,175.57309699956,175.57309699956,98.49910072749992,None,0,98.49932875273089,178.55383191429587,98.99836148958525,98.99837175232426,98.99953945958987,,,,,,,,,,,,,,,,,,,,,,,,,,,,,,,,,,,s1,001,1,m,27,2024-01-19_13h07.43.352,eye_track_exp,2023.1.3,120.12975855194534,
0,180,0,12,0,180,180,180,0,12,j,abs,resp,freq_top,0,2,2,4,,,,,,,,,,,,99.00010006170476,99.00116001021149,99.00117027295039,0.777992185418722,99.78194437852062,99.78195784836544,179.861018140674,179.861018140674,101.48115889413862,f,0,101.48165054347623,181.53456490476822,101.97953930564881,101.97954860625589,101.97984109431593,1.6628620571057127,None,182.03416177155407,,,,,,,,,,,,,,,,,,,,,,,,,,,,,,,,s1,001,1,m,27,2024-01-19_13h07.43.352,eye_track_exp,2023.1.3,120.12975855194534,
90,0,0,12,0,180,180,180,0,12,j,present,resp,freq_top,0,3,3,36,,,,,,,,,,,,101.98037347389868,101.98119064448724,101.98120090722614,0.920934614514056,102.90418738991616,102.90419989762916,182.9833438954022,182.9833438954022,104.91149446004522,j,1,104.91188155772988,,104.91262496488218,104.91263426548937,104.91312046274697,1.9631065027189152,None,,,,,,,,,,,,,,,,,,,,,,,,,,,,,,,,,s1,001,1,m,27,2024-01-19_13h07.43.352,eye_track_exp,2023.1.3,120.12975855194534,
90,0,180,168,180,180,0,168,0,0,f,present,resp,freq_top,0,4,4,46,,,,,,,,,,,,104.91360152863501,105.12774768799738,105.12776051642106,0.7480565849221678,105.87674771237141,105.87676086150566,185.95577817859476,185.95577817859476,107.30948700416536,j,0,107.30987634682413,187.37123309374124,107.81578992943082,107.81580019216983,107.81637298128715,1.3912362211734717,None,,,,,,,,,,,,,,,,,,,,,,,,,,,,,,,,,s1,001,1,m,27,2024-01-19_13h07.43.352,eye_track_exp,2023.1.3,120.12975855194534,
0,180,180,180,168,0,0,0,0,12,None,abs,inhibit,freq_top,0,5,5,31,,,,,,,,,,,,107.81691626503016,107.81782034818912,107.81783061092801,1.0165916893823208,108.83253134304618,108.83254417146986,188.91155282937302,188.91155282937302,111.83759343903102,None,1,111.83781953999846,,111.8386232407421,111.83863286205985,111.84012256275992,,,,,,,,,,,,,,,,,,,,,,,,,,,,,,,,,,,s1,001,1,m,27,2024-01-19_13h07.43.352,eye_track_exp,2023.1.3,120.12975855194534,
168,0,180,0,0,180,180,0,168,0,f,abs,resp,freq_top,0,6,6,13,,,,,,,,,,,,111.84063185118009,112.17186142993307,112.17187554119914,0.8448610917389598,113.02043022684506,113.02045107303354,193.09959956075477,193.09959956075477,114.95334975799176,j,0,114.95371825446205,195.01462215802314,115.45917322092214,115.45918412508229,115.46005998570911,1.8949898179428146,None,,,,,,,,,,,,,,,,,,,,,,,,,,,,,,,,,s1,001,1,m,27,2024-01-19_13h07.43.352,eye_track_exp,2023.1.3,120.12975855194534,
0,180,0,-168,180,0,180,0,12,180,None,abs,inhibit,freq_top,0,7,7,24,,,,,,,,,,,,115.46063181269483,115.59377128716562,115.59378475701044,0.9287558797883327,116.5256340769115,116.52564658462461,196.60490860389552,196.60490860389552,119.53094889284296,None,1,119.53117916304802,,119.53195335841724,119.53196330044557,119.5326274920817,,,,,,,,,,,,,,,,,,,,,,,,,,,,,,,,,,,s1,001,1,m,27,2024-01-19_13h07.43.352,eye_track_exp,2023.1.3,120.12975855194534,
0,0,0,0,168,0,0,12,0,0,None,abs,inhibit,freq_top,0,8,8,29,,,,,,,,,,,,119.53312427278877,119.75684909540371,119.75686192382739,1.0385083996344635,120.79701521066204,120.79702900121742,200.87622559552756,200.87622559552756,123.81059249357622,None,1,123.81082180164947,,123.81086221118414,123.81087119108065,123.81141960619311,,,,,,,,,,,,,,,,,,,,,,,,,,,,,,,,,,,s1,001,1,m,27,2024-01-19_13h07.43.352,eye_track_exp,2023.1.3,120.12975855194534,
180,180,0,168,180,180,180,0,0,168,f,abs,resp,freq_top,0,9,9,18,,,,,,,,,,,,123.81190676558242,123.8128002652918,123.81281020732013,1.0659558537800553,124.8766915880177,124.87670409573082,204.95604116128027,204.95604116128027,126.14385666032513,f,1,126.14421489405652,,126.14425402074869,126.14426235922406,126.14451347561771,1.2213936644174055,None,,,,,,,,,,,,,,,,,,,,,,,,,,,,,,,,,s1,001,1,m,27,2024-01-19_13h07.43.352,eye_track_exp,2023.1.3,120.12975855194534,
12,0,0,12,0,0,90,180,180,0,j,present,resp,freq_top,0,10,10,38,,,,,,,,,,,,126.14501634982605,126.14580465646122,126.14581459848955,0.8419207988072476,127.00807132347006,127.00808447260431,207.08752384483262,207.08752384483262,128.2756103443278,j,1,128.2759887828264,,128.27602790951858,128.27603656870463,128.27642366638918,1.233731721603931,None,,,,,,,,,,,,,,,,,,,,,,,,,,,,,,,,,s1,001,1,m,27,2024-01-19_13h07.43.352,eye_track_exp,2023.1.3,120.12975855194534,
0,0,0,-168,0,12,0,0,0,0,None,abs,inhibit,freq_top,0,11,11,21,,,,,,,,,,,,128.27694995247066,128.5569896307852,128.5570021384982,0.8612196674750033,129.42293773467998,129.42295152523548,209.50210738930036,209.50210738930036,132.43649673709047,None,1,132.43673149724384,,132.4367731896208,132.43678216951741,132.43727029103843,,,,,,,,,,,,,,,,,,,,,,,,,,,,,,,,,,,s1,001,1,m,27,2024-01-19_13h07.43.352,eye_track_exp,2023.1.3,120.12975855194534,
0,0,180,0,168,0,0,0,180,168,f,abs,resp,freq_top,0,12,12,17,,,,,,,,,,,,132.4377661096138,132.71198104215546,132.71199387057914,0.7387565732196485,133.45265702311303,133.45267081366842,213.53195207557485,213.53195207557485,135.06913269593178,f,1,135.06949413676898,,135.06953294275058,135.06954128122607,135.06993671738599,1.57366923435211,None,,,,,,,,,,,,,,,,,,,,,,,,,,,,,,,,,s1,001,1,m,27,2024-01-19_13h07.43.352,eye_track_exp,2023.1.3,120.12975855194534,
180,270,0,0,0,0,0,168,0,168,f,present,resp,freq_top,0,13,13,43,,,,,,,,,,,,135.07041938682698,135.268593837995,135.26860634570812,0.9509510687719531,136.22499772295487,136.22501055137855,216.30456986936827,216.30456986936827,137.6755832763538,f,1,137.67594824500748,,137.6759880131209,137.67599635159638,137.6763266835061,1.4090946697808704,None,,,,,,,,,,,,,,,,,,,,,,,,,,,,,,,,,s1,001,1,m,27,2024-01-19_13h07.43.352,eye_track_exp,2023.1.3,120.12975855194534,
180,12,180,12,180,90,180,180,0,180,j,present,resp,freq_top,0,14,14,37,,,,,,,,,,,,137.6768208985285,137.95800294797175,137.95801705923782,1.0602744521329206,139.02312483723938,139.02314568342786,219.10214343717087,219.10214343717087,140.2399149347226,j,1,140.2402776584022,,140.24031710580505,140.24032544428042,140.24068303659055,1.170369571354854,None,,,,,,,,,,,,,,,,,,,,,,,,,,,,,,,,,s1,001,1,m,27,2024-01-19_13h07.43.352,eye_track_exp,2023.1.3,120.12975855194534,
0,0,0,-168,0,0,0,12,0,0,None,abs,inhibit,freq_top,0,15,15,23,,,,,,,,,,,,140.24116249892563,140.25633082708703,140.25634173124706,0.8418284156426776,141.09616795741988,141.096180465133,221.17536679670422,221.17536679670422,144.10973658114813,None,1,144.109962361405,,144.11000405378195,144.1100136750997,144.11068588450064,,,,,,,,,,,,,,,,,,,,,,,,,,,,,,,,,,,s1,001,1,m,27,2024-01-19_13h07.43.352,eye_track_exp,2023.1.3,120.12975855194534,
12,0,0,12,0,0,180,0,180,180,j,abs,resp,freq_top,0,16,16,6,,,,,,,,,,,,144.11116855394164,144.14449615724573,144.14452117267194,0.7846867288595498,144.9343252056717,144.9343380340954,225.01371647131123,225.01371647131123,146.0846826696976,j,1,146.08504667621958,,146.08508387864822,146.08509189641302,146.0854915018108,1.114325716105668,None,,,,,,,,,,,,,,,,,,,,,,,,,,,,,,,,,s1,001,1,m,27,2024-01-19_13h07.43.352,eye_track_exp,2023.1.3,120.12975855194534,
90,0,0,12,0,0,0,12,0,0,j,present,resp,freq_top,0,17,17,34,,,,,,,,,,,,146.0859809061742,146.32553023082187,146.32554337995612,0.7174305414713799,147.04948917216905,147.0495023213033,227.12853888102802,227.12853888102802,148.26619812987246,j,1,148.26655700502488,,148.2665954902959,148.2666035080607,148.26685911440268,1.175640770645714,None,,,,,,,,,,,,,,,,,,,,,,,,,,,,,,,,,s1,001,1,m,27,2024-01-19_13h07.43.352,eye_track_exp,2023.1.3,120.12975855194534,
0,180,0,180,168,180,12,180,0,180,None,abs,inhibit,freq_top,0,18,18,28,,,,,,,,,,,,148.26735557439906,148.46581898581053,148.4658318142342,1.0879813065944988,149.55546465192003,149.55547780105428,229.6347157670308,229.6347157670308,152.56906791239214,None,1,152.56930042757142,,152.56934115781655,152.56935013771317,152.5704341395143,,,,,,,,,,,,,,,,,,,,,,,,,,,,,,,,,,,s1,001,1,m,27,2024-01-19_13h07.43.352,eye_track_exp,2023.1.3,120.12975855194534,
180,0,180,0,12,0,12,180,180,180,j,abs,resp,freq_top,0,19,19,7,,,,,,,,,,,,152.5709248267201,152.77009829138228,152.77011111980596,1.0253330381373327,153.8020734581197,153.80208628654339,233.8810519692272,233.8810519692272,155.0524076385566,f,0,155.0527690793939,235.11332661551546,155.5578911482594,155.5579014109984,155.55859767369373,1.207132305810319,None,,,,,,,,,,,,,,,,,,,,,,,,,,,,,,,,,s1,001,1,m,27,2024-01-19_13h07.43.352,eye_track_exp,2023.1.3,120.12975855194534,
168,0,270,180,180,180,180,168,180,180,f,present,resp,freq_top,0,20,20,49,,,,,,,,,,,,155.55914191956833,155.64249556457253,155.64250775157507,0.9148670324380317,156.55799986915008,156.55801269757376,236.6369963400508,236.6369963400508,157.7908434560287,f,1,157.79120297260238,,157.79192938209337,157.79193900341113,157.79246721375625,1.1866921369369265,None,,,,,,,,,,,,,,,,,,,,,,,,,,,,,,,,,s1,001,1,m,27,2024-01-19_13h07.43.352,eye_track_exp,2023.1.3,120.12975855194534,
180,0,180,0,168,180,0,180,12,180,None,abs,inhibit,freq_top,0,21,21,30,,,,,,,,,,,,157.7929572595408,157.99941374103776,157.99942624875086,0.9067800134265699,158.905845463677,158.9058589335218,238.98495739039083,238.98495739039083,161.91933134407248,None,1,161.91957540483304,,161.91961549365703,161.91962479426422,161.92058275680256,,,,,,,,,,,,,,,,,,,,,,,,,,,,,,,,,,,s1,001,1,m,27,2024-01-19_13h07.43.352,eye_track_exp,2023.1.3,120.12975855194534,
0,180,0,0,180,168,180,0,0,168,f,abs,resp,freq_top,0,22,22,16,,,,,,,,,,,,161.92111513638542,161.92214076885875,161.92215103159776,0.9782666180153019,162.90238595852065,162.90239878694433,242.98153829476905,242.98153829476905,164.56920934576328,j,0,164.56959836771136,244.63011324932427,165.07467232998818,165.07468163059525,165.07545037388445,1.6258222286987802,None,,,,,,,,,,,,,,,,,,,,,,,,,,,,,,,,,s1,001,1,m,27,2024-01-19_13h07.43.352,eye_track_exp,2023.1.3,120.12975855194534,
180,0,180,12,0,180,180,0,12,180,j,abs,resp,freq_top,0,23,23,3,,,,,,,,,,,,165.07598563986255,165.2256538968261,165.22566576311806,0.8150099509803825,166.0414656345772,166.0414794251327,246.12046627471557,246.12046627471557,167.07457675823173,j,1,167.0749555174409,,167.07568705830136,167.0756966796191,167.07631693390408,0.9985924883075086,None,,,,,,,,,,,,,,,,,,,,,,,,,,,,,,,,,s1,001,1,m,27,2024-01-19_13h07.43.352,eye_track_exp,2023.1.3,120.12975855194534,
180,180,0,168,180,180,180,180,168,180,f,abs,resp,freq_top,0,24,24,10,,,,,,,,,,,,167.07682750516665,167.30788377191573,167.3078969210501,0.7935144585947813,168.1057495070678,168.10576297691273,248.18537457072887,248.18537457072887,169.72268155105905,f,1,169.72307474224488,,169.72311483106887,169.72312316954435,169.72354297970935,1.5739046359267377,None,,,,,,,,,,,,,,,,,,,,,,,,,,,,,,,,,s1,001,1,m,27,2024-01-19_13h07.43.352,eye_track_exp,2023.1.3,120.12975855194534,
0,0,168,0,0,0,0,0,180,168,f,abs,resp,freq_top,0,25,25,19,,,,,,,,,,,,169.72406188944728,169.98921546492136,169.98922957618743,0.9520208443656184,170.94519986042678,170.94521300956103,251.02457027987782,251.02457027987782,172.01163570099004,f,1,172.01199970751202,,172.01203915491476,172.0120478141008,172.0124916775602,1.0223215443022582,None,,,,,,,,,,,,,,,,,,,,,,,,,,,,,,,,,s1,001,1,m,27,2024-01-19_13h07.43.352,eye_track_exp,2023.1.3,120.12975855194534,
12,0,0,-168,0,0,180,180,180,180,None,abs,inhibit,freq_top,0,26,26,27,,,,,,,,,,,,172.0129672913681,172.23639706023846,172.2364102093727,0.8205719929230431,173.06012778392835,173.0601409330626,253.13942540207495,253.13942540207495,176.07380448712604,None,1,176.07403571946293,,176.07407805326102,176.0740873538682,176.07498373997305,,,,,,,,,,,,,,,,,,,,,,,,,,,,,,,,,,,s1,001,1,m,27,2024-01-19_13h07.43.352,eye_track_exp,2023.1.3,120.12975855194534,
180,180,180,-168,180,180,12,180,0,180,None,abs,inhibit,freq_top,0,27,27,22,,,,,,,,,,,,176.075485331339,176.349946890326,176.34996164301322,0.8053768206437371,177.15729283057885,177.15730694184492,257.2359012416632,257.2359012416632,180.16194441700588,None,1,180.16217500792152,,180.16221509674563,180.16222471806338,180.16282188118578,,,,,,,,,,,,,,,,,,,,,,,,,,,,,,,,,,,s1,001,1,m,27,2024-01-19_13h07.43.352,eye_track_exp,2023.1.3,120.12975855194534,
180,270,180,12,180,0,12,180,0,180,j,present,resp,freq_top,0,28,28,33,,,,,,,,,,,,180.16330968199622,180.353993937287,180.35400708642123,0.8031703918759783,181.16187418138622,181.1618870098099,261.24076193139615,261.24076193139615,182.87753281190066,j,1,182.87791060897814,,182.87795165993396,182.87795999840932,182.87831919427242,1.6695206504176667,None,,,,,,,,,,,,,,,,,,,,,,,,,,,,,,,,,s1,001,1,m,27,2024-01-19_13h07.43.352,eye_track_exp,2023.1.3,120.12975855194534,
0,180,0,12,0,180,180,12,0,0,j,abs,resp,freq_top,0,29,29,2,,,,,,,,,,,,182.8788271998502,183.07710652338176,183.077119672516,1.041016523867178,184.11772612341713,184.11773927255138,264.1965445999392,264.1965445999392,185.00103493308052,j,1,185.00139958102375,,185.00143838700535,185.00144672548072,185.00182708824286,0.8419070835899447,None,,,,,,,,,,,,,,,,,,,,,,,,,,,,,,,,,s1,001,1,m,27,2024-01-19_13h07.43.352,eye_track_exp,2023.1.3,120.12975855194534,
180,168,180,0,180,0,180,0,0,168,f,abs,resp,freq_top,0,30,30,20,,,,,,,,,,,,185.00230815413101,185.2082219933061,185.20823418030864,0.9214580558419896,186.132115766261,186.13212859468467,266.21145058683624,266.21145058683624,187.11574605622184,f,1,187.11610813848029,,187.11614726517257,187.1161559243585,194.6750159393165,0.9386394916517702,None,,,,,,,,,,,,,,,,,,,,,,,,,,,,,,,,,s1,001,1,m,27,2024-01-19_13h07.43.352,eye_track_exp,2023.1.3,120.12975855194534,
0,0,168,0,0,0,0,0,168,0,f,abs,resp,freq_top,0,31,31,11,,,,,,,,,,,,194.6755726929042,194.67625388220176,194.67626414494066,0.8728716959268678,195.549156595285,195.5491694237087,275.62833811619737,275.62833811619737,196.86528583652228,f,1,196.8656562572561,,196.865694101106,196.86570243958136,196.86605393839022,1.2819957793112735,None,,,,,,,,,,,,,,,,,,,,,,,,,,,,,,,,,s1,001,1,m,27,2024-01-19_13h07.43.352,eye_track_exp,2023.1.3,120.12975855194534,
0,0,180,0,0,0,168,0,180,168,f,abs,resp,freq_top,0,32,32,15,,,,,,,,,,,,196.86655585046674,197.06548621650018,197.06549904492385,1.02416878300885,198.089013224822,198.08902637395624,278.16779321607305,278.16779321607305,199.08925985126723,f,1,199.08992468432461,,199.08997599801933,199.0899843364947,199.09040478808083,0.9652466044996117,None,,,,,,,,,,,,,,,,,,,,,,,,,,,,,,,,,s1,001,1,m,27,2024-01-19_13h07.43.352,eye_track_exp,2023.1.3,120.12975855194534,
180,0,180,0,12,180,180,180,12,180,j,abs,resp,freq_top,0,33,33,9,,,,,,,,,,,,199.090908624421,199.29646294702252,199.2964767375779,0.9207467619031731,200.22024382984898,200.22025697898323,280.2993009150515,280.2993009150515,201.08784134831865,j,1,201.08821305189485,,201.08825378214,201.08826244132604,201.0886447283517,0.8178634105044011,None,,,,,,,,,,,,,,,,,,,,,,,,,,,,,,,,,s1,001,1,m,27,2024-01-19_13h07.43.352,eye_track_exp,2023.1.3,120.12975855194534,
180,180,90,180,12,180,12,0,0,180,j,present,resp,freq_top,0,34,34,39,,,,,,,,,,,,201.08913926408468,201.08991121447968,201.08992115650813,1.027926905494195,202.12678715977415,202.12679998819783,282.20597188779243,282.20597188779243,203.24308644176733,j,1,203.24346680452948,,203.24350689335347,203.24351619396066,203.24390489519817,1.0708354355607526,None,,,,,,,,,,,,,,,,,,,,,,,,,,,,,,,,,s1,001,1,m,27,2024-01-19_13h07.43.352,eye_track_exp,2023.1.3,120.12975855194534,
180,270,0,0,168,0,0,168,180,0,f,present,resp,freq_top,0,35,35,45,,,,,,,,,,,,203.24442027711962,203.45066990028465,203.45068337012958,0.9521328574558703,204.408455406475,204.4084682348987,284.48737073759594,284.48737073759594,205.4250431997168,f,1,205.42540431984344,,205.4254434465356,205.42545210572166,205.4258302235096,0.9816432542285156,None,,,,,,,,,,,,,,,,,,,,,,,,,,,,,,,,,s1,001,1,m,27,2024-01-19_13h07.43.352,eye_track_exp,2023.1.3,120.12975855194534,
90,0,0,12,0,12,180,180,180,0,j,present,resp,freq_top,0,36,36,32,,,,,,,,,,,,205.42633149416497,205.64935845053174,205.6493712789554,0.9881669878929537,206.63959569939925,206.63960948995475,286.71874354569934,286.71874354569934,207.67307564023463,j,1,207.67344574025776,,207.67348486695005,207.67349320542542,207.67387453031938,0.9904483635331189,None,,,,,,,,,,,,,,,,,,,,,,,,,,,,,,,,,s1,001,1,m,27,2024-01-19_13h07.43.352,eye_track_exp,2023.1.3,120.12975855194534,
180,0,90,180,12,0,180,180,12,180,j,present,resp,freq_top,0,37,37,41,,,,,,,,,,,,207.67438638442422,207.89759197659066,207.89760448430377,0.9704658904878607,208.87108877397475,208.87110224381956,288.9501692710505,288.9501692710505,209.63776347978694,j,1,209.63815442599866,,209.6381941941121,209.63820253258746,209.63857872611186,0.7262113789311115,None,,,,,,,,,,,,,,,,,,,,,,,,,,,,,,,,,s1,001,1,m,27,2024-01-19_13h07.43.352,eye_track_exp,2023.1.3,120.12975855194534,
0,180,0,0,180,0,180,168,0,168,f,abs,resp,freq_top,0,38,38,14,,,,,,,,,,,,209.63907743108257,209.9376836869916,209.93769811896823,0.9874803318032218,210.9275460251771,210.9275594950219,291.0067224147199,291.0067224147199,211.96096214460454,f,1,211.96133160320665,,211.96137169203064,211.961380030506,211.9617472441339,0.9897742298685444,None,,,,,,,,,,,,,,,,,,,,,,,,,,,,,,,,,s1,001,1,m,27,2024-01-19_13h07.43.352,eye_track_exp,2023.1.3,120.12975855194534,
180,0,180,12,180,180,12,180,180,180,j,abs,resp,freq_top,0,39,39,1,,,,,,,,,,,,211.96223376210207,211.96300635391822,211.9630159752361,0.8665121284503378,212.82558411020136,212.82559758004618,292.9050529878041,292.9050529878041,213.67637671435853,j,1,213.67673526880037,,213.6767740747821,213.67678273396803,213.67716085175607,0.8030978948467009,None,,,,,,,,,,,,,,,,,,,,,,,,,,,,,,,,,s1,001,1,m,27,2024-01-19_13h07.43.352,eye_track_exp,2023.1.3,120.12975855194534,
0,0,0,-168,180,180,180,180,0,12,None,abs,inhibit,freq_top,0,40,40,25,,,,,,,,,,,,213.6776432004865,213.9002064093371,213.90021955847135,1.0284320939713383,214.9320584232072,214.93207157234144,295.0115699553187,295.0115699553187,217.9459509646333,None,1,217.94617514133722,,217.94621394731882,217.94622292721544,217.9471805690432,,,,,,,,,,,,,,,,,,,,,,,,,,,,,,,,,,,s1,001,1,m,27,2024-01-19_13h07.43.352,eye_track_exp,2023.1.3,120.12975855194534,
0,180,0,12,0,12,0,180,180,180,j,abs,resp,freq_top,0,41,41,0,,,,,,,,,,,,217.9476738219338,218.28898205175244,218.28899584230794,0.8806489899130072,219.17004396300797,219.1700574328529,299.2496068088142,299.2496068088142,221.05330819389906,f,0,221.05367091757864,301.1146646201055,221.55920157173853,221.55921183447742,221.56018807751957,1.8340785380381703,None,,,,,,,,,,,,,,,,,,,,,,,,,,,,,,,,,s1,001,1,m,27,2024-01-19_13h07.43.352,eye_track_exp,2023.1.3,120.12975855194534,
0,168,180,90,0,180,0,168,0,0,f,present,resp,freq_top,0,42,42,48,,,,,,,,,,,,221.5607493210557,221.8024602350937,221.80247306351737,0.8667242159312621,222.66763863356766,222.6676517827019,302.7466120133057,302.7466120133057,224.10014990013076,f,1,224.100542770606,,224.1014545508192,224.1014638514264,224.10196544279233,1.393284279014324,None,,,,,,,,,,,,,,,,,,,,,,,,,,,,,,,,,s1,001,1,m,27,2024-01-19_13h07.43.352,eye_track_exp,2023.1.3,120.12975855194534,
0,270,0,0,12,0,180,180,180,12,j,present,resp,freq_top,0,43,43,42,,,,,,,,,,,,224.10247441050183,224.3334075243837,224.33342067351794,0.9921497226403897,225.33130302147867,225.33131584990235,305.4109684946743,305.4109684946743,226.1484473117397,j,1,226.14883889937255,,226.148877063933,226.1488850816978,226.1492397876126,0.7770834551729422,None,,,,,,,,,,,,,,,,,,,,,,,,,,,,,,,,,s1,001,1,m,27,2024-01-19_13h07.43.352,eye_track_exp,2023.1.3,120.12975855194534,
180,12,180,-168,180,180,0,180,180,180,None,abs,inhibit,freq_top,0,44,44,26,,,,,,,,,,,,226.1497349647667,226.34775707840345,226.3477715103802,1.0625069502249092,227.41293445060353,227.4129472790272,307.4924895993555,307.4924895993555,230.4268253884768,None,1,230.42705020660173,,230.42713006353915,230.4271396848569,230.42805114435953,,,,,,,,,,,,,,,,,,,,,,,,,,,,,,,,,,,s1,001,1,m,27,2024-01-19_13h07.43.352,eye_track_exp,2023.1.3,120.12975855194534,
180,168,0,180,0,180,180,180,168,180,f,abs,resp,freq_top,0,45,45,12,,,,,,,,,,,,230.4285479250666,230.62004197460226,230.62005512373662,0.8692868608909841,231.49349791345696,231.4935110625912,311.57230003373877,311.57230003373877,233.07638460383907,f,1,233.07674412041274,,233.07678292639434,233.07679222700153,233.07715976134,1.542773579467621,None,,,,,,,,,,,,,,,,,,,,,,,,,,,,,,,,,s1,001,1,m,27,2024-01-19_13h07.43.352,eye_track_exp,2023.1.3,120.12975855194534,
0,270,0,0,12,0,0,12,0,0,j,present,resp,freq_top,0,46,46,40,,,,,,,,,,,,233.07764403433407,233.29217761209156,233.2921907612258,1.083616695486921,234.38214527163552,234.38215874148034,314.4614672637871,314.4614672637871,235.24936787942306,j,1,235.24975497710773,,235.2497931416682,235.24980148014356,235.25015362037357,0.8302765139694657,None,,,,,,,,,,,,,,,,,,,,,,,,,,,,,,,,,s1,001,1,m,27,2024-01-19_13h07.43.352,eye_track_exp,2023.1.3,120.12975855194534,
180,12,180,12,0,180,0,180,180,180,j,abs,resp,freq_top,0,47,47,5,,,,,,,,,,,,235.25065809813486,235.46518237528528,235.46519616584078,0.7478216913249057,236.2136965231124,236.21370935153607,316.293215752278,316.293215752278,237.59751718688062,j,1,237.5978811934026,,237.5979199993842,237.59792833785968,237.59820992175946,1.3337074758831022,None,,,,,,,,,,,,,,,,,,,,,,,,,,,,,,,,,s1,001,1,m,27,2024-01-19_13h07.43.352,eye_track_exp,2023.1.3,120.12975855194534,
0,180,180,180,12,0,180,12,0,0,j,abs,resp,freq_top,0,48,48,8,,,,,,,,,,,,237.5992297814422,237.8213000581128,237.8213125658259,0.7230841251132352,238.54562172313956,238.5456348722738,318.6245210187309,318.6245210187309,239.4128331060565,j,1,239.41320865815976,,239.41324778485193,239.41325708545912,239.4135306515941,0.8265546675487485,None,,,,,,,,,,,,,,,,,,,,,,,,,,,,,,,,,s1,001,1,m,27,2024-01-19_13h07.43.352,eye_track_exp,2023.1.3,120.12975855194534,
180,270,180,12,180,180,180,180,12,180,j,present,resp,freq_top,0,49,49,35,,,,,,,,,,,,239.41402903585413,239.6278503153868,239.62786282309992,0.76159984267712,240.39390220122925,240.3939153503635,320.47293427100567,320.47293427100567,241.19353601387525,j,1,241.19389424760652,,241.19393369500938,241.19394235419531,241.19430315361137,0.7542713107608279,None,,,,,,,,,,,,,,,,,,,,,,,,,,,,,,,,,s1,001,1,m,27,2024-01-19_13h07.43.352,eye_track_exp,2023.1.3,120.12975855194534,
,,,,,,,,,,,,,,,,,,,,,,,,,,,,,,,,,,,,,,,,,,,,,,,,241.19435639156973,241.697319116019,241.69733611368042,251.0258823069098,space,9.310617916808951,None,,,,,,,,,,,,,,,,,,,,,,,,,s1,001,1,m,27,2024-01-19_13h07.43.352,eye_track_exp,2023.1.3,120.12975855194534,
0,0,180,90,0,0,-12,0,180,-12,j,present,resp,freq_top,,,,,0,0,0,734,,,,,,251.0259098880207,251.5269483489177,251.70266792727307,251.70411433204322,,0.9394732081344791,,,,,,,,,,,,,,,,,,,,,,,251.7041258776245,252.64986870108362,252.64988345377083,332.72903995925697,332.72903995925697,254.133601618434,j,1,1.441637814976957,None,254.13488542293396,254.134946678657,254.1349559792642,254.13548707600455,,,,,,,,,,,s1,001,1,m,27,2024-01-19_13h07.43.352,eye_track_exp,2023.1.3,120.12975855194534,
180,12,180,270,180,0,180,0,0,-168,None,present,inhibit,freq_top,,,,,0,1,1,327,,,,,,,,254.13600662716374,254.36612706040523,,1.034307806910009,,,,,,,,,,,,,,,,,,,,,,,254.36614085096073,255.40556997327838,255.40558376383387,335.4849827265276,335.4849827265276,258.4367757553056,None,1,,,258.43701019474827,258.4370499628617,258.4370589427583,258.43740627232955,336.9753418454201,336.9753418454201,336.9753418454201,336.9753418454201,338.4657381667413,338.4657381667413,,,,,s1,001,1,m,27,2024-01-19_13h07.43.352,eye_track_exp,2023.1.3,120.12975855194534,
180,-168,180,270,0,180,12,0,180,180,None,present,inhibit,freq_top,,,,,0,2,2,53,,,,,,,,258.43788894177055,258.59497074477986,,0.8747064730119458,,,,,,,,,,,,,,,,,,,,,,,258.59498325249285,259.4686418804416,259.4686572745501,339.5481367356024,339.5481367356024,262.50020397193657,None,1,,,262.50044097706405,262.50048010375633,262.50048908365284,262.5010641177445,341.03849264738903,341.03849264738903,341.03849264738903,341.03849264738903,342.5288896101314,342.5288896101314,,,,,s1,001,1,m,27,2024-01-19_13h07.43.352,eye_track_exp,2023.1.3,120.12975855194534,
180,180,0,-168,180,0,180,0,0,168,f,abs,resp,freq_top,,,,,0,3,3,920,,,,,,,,262.5015554463714,262.69150014303693,,0.7034336111436825,,,,,,,,,,,,,,,,,,,,,,,262.6915129714606,263.3985226787288,263.3985374314161,343.47806788545245,343.47806788545245,264.88174887334367,f,1,1.4439276886040489,None,264.8821295568165,264.8821702870616,264.8821795876688,264.8825981149914,,,,,,,,,,,s1,001,1,m,27,2024-01-19_13h07.43.352,eye_track_exp,2023.1.3,120.12975855194534,
0,180,0,180,168,180,12,180,0,180,None,abs,inhibit,freq_top,,,,,0,4,4,342,,,,,,,,264.88311702472936,265.1811844868438,,0.9892647254402593,,,,,,,,,,,,,,,,,,,,,,,265.1811979566887,266.1715852981133,266.1715994093794,346.2506750957963,346.2506750957963,269.2029145537184,None,1,,,269.2031518795566,269.2031916476699,269.2032009482771,269.2034806079133,347.7410499295079,347.7410499295079,347.7410499295079,347.7410499295079,349.2314289324571,349.2314289324571,,,,,s1,001,1,m,27,2024-01-19_13h07.43.352,eye_track_exp,2023.1.3,120.12975855194534,
90,180,12,0,180,180,180,-168,180,180,None,present,inhibit,freq_top,,,,,0,5,5,60,,,,,,,,269.20398027501574,269.20474645262016,,0.7243953589827861,,,,,,,,,,,,,,,,,,,,,,,269.20475671535905,269.92676188777955,269.9267759990456,350.00577214923567,350.00577214923567,272.9575770443056,None,1,,,272.95781212516954,272.95785317612535,272.95786215602186,272.95832429998507,351.49614345513066,351.49614345513066,351.49614345513066,351.49614345513066,352.98652213736943,352.98652213736943,,,,,s1,001,1,m,27,2024-01-19_13h07.43.352,eye_track_exp,2023.1.3,120.12975855194534,
270,0,-12,0,180,180,180,180,-12,0,j,present,resp,freq_top,,,,,0,6,6,703,,,,,,,,272.9588044037413,273.1407470504247,,1.0642594778588146,,,,,,,,,,,,,,,,,,,,,,,273.1407605202696,274.2065773893902,274.2065918213668,354.28539843159695,354.28539843159695,276.23071470996865,j,1,1.9795239986362958,None,276.231076792227,276.2311165603404,276.23112554023703,276.2315277113195,355.7757803209415,355.7757803209415,355.7757803209415,355.7757803209415,,,,,,,s1,001,1,m,27,2024-01-19_13h07.43.352,eye_track_exp,2023.1.3,120.12975855194534,
90,180,168,180,180,0,180,0,0,168,f,present,resp,freq_top,,,,,0,7,7,560,,,,,,,,276.2320090979181,276.4801274888746,,0.8499879691758097,,,,,,,,,,,,,,,,,,,,,,,276.4801409587194,277.3291430356412,277.3291577883284,357.40770718866384,357.40770718866384,278.2786115540481,f,1,0.9052833451050901,None,278.27901340441997,278.27905477608635,278.27906407669343,278.2794636820912,,,,,,,,,,,s1,001,1,m,27,2024-01-19_13h07.43.352,eye_track_exp,2023.1.3,120.12975855194534,
180,180,180,180,168,180,168,180,180,180,f,abs,resp,freq_top,,,,,0,8,8,755,,,,,,,,278.2799713669584,278.58616435263286,,0.7274823574792431,,,,,,,,,,,,,,,,,,,,,,,278.58617718105654,279.318260683832,279.318274795098,359.3976554772879,359.3976554772879,280.2526468245162,f,1,0.8995153651071632,None,280.2530114724593,280.2530515612833,280.25306054117993,280.2534190956218,,,,,,,,,,,s1,001,1,m,27,2024-01-19_13h07.43.352,eye_track_exp,2023.1.3,120.12975855194534,
0,90,0,-168,0,0,180,180,180,12,None,present,inhibit,freq_top,,,,,0,9,9,158,,,,,,,,280.25389663369333,280.5093920096881,,0.7427655707123572,,,,,,,,,,,,,,,,,,,,,,,280.50940515882235,281.25892024440714,281.2589346763838,361.34596847543173,361.34596847543173,284.2979545719861,None,1,,,284.2981986327467,284.2982406458342,284.2982496257308,284.2986351198624,362.8363490819339,362.8363490819339,362.8363490819339,362.8363490819339,364.31010822058226,364.31010822058226,,,,,s1,001,1,m,27,2024-01-19_13h07.43.352,eye_track_exp,2023.1.3,120.12975855194534,
168,180,270,180,180,0,180,12,0,0,None,present,inhibit,freq_top,,,,,0,10,10,224,,,,,,,,284.2991431254402,284.49817868454784,,0.8015318684640722,,,,,,,,,,,,,,,,,,,,,,,284.4982011342893,285.3046000161638,285.3046150895617,365.3841208488825,365.3841208488825,288.3364404844526,None,1,,,288.33667460318486,288.33671372987703,288.33672270977365,288.3372679177801,366.87452358441556,366.87452358441556,366.87452358441556,366.87452358441556,368.3649057944707,368.3649057944707,,,,,s1,001,1,m,27,2024-01-19_13h07.43.352,eye_track_exp,2023.1.3,120.12975855194534,
270,0,180,0,180,12,0,-168,0,0,None,present,inhibit,freq_top,,,,,0,11,11,293,,,,,,,,288.33776020853884,288.51105810121373,,0.7089912466080762,,,,,,,,,,,,,,,,,,,,,,,288.511071250348,289.22641045311275,289.22642424366825,369.3057680441401,369.3057680441401,292.2575023828797,None,1,,,292.25773842587546,292.25777755256775,292.2577868531748,292.2581370691414,370.80447493903296,370.80447493903296,370.80447493903296,370.80447493903296,372.27819014033014,372.27819014033014,,,,,s1,001,1,m,27,2024-01-19_13h07.43.352,eye_track_exp,2023.1.3,120.12975855194534,
90,180,180,12,180,-168,0,180,180,180,None,present,inhibit,freq_top,,,,,0,12,12,26,,,,,,,,292.2586277563472,292.25941061090236,,0.9134811312145197,,,,,,,,,,,,,,,,,,,,,,,292.2594205529307,293.17319334102183,293.1732074522879,373.2606674757127,373.2606674757127,296.213177934085,None,1,,,296.2134197498714,296.21345919727423,296.21346817717085,296.2138392393258,374.7510807946952,374.7510807946952,374.7510807946952,374.7510807946952,376.2331524311787,376.2331524311787,,,,,s1,001,1,m,27,2024-01-19_13h07.43.352,eye_track_exp,2023.1.3,120.12975855194534,
90,0,12,180,180,-168,0,0,0,0,None,present,inhibit,freq_top,,,,,0,13,13,277,,,,,,,,296.2143369821647,296.3966708957704,,0.9259511612087353,,,,,,,,,,,,,,,,,,,,,,,296.3966834034835,297.32799296745816,297.32800772014537,377.4070875758,377.4070875758,300.3588228766714,None,1,,,300.3590573161142,300.3590974049382,300.3591067055454,300.3594771262792,378.8974592024057,378.8974592024057,378.8974592024057,378.8974592024057,380.3878529580421,380.3878529580421,,,,,s1,001,1,m,27,2024-01-19_13h07.43.352,eye_track_exp,2023.1.3,120.12975855194534,
168,180,270,180,180,12,0,0,0,0,None,present,inhibit,freq_top,,,,,0,14,14,262,,,,,,,,300.35995947500965,300.6177072014922,,0.9774470176438579,,,,,,,,,,,,,,,,,,,,,,,300.6177206713371,301.59947512504505,301.5994892363111,381.68674175998285,381.68674175998285,304.6387624932811,None,1,,,304.6389978948557,304.63903766296914,304.63904696357633,304.63960948995475,383.1771127451673,383.1771127451673,383.1771127451673,383.1771127451673,384.6508436612835,384.6508436612835,,,,,s1,001,1,m,27,2024-01-19_13h07.43.352,eye_track_exp,2023.1.3,120.12975855194534,
0,168,0,180,0,180,180,168,0,0,f,abs,resp,freq_top,,,,,0,15,15,962,,,,,,,,304.6400960079228,304.86327530182075,,0.7461822334169521,,,,,,,,,,,,,,,,,,,,,,,304.863288450955,305.6125492130403,305.6125630035958,385.6999293795277,385.6999293795277,307.2622947612566,f,1,1.6035658757425608,None,307.26265812635745,307.2626975737603,307.2627065536568,307.2630724844423,387.19032666298074,387.19032666298074,387.19032666298074,387.19032666298074,,,,,,,s1,001,1,m,27,2024-01-19_13h07.43.352,eye_track_exp,2023.1.3,120.12975855194534,
180,90,0,0,12,0,0,-168,180,180,None,present,inhibit,freq_top,,,,,0,16,16,66,,,,,,,,307.26355739885753,307.5030268665678,,0.8728542861764714,,,,,,,,,,,,,,,,,,,,,,,307.50303969499146,308.3767384117642,308.37675284374086,388.46422312990455,388.46422312990455,311.4165090908625,None,1,,,311.4167473788324,311.4167881090775,311.41679708897414,311.4172585915161,389.95459443579955,389.95459443579955,389.95459443579955,389.95459443579955,391.4283285590217,391.4283285590217,,,,,s1,001,1,m,27,2024-01-19_13h07.43.352,eye_track_exp,2023.1.3,120.12975855194534,
168,180,0,0,180,12,0,0,0,0,None,abs,inhibit,freq_top,,,,,0,17,17,401,,,,,,,,311.41775088227485,311.4185805605765,,0.834752665933119,,,,,,,,,,,,,,,,,,,,,,,311.41859050260484,312.2572150261892,312.25722849603414,392.3358667332035,392.3358667332035,315.2882216469387,None,1,,,315.28845576567096,315.2885054758127,315.2885147764198,315.28908852766904,393.82624060478327,393.82624060478327,393.82624060478327,393.82624060478327,395.316623135549,395.316623135549,,,,,s1,001,1,m,27,2024-01-19_13h07.43.352,eye_track_exp,2023.1.3,120.12975855194534,
0,90,0,0,168,0,0,12,0,0,None,present,inhibit,freq_top,,,,,0,18,18,231,,,,,,,,315.28961000309164,315.5045614667507,,1.098182542817903,,,,,,,,,,,,,,,,,,,,,,,315.5045752573061,316.6027880654609,316.60280249743755,396.6821030019795,396.6821030019795,319.634340535638,None,1,,,319.63457529579136,319.6346150639048,319.6346240438014,319.63497137337254,398.17247591142745,398.17247591142745,398.17247591142745,398.17247591142745,399.65454209583095,399.65454209583095,,,,,s1,001,1,m,27,2024-01-19_13h07.43.352,eye_track_exp,2023.1.3,120.12975855194534,
180,12,0,270,180,180,0,180,12,180,j,present,resp,freq_top,,,,,0,19,19,497,,,,,,,,319.6354588534725,319.8258169460911,,0.8658467448843191,,,,,,,,,,,,,,,,,,,,,,,319.82583009522546,320.6909077905734,320.6909231846819,400.77025415673006,400.77025415673006,322.28318039714236,j,1,1.5561151400966082,None,322.2835370273207,322.28357743685535,322.28359443451666,322.2839747972788,402.26062770759927,402.26062770759927,402.26062770759927,402.26062770759927,,,,,,,s1,001,1,m,27,2024-01-19_13h07.43.352,eye_track_exp,2023.1.3,120.12975855194534,
0,-168,0,90,0,180,180,180,180,12,None,present,inhibit,freq_top,,,,,0,20,20,147,,,,,,,,322.28447061585416,322.5234712046788,,0.9104568353334943,,,,,,,,,,,,,,,,,,,,,,,322.5234837123919,323.43848257707646,323.4384970090531,403.51786037287104,403.51786037287104,326.470017408171,None,1,,,326.4702502440608,326.47028969146356,326.4702983506496,326.47072585786884,405.0082518835334,405.0082518835334,405.0082518835334,405.0082518835334,406.4986424320639,406.4986424320639,,,,,s1,001,1,m,27,2024-01-19_13h07.43.352,eye_track_exp,2023.1.3,120.12975855194534,
180,180,90,180,-168,0,-168,180,0,180,f,present,resp,freq_top,,,,,0,21,21,518,,,,,,,,326.4711995474132,326.74428269227565,,1.0773078034703758,,,,,,,,,,,,,,,,,,,,,,,326.7442955206993,327.8261918567732,327.8262066094604,407.9057697759773,407.9057697759773,329.0265391222023,f,1,1.1561274553832845,None,329.0269085808044,329.0269483489177,329.0269573288143,329.02733897441885,,,,,,,,,,,s1,001,1,m,27,2024-01-19_13h07.43.352,eye_track_exp,2023.1.3,120.12975855194534,
90,0,0,0,180,-168,0,-168,0,0,f,present,resp,freq_top,,,,,0,22,22,684,,,,,,,,329.0278200403069,329.22568885428063,,0.949853677338302,,,,,,,,,,,,,,,,,,,,,,,329.22570136199374,330.1747574465793,330.1747712371347,410.25372473281607,410.25372473281607,331.0917790329678,f,1,0.8718524729903265,None,331.09215715075584,331.0921965981586,331.0922055780552,331.0924650329242,,,,,,,,,,,s1,001,1,m,27,2024-01-19_13h07.43.352,eye_track_exp,2023.1.3,120.12975855194534,
-12,180,180,180,270,180,180,-12,0,0,j,present,resp,freq_top,,,,,0,23,23,685,,,,,,,,331.0929499473393,331.44895089151134,,1.051929842828706,,,,,,,,,,,,,,,,,,,,,,,331.44896436135616,332.5059613684849,332.5059751590404,412.5933508355794,412.5933508355794,333.79731347151255,j,1,1.236416710680487,None,333.79768774077354,333.7977281503081,333.7977374509153,333.7982130647233,,,,,,,,,,,s1,001,1,m,27,2024-01-19_13h07.43.352,eye_track_exp,2023.1.3,120.12975855194534,
90,180,180,-168,0,180,0,180,-12,180,None,present,inhibit,freq_top,,,,,0,24,24,142,,,,,,,,333.7987120904045,334.01347241055066,,0.7141143807288747,,,,,,,,,,,,,,,,,,,,,,,334.01348620110605,334.7287205315073,334.72873464277336,414.8081268705446,414.8081268705446,337.760304752033,None,1,,,337.76054528497707,337.7605850530905,337.76059435369757,337.7609477767701,416.29850330780914,416.29850330780914,416.29850330780914,416.29850330780914,417.7888819900478,417.7888819900478,,,,,s1,001,1,m,27,2024-01-19_13h07.43.352,eye_track_exp,2023.1.3,120.12975855194534,
0,0,90,0,0,0,168,0,0,168,f,present,resp,freq_top,,,,,0,25,25,561,,,,,,,,337.7614544995055,337.9603598501127,,0.8445442706333203,,,,,,,,,,,,,,,,,,,,,,,337.9603723578258,338.8089680944274,338.80898284711475,418.8879251179253,418.8879251179253,340.17539052928794,f,1,1.324899159472693,None,340.1757538943888,340.1757936625022,340.17580232168814,340.1761839672927,,,,,,,,,,,s1,001,1,m,27,2024-01-19_13h07.43.352,eye_track_exp,2023.1.3,120.12975855194534,
180,0,0,180,0,168,180,180,-168,180,f,abs,resp,freq_top,,,,,0,26,26,879,,,,,,,,340.176669523129,340.1775325553323,,0.7182482210593563,,,,,,,,,,,,,,,,,,,,,,,340.1775424973606,340.89846014016337,340.8984748928506,420.98612638049883,420.98612638049883,341.64178166279464,f,1,0.6992312796646729,None,341.642146952159,341.6421873616936,341.6421960208795,341.6425783079053,,,,,,,,,,,s1,001,1,m,27,2024-01-19_13h07.43.352,eye_track_exp,2023.1.3,120.12975855194534,
0,12,180,90,180,0,180,-168,0,0,None,present,inhibit,freq_top,,,,,0,27,27,290,,,,,,,,341.64306707084756,341.92342200767393,,0.8233502608664844,,,,,,,,,,,,,,,,,,,,,,,341.9234348360976,342.7469105948669,342.7469256682647,422.8345191072957,422.8345191072957,345.7866136040302,None,1,,,345.78687754884743,345.7869182790927,345.7869269382786,345.78733359930936,424.32489105461195,424.32489105461195,424.32489105461195,424.32489105461195,425.7986097837256,425.7986097837256,,,,,s1,001,1,m,27,2024-01-19_13h07.43.352,eye_track_exp,2023.1.3,120.12975855194534,
180,168,180,0,180,168,180,0,180,180,f,abs,resp,freq_top,,,,,0,28,28,787,,,,,,,,345.7878239658046,345.82016827043344,,1.0037470099114985,,,,,,,,,,,,,,,,,,,,,,,345.82017949530416,346.82677009797067,346.8267845299473,426.9060000461824,426.9060000461824,348.10989982283945,f,1,1.2423617229252386,None,348.11026382936143,348.1103032767643,348.1103122566609,348.11069390226544,,,,,,,,,,,s1,001,1,m,27,2024-01-19_13h07.43.352,eye_track_exp,2023.1.3,120.12975855194534,
180,168,180,270,180,168,180,180,180,180,f,present,resp,freq_top,,,,,0,29,29,420,,,,,,,,348.1111794581018,348.32615593718697,,0.7831024731741049,,,,,,,,,,,,,,,,,,,,,,,348.3261694070318,349.1085018453688,349.1085156359243,429.19571139382106,429.19571139382106,349.8000719033148,f,1,0.6338932314581598,None,349.8004461725757,349.80050229692927,349.80051159753646,349.8009307662802,,,,,,,,,,,s1,001,1,m,27,2024-01-19_13h07.43.352,eye_track_exp,2023.1.3,120.12975855194534,
168,180,270,180,180,0,180,12,0,0,None,present,inhibit,freq_top,,,,,0,30,30,226,,,,,,,,349.80142337774964,350.3322122360071,,0.8527142600532023,,,,,,,,,,,,,,,,,,,,,,,350.3322253851413,351.1897593259433,351.1897734372094,431.2772228771846,431.2772228771846,354.22906625752546,None,1,,,354.2293074318907,354.2293472000041,354.22935585919015,354.2297269213451,432.76760733221386,432.76760733221386,432.76760733221386,432.76760733221386,434.24133055127595,434.24133055127595,,,,,s1,001,1,m,27,2024-01-19_13h07.43.352,eye_track_exp,2023.1.3,120.12975855194534,
168,0,180,180,180,180,0,168,180,180,f,abs,resp,freq_top,,,,,0,31,31,779,,,,,,,,354.2302224192098,354.50419136672747,,0.840432488559729,,,,,,,,,,,,,,,,,,,,,,,354.5042045158617,355.3445903820176,355.3446060968366,435.43195932363426,435.43195932363426,356.3281260623538,f,1,0.9404377159414707,None,356.3284980866406,356.328537854754,356.32854683465064,356.32895381639196,,,,,,,,,,,s1,001,1,m,27,2024-01-19_13h07.43.352,eye_track_exp,2023.1.3,120.12975855194534,
0,-168,0,90,0,180,180,180,180,12,None,present,inhibit,freq_top,,,,,0,32,32,153,,,,,,,,356.3294557284685,356.53585127495296,,0.9407539426680626,,,,,,,,,,,,,,,,,,,,,,,356.5358647447978,357.47613496271424,357.4761490739803,437.5551516383822,437.5551516383822,360.507120095854,None,1,,,360.5073513281909,360.5073904548831,360.5073994347797,360.50791353385875,439.0454895903756,439.0454895903756,439.0454895903756,439.0454895903756,440.535895212304,440.535895212304,,,,,s1,001,1,m,27,2024-01-19_13h07.43.352,eye_track_exp,2023.1.3,120.12975855194534,
180,180,0,180,180,12,180,180,0,-168,None,abs,inhibit,freq_top,,,,,0,33,33,379,,,,,,,,360.50840646603865,360.7151262509317,,1.053575866219149,,,,,,,,,,,,,,,,,,,,,,,360.71513907935537,361.77239522064247,361.77240933190853,441.85975101312476,441.85975101312476,364.8117149806484,None,1,,,364.81195455146064,364.81199431957407,364.81200297876,364.8124811582527,443.3417963513398,443.3417963513398,443.3417963513398,443.3417963513398,444.8321618844442,444.8321618844442,,,,,s1,001,1,m,27,2024-01-19_13h07.43.352,eye_track_exp,2023.1.3,120.12975855194534,
180,-168,180,-168,0,180,0,180,0,180,f,abs,resp,freq_top,,,,,0,34,34,866,,,,,,,,364.81297601469623,364.8138724008011,,1.0379596500812442,,,,,,,,,,,,,,,,,,,,,,,364.8138823428294,365.8517932212044,365.85180733247046,445.9312245756679,445.9312245756679,368.8834691649595,None,0,,,368.8837206020636,369.38985066431997,369.3898625306118,369.39056007614954,447.42161801059376,447.42161801059376,447.42161801059376,447.42161801059376,448.9119925235947,448.9119925235947,448.94530184639507,,,,s1,001,1,m,27,2024-01-19_13h07.43.352,eye_track_exp,2023.1.3,120.12975855194534,
0,12,0,270,168,0,0,0,0,0,None,present,inhibit,freq_top,,,,,0,35,35,267,,,,,,,,369.39112837531866,369.47484795110836,,0.9567329482678224,,,,,,,,,,,,,,,,,,,,,,,369.47486077953204,370.43149493469696,370.431509045963,450.51060269217305,450.51060269217305,372.75589017073355,j,0,2.276632536080456,None,372.7562509701496,373.25430265330294,373.254313557463,373.2547311226539,452.0009925992824,452.0009925992824,452.0009925992824,452.0009925992824,,,452.8086172370398,453.3081881262676,,,s1,001,1,m,27,2024-01-19_13h07.43.352,eye_track_exp,2023.1.3,120.12975855194534,
180,12,0,270,180,-168,180,180,0,180,None,present,inhibit,freq_top,,,,,0,36,36,110,,,,,,,,373.2552766513709,373.4043015628869,,0.9499193884802939,,,,,,,,,,,,,,,,,,,,,,,373.4043150327318,374.3531302636626,374.3531450163498,454.4322152506867,454.4322152506867,377.38401597651887,None,1,,,377.38425522662055,377.38501114148596,377.385021404225,377.3855092050354,455.93090482720754,455.93090482720754,455.93090482720754,455.93090482720754,457.4046193870836,457.4046193870836,,,,,s1,001,1,m,27,2024-01-19_13h07.43.352,eye_track_exp,2023.1.3,120.12975855194534,
180,180,-12,180,270,180,-12,0,0,180,j,present,resp,freq_top,,,,,0,37,37,533,,,,,,,,377.3860117585332,377.5678100854501,,1.0213131992449953,,,,,,,,,,,,,,,,,,,,,,,377.5678225931632,378.5911831526878,378.5911975846644,458.670228692309,458.670228692309,380.81521649889226,j,1,2.1802108965822526,None,380.81557248764943,380.8156196321065,380.815628612003,380.81600705050164,460.1605955082558,460.1605955082558,460.1605955082558,460.1605955082558,,,,,,,s1,001,1,m,27,2024-01-19_13h07.43.352,eye_track_exp,2023.1.3,120.12975855194534,
12,180,90,180,168,0,180,0,180,180,None,present,inhibit,freq_top,,,,,0,38,38,43,,,,,,,,380.81649741699687,381.014674113139,,0.8502759459191367,,,,,,,,,,,,,,,,,,,,,,,381.0146875829839,381.87185046163086,381.8718648936075,461.9507253832171,461.9507253832171,384.9029927429607,None,1,,,384.9032512356979,384.903291324522,384.9033003044186,384.9037884259395,463.4410976512439,463.4410976512439,463.4410976512439,463.4410976512439,464.9314805027203,464.9314805027203,,,,,s1,001,1,m,27,2024-01-19_13h07.43.352,eye_track_exp,2023.1.3,120.12975855194534,
90,180,12,180,168,180,0,180,0,180,None,present,inhibit,freq_top,,,,,0,39,39,124,,,,,,,,384.9042977143598,385.18632547763434,,0.8332028681854091,,,,,,,,,,,,,,,,,,,,,,,385.18633798534745,386.01810635789514,386.0181304111894,466.0971262406689,466.0971262406689,389.0489888636454,None,1,,,389.04923388653776,389.0492736546511,389.0492823138371,389.0495263745978,467.58751871346306,467.58751871346306,467.58751871346306,467.58751871346306,469.07789354717477,469.07789354717477,,,,,s1,001,1,m,27,2024-01-19_13h07.43.352,eye_track_exp,2023.1.3,120.12975855194534,
168,180,180,0,0,168,0,0,0,0,f,abs,resp,freq_top,,,,,0,40,40,1004,,,,,,,,389.05008537315973,389.0508643791876,,0.7392947471155251,,,,,,,,,,,,,,,,,,,,,,,389.05087432121616,389.7893303434554,389.7893450961427,469.86887458804733,469.86887458804733,391.56408182481766,f,1,1.7338032400659813,None,391.5644772609777,391.56451638766987,391.5645253675665,391.5649862286872,471.35925487383895,471.35925487383895,471.35925487383895,471.35925487383895,,,,,,,s1,001,1,m,27,2024-01-19_13h07.43.352,eye_track_exp,2023.1.3,120.12975855194534,
0,0,0,0,168,0,0,0,0,168,f,abs,resp,freq_top,,,,,0,41,41,935,,,,,,,,391.5655032141616,391.7804694305079,,0.9155076744365171,,,,,,,,,,,,,,,,,,,,,,,391.78048225893156,392.6955738089772,392.6955875995326,472.7746998469569,472.7746998469569,393.7045572333708,f,1,0.9715662067158064,None,393.7049382375543,393.7049805713524,393.7049898719596,432.46953505944055,,,,,,,,,,,s1,001,1,m,27,2024-01-19_13h07.43.352,eye_track_exp,2023.1.3,120.12975855194534,
-12,0,0,12,0,270,0,0,0,0,j,present,resp,freq_top,,,,,0,42,42,664,,,,,,,,432.47009437871304,432.47105362409377,,0.8492117832078033,,,,,,,,,,,,,,,,,,,,,,,432.47106420754346,433.31888606948644,433.3189001807526,513.4062588596302,513.4062588596302,435.02672962429403,j,1,1.650003486628293,None,435.02709683792193,435.0271362853247,435.0271452652213,435.0275560954898,514.8882990664757,514.8882990664757,514.8882990664757,514.8882990664757,,,,,,,s1,001,1,m,27,2024-01-19_13h07.43.352,eye_track_exp,2023.1.3,120.12975855194534,
0,0,90,0,12,0,0,0,180,-168,None,present,inhibit,freq_top,,,,,0,43,43,314,,,,,,,,435.0280349164035,435.24209769101196,,0.7798916503389297,,,,,,,,,,,,,,,,,,,,,,,435.24211051943564,436.0243817020497,436.02439581331566,516.1039214566932,516.1039214566932,439.0562189632325,None,1,,,439.056448912727,439.0564979814475,439.0565152998196,439.05697391596607,517.5943286821745,517.5943286821745,517.5943286821745,517.5943286821745,519.0846791418811,519.0846791418811,,,,,s1,001,1,m,27,2024-01-19_13h07.43.352,eye_track_exp,2023.1.3,120.12975855194534,
-12,0,90,180,-12,180,180,180,0,180,j,present,resp,freq_top,,,,,0,44,44,504,,,,,,,,439.05745594398593,439.2390355462793,,0.7256463129412255,,,,,,,,,,,,,,,,,,,,,,,439.2390477332816,439.97128421500963,439.9712989676967,520.0505234638284,520.0505234638284,440.8890918630592,j,1,0.8769270766881618,None,440.889474150085,440.88951359748773,440.88952257738435,440.8899013365934,,,,,,,,,,,s1,001,1,m,27,2024-01-19_13h07.43.352,eye_track_exp,2023.1.3,120.12975855194534,
0,180,0,0,180,0,180,168,0,168,f,abs,resp,freq_top,,,,,0,45,45,913,,,,,,,,440.8904016451171,442.6778500588183,,0.8211550139266448,,,,,,,,,,,,,,,,,,,,,,,442.677862887242,443.50189026822943,443.50190405878504,523.5891245113975,523.5891245113975,444.70183632470787,f,1,1.1456472746565396,None,444.7021996898087,444.7022388165009,444.70224747568693,444.70274842563174,,,,,,,,,,,s1,001,1,m,27,2024-01-19_13h07.43.352,eye_track_exp,2023.1.3,120.12975855194534,
180,180,90,180,168,180,168,180,0,0,f,present,resp,freq_top,,,,,0,46,46,636,,,,,,,,444.70323590573173,444.9262044927706,,0.9417147420931343,,,,,,,,,,,,,,,,,,,,,,,444.9262179626154,445.8665196101698,445.86653308001485,525.953747439126,525.953747439126,446.70896123122077,f,1,0.7976057259579648,None,446.7093335762182,446.7093739857527,446.7093826449387,446.709796040892,,,,,,,,,,,s1,001,1,m,27,2024-01-19_13h07.43.352,eye_track_exp,2023.1.3,120.12975855194534,
0,90,0,-168,180,180,180,12,0,0,None,present,inhibit,freq_top,,,,,0,47,47,221,,,,,,,,446.7103024429167,447.2816015388977,,0.8494083414059471,,,,,,,,,,,,,,,,,,,,,,,447.28161565016387,448.1310003348218,448.1310141253774,528.2101263728017,528.2101263728017,451.16207270124266,None,1,,,451.162313875608,451.16235428514244,451.16236326503906,451.1628513865602,529.7088387197747,529.7088387197747,529.7088387197747,529.7088387197747,531.1825609767048,531.1825609767048,,,,,s1,001,1,m,27,2024-01-19_13h07.43.352,eye_track_exp,2023.1.3,120.12975855194534,
-168,0,0,180,0,0,0,168,180,180,f,abs,resp,freq_top,,,,,0,48,48,783,,,,,,,,451.1633497708202,451.35391215608604,,0.8584961542299165,,,,,,,,,,,,,,,,,,,,,,,451.3539423028816,452.21083835031607,452.210852461582,532.289941617844,532.289941617844,453.4781416488887,f,1,1.2288764839508985,None,453.4784995619094,453.4785396507333,453.47854830991935,453.4790383557039,,,,,,,,,,,s1,001,1,m,27,2024-01-19_13h07.43.352,eye_track_exp,2023.1.3,120.12975855194534,
0,0,0,0,-168,0,0,0,0,168,f,abs,resp,freq_top,,,,,0,49,49,932,,,,,,,,453.47952166656626,453.6936610910062,,0.7016204889993402,,,,,,,,,,,,,,,,,,,,,,,453.6936739194299,454.4004559221777,454.400470674865,534.4797140929214,534.4797140929214,455.21734011614865,f,1,0.767625058392241,None,455.21769674632685,455.21773779728267,455.2177467771793,455.2181136700966,,,,,,,,,,,s1,001,1,m,27,2024-01-19_13h07.43.352,eye_track_exp,2023.1.3,120.12975855194534,
0,270,180,180,180,-168,0,12,0,0,None,present,inhibit,freq_top,,,,,0,50,50,235,,,,,,,,455.2185953774059,455.6086836882745,,0.9010554940588668,,,,,,,,,,,,,,,,,,,,,,,455.6086971581193,456.51518243942735,456.5151968714041,536.5945461239559,536.5945461239559,459.5466069460782,None,1,,,459.54684683760127,459.5468872471357,459.5468965477429,459.5472663270556,538.0849238440629,538.0849238440629,538.0849238440629,538.0849238440629,539.5752929049837,539.5752929049837,,,,,s1,001,1,m,27,2024-01-19_13h07.43.352,eye_track_exp,2023.1.3,120.12975855194534,
0,-168,180,180,0,180,180,168,0,0,f,abs,resp,freq_top,,,,,0,51,51,964,,,,,,,,459.54775765568263,459.7133677947555,,1.0093101722835178,,,,,,,,,,,,,,,,,,,,,,,459.7133809438898,460.72828404439144,460.72829783494706,540.8075720412204,540.8075720412204,461.5793203885986,f,1,0.8069185201295568,None,461.5796808673041,461.57972159754934,461.57973057744596,461.5800981117844,,,,,,,,,,,s1,001,1,m,27,2024-01-19_13h07.43.352,eye_track_exp,2023.1.3,120.12975855194534,
0,0,168,0,90,0,0,0,168,0,f,present,resp,freq_top,,,,,0,52,52,617,,,,,,,,461.5805830261994,461.79451912012416,,0.8843309225029973,,,,,,,,,,,,,,,,,,,,,,,461.7945322692584,462.6846468783955,462.6846606689511,542.7642180626771,542.7642180626771,463.53523262422084,f,1,0.8014959454394557,None,463.53559951713817,463.5356402473834,463.53564858585867,463.5360141959337,,,,,,,,,,,s1,001,1,m,27,2024-01-19_13h07.43.352,eye_track_exp,2023.1.3,120.12975855194534,
270,180,180,180,168,180,12,180,0,180,None,present,inhibit,freq_top,,,,,0,53,53,115,,,,,,,,463.5364971860853,463.7679591517334,,1.0794725497716715,,,,,,,,,,,,,,,,,,,,,,,463.7679726215782,464.8498487528849,464.8498631848614,544.9373446958958,544.9373446958958,467.88924997338097,None,1,,,467.8894889027721,467.8895286708856,467.889537650782,467.8898891495909,546.427718246765,546.427718246765,546.427718246765,546.427718246765,547.9014340894834,547.9014340894834,,,,,s1,001,1,m,27,2024-01-19_13h07.43.352,eye_track_exp,2023.1.3,120.12975855194534,
90,180,180,-168,0,180,0,180,-12,180,None,present,inhibit,freq_top,,,,,0,54,54,141,,,,,,,,467.89037246045325,468.12262241202586,,0.9635247050588098,,,,,,,,,,,,,,,,,,,,,,,468.12263491973897,469.0880741842085,469.0880892576064,549.1670084372544,549.1670084372544,472.1187379653351,None,1,,,472.11897048051435,472.1190108900488,472.1190198699454,472.1193688030695,550.6574009100485,550.6574009100485,550.6574009100485,550.6574009100485,552.1477526525974,552.1477526525974,,,,,s1,001,1,m,27,2024-01-19_13h07.43.352,eye_track_exp,2023.1.3,120.12975855194534,
0,12,0,270,180,168,0,0,0,0,None,present,inhibit,freq_top,,,,,0,55,55,258,,,,,,,,472.11987841220036,472.3099202841753,,0.7769796231839827,,,,,,,,,,,,,,,,,,,,,,,472.30993343330954,473.0924105121236,473.09242462338955,553.1718925388606,553.1718925388606,476.12399537407043,None,1,,,476.12422724782857,476.1242670159419,476.1242759958385,476.1251130504837,554.6622676932826,554.6622676932826,554.6622676932826,554.6622676932826,556.1526393198884,556.1526393198884,,,,,s1,001,1,m,27,2024-01-19_13h07.43.352,eye_track_exp,2023.1.3,120.12975855194534,
12,0,180,0,90,0,0,0,12,0,j,present,resp,freq_top,,,,,0,56,56,625,,,,,,,,476.12560020987314,476.3816651678791,,0.7354739330730766,,,,,,,,,,,,,,,,,,,,,,,476.3816776755922,477.1228485129933,477.1228725662876,557.2017436393468,557.2017436393468,478.7304295982523,j,1,1.5630732771014664,None,478.73080130182836,478.73084042852076,478.7308490877066,478.73121662204505,558.6921110967147,558.6921110967147,558.6921110967147,558.6921110967147,,,,,,,s1,001,1,m,27,2024-01-19_13h07.43.352,eye_track_exp,2023.1.3,120.12975855194534,
180,180,180,0,0,180,168,180,12,180,None,abs,inhibit,freq_top,,,,,0,57,57,356,,,,,,,,478.7317069885404,478.97952872219923,,1.0317993184295955,,,,,,,,,,,,,,,,,,,,,,,478.9795418713335,480.0115115859909,480.0115250558357,560.0992368370752,560.0992368370752,483.0513412758381,None,1,,,483.0515872608622,483.05162574613325,483.0516347260299,483.0520365764015,561.589614557182,561.589614557182,561.589614557182,561.589614557182,563.0633454732982,563.0633454732982,,,,,s1,001,1,m,27,2024-01-19_13h07.43.352,eye_track_exp,2023.1.3,120.12975855194534,
270,0,168,0,180,180,180,180,12,0,None,present,inhibit,freq_top,,,,,0,58,58,213,,,,,,,,483.05258531222455,483.27609557945345,,0.7052083083536103,,,,,,,,,,,,,,,,,,,,,,,483.27610904929827,483.9835440188116,483.9835587714989,564.0707721684784,564.0707721684784,487.02253954040896,None,1,,,487.02277622482586,487.02281663436054,487.0228262556783,487.0231816030142,565.5528505398842,565.5528505398842,565.5528505398842,565.5528505398842,567.0432471819162,567.0432471819162,,,,,s1,001,1,m,27,2024-01-19_13h07.43.352,eye_track_exp,2023.1.3,120.12975855194534,
0,270,0,0,-12,0,0,12,0,0,j,present,resp,freq_top,,,,,0,59,59,655,,,,,,,,487.0236796665637,487.02444552345753,,0.9354289896697376,,,,,,,,,,,,,,,,,,,,,,,487.0244551447753,487.9635704838496,487.9635845951158,568.0423652277879,568.0423652277879,489.22111936976523,j,1,1.2177478264070487,None,489.2215019775016,489.2215417456149,489.22155040480095,489.22193269182674,,,,,,,,,,,s1,001,1,m,27,2024-01-19_13h07.43.352,eye_track_exp,2023.1.3,120.12975855194534,
270,180,180,-168,180,180,-168,180,180,180,f,present,resp,freq_top,,,,,0,60,60,442,,,,,,,,489.22243716958803,489.42942346498296,,0.7164434992378723,,,,,,,,,,,,,,,,,,,,,,,489.4294366141172,490.1447376523216,490.1447517635876,570.2238373920328,570.2238373920328,491.34486106175734,f,1,1.1644306526113724,None,491.34522218188397,491.3452622707081,491.3452709298939,491.34565482047276,,,,,,,,,,,s1,001,1,m,27,2024-01-19_13h07.43.352,eye_track_exp,2023.1.3,120.12975855194534,
180,180,0,0,180,180,180,168,0,168,f,abs,resp,freq_top,,,,,0,61,61,909,,,,,,,,491.3461365277818,491.69342729298444,,0.8379541847823125,,,,,,,,,,,,,,,,,,,,,,,491.6934407628295,492.53426022970586,492.5342753031035,572.6134234701143,572.6134234701143,493.3345601582515,f,1,0.7585088598134462,None,493.3349238440629,493.33496361217624,493.33497259207286,493.33534108854303,,,,,,,,,,,s1,001,1,m,27,2024-01-19_13h07.43.352,eye_track_exp,2023.1.3,120.12975855194534,
0,180,0,180,180,168,180,180,168,180,f,abs,resp,freq_top,,,,,0,62,62,824,,,,,,,,493.3358263236688,493.55026112256417,,1.0899234180131887,,,,,,,,,,,,,,,,,,,,,,,493.55027395098784,494.6411040013137,494.6411174711585,574.7199295334689,574.7199295334689,495.88217894624756,f,1,1.1966636706647478,None,495.8825410285061,495.8825939457537,495.88260356707144,495.8829717428313,,,,,,,,,,,s1,001,1,m,27,2024-01-19_13h07.43.352,eye_track_exp,2023.1.3,120.12975855194534,
0,90,180,180,180,12,0,12,0,180,j,present,resp,freq_top,,,,,0,63,63,523,,,,,,,,495.8834617886158,496.1312110416808,,0.7033374639890674,,,,,,,,,,,,,,,,,,,,,,,496.13122387010446,496.8389811537628,496.8389946236076,576.9180446531772,576.9180446531772,497.5314793481622,j,1,0.646177088554623,None,497.5318462410795,497.53188665061396,497.5318956305106,497.5323083850425,,,,,,,,,,,s1,001,1,m,27,2024-01-19_13h07.43.352,eye_track_exp,2023.1.3,120.12975855194534,
180,12,0,270,180,0,180,0,168,180,None,present,inhibit,freq_top,,,,,0,64,64,77,,,,,,,,497.5328058071708,497.76323572613376,,0.7541400339159364,,,,,,,,,,,,,,,,,,,,,,,497.763248875268,498.5208311150851,498.52084554706164,578.6082369384197,578.6082369384197,501.5605780615996,None,1,,,501.5608429685486,501.5608833780831,501.5608923579797,501.56136444397123,580.0986508988236,580.0986508988236,580.0986508988236,580.0986508988236,581.5723144657155,581.5723144657155,,,,,s1,001,1,m,27,2024-01-19_13h07.43.352,eye_track_exp,2023.1.3,120.12975855194534,
0,270,0,0,0,12,0,-12,0,0,j,present,resp,freq_top,,,,,0,65,65,689,,,,,,,,501.5618852779727,501.6012441646709,,0.8977793341979591,,,,,,,,,,,,,,,,,,,,,,,501.6012736700453,502.5007780438963,502.50079215516246,582.5881206872444,582.5881206872444,503.7927975456661,j,1,1.247587381312087,None,503.7931621936092,503.7932019617225,503.79321062090855,503.79347007577746,,,,,,,,,,,s1,001,1,m,27,2024-01-19_13h07.43.352,eye_track_exp,2023.1.3,120.12975855194534,
180,-168,180,-168,180,180,90,0,0,180,f,present,resp,freq_top,,,,,0,66,66,526,,,,,,,,503.7939739121176,504.0253335710869,,1.086551923925335,,,,,,,,,,,,,,,,,,,,,,,504.0253470409317,505.11514440315125,505.11515819370663,585.2025364359305,585.2025364359305,506.32349564282583,f,1,1.1620756747338419,None,506.32387504345627,506.3239138494379,506.3239225086239,506.3243070406237,,,,,,,,,,,s1,001,1,m,27,2024-01-19_13h07.43.352,eye_track_exp,2023.1.3,120.12975855194534,
0,180,168,0,180,168,180,0,180,180,f,abs,resp,freq_top,,,,,0,67,67,792,,,,,,,,506.3247954828554,506.5306624982842,,1.0337781172071354,,,,,,,,,,,,,,,,,,,,,,,506.5306762888396,507.57102360558235,507.57103739613797,587.6504219268548,587.6504219268548,509.6453017822529,f,1,2.0246877470503932,None,509.6456699580125,509.64571036754717,509.6457193474438,509.64608367467633,589.1407961191454,589.1407961191454,589.1407961191454,589.1407961191454,,,,,,,s1,001,1,m,27,2024-01-19_13h07.43.352,eye_track_exp,2023.1.3,120.12975855194534,
90,180,0,-168,180,0,180,0,0,-168,f,present,resp,freq_top,,,,,0,68,68,724,,,,,,,,509.6465714754869,509.8785526715834,,0.8026164677532659,,,,,,,,,,,,,,,,,,,,,,,509.8785645378754,510.68508079982655,510.68509491109273,590.7644043955312,590.7644043955312,511.8019971289988,f,1,1.0709290830538976,None,511.80236241836303,511.80240218647657,511.8024108456626,511.802877479574,,,,,,,,,,,s1,001,1,m,27,2024-01-19_13h07.43.352,eye_track_exp,2023.1.3,120.12975855194534,
180,168,180,0,180,0,180,0,0,168,f,abs,resp,freq_top,,,,,0,69,69,918,,,,,,,,511.8033579040408,512.2766414288811,,0.8465464854047996,,,,,,,,,,,,,,,,,,,,,,,512.2766545780154,513.1244286540804,513.1244427653463,593.2039389033495,593.2039389033495,513.791903725246,f,1,0.6307586061316215,None,513.7922789566386,513.7923187247521,513.7923277046488,513.7926958804084,,,,,,,,,,,s1,001,1,m,27,2024-01-19_13h07.43.352,eye_track_exp,2023.1.3,120.12975855194534,
90,0,180,0,0,0,-168,0,180,-168,f,present,resp,freq_top,,,,,0,70,70,720,,,,,,,,513.7931763048751,514.1079499024398,,0.8901565559471798,,,,,,,,,,,,,,,,,,,,,,,514.1079630515741,514.9983249285777,514.9983383984226,595.0773217201889,595.0773217201889,515.6571696777115,f,1,0.6137737731767174,None,515.6575400984453,515.65758050798,515.6575891671658,515.658004166672,,,,,,,,,,,s1,001,1,m,27,2024-01-19_13h07.43.352,eye_track_exp,2023.1.3,120.12975855194534,
168,0,90,180,0,180,168,180,0,180,f,present,resp,freq_top,,,,,0,71,71,508,,,,,,,,515.658514417224,516.0064709776158,,0.978781832653808,,,,,,,,,,,,,,,,,,,,,,,516.0064844474606,516.988311702473,516.9883254930284,597.0672635946013,597.0672635946013,517.7640435961151,f,1,0.7354956298599973,None,517.7644034333993,517.7644428808022,517.7644518606988,517.7648254885386,,,,,,,,,,,s1,001,1,m,27,2024-01-19_13h07.43.352,eye_track_exp,2023.1.3,120.12975855194534,
270,0,168,0,180,180,180,180,12,0,None,present,inhibit,freq_top,,,,,0,72,72,207,,,,,,,,517.7653097615324,518.0043315172562,,0.9361794894955819,,,,,,,,,,,,,,,,,,,,,,,518.0043446663905,518.9448204597965,518.9448345710624,599.02392693443,599.02392693443,521.9758613965793,None,1,,,521.9761009673915,521.9761404147943,521.9761493946909,521.9765329645589,600.5142927882451,600.5142927882451,600.5142927882451,600.5142927882451,602.0046849403287,602.0046849403287,,,,,s1,001,1,m,27,2024-01-19_13h07.43.352,eye_track_exp,2023.1.3,120.12975855194534,
12,0,270,180,180,0,0,-168,180,0,None,present,inhibit,freq_top,,,,,0,73,73,188,,,,,,,,521.9770210860801,521.9779161893424,,0.8882529684891394,,,,,,,,,,,,,,,,,,,,,,,521.9779258106602,522.866560340415,522.8665760552341,602.9455147982281,602.9455147982281,525.8975573398467,None,1,,,525.8977943449744,525.8978347545088,525.8978437344055,525.8982972191826,604.4359149680764,604.4359149680764,604.4359149680764,604.4359149680764,605.9262705591526,605.9262705591526,,,,,s1,001,1,m,27,2024-01-19_13h07.43.352,eye_track_exp,2023.1.3,120.12975855194534,
180,180,0,0,270,180,180,12,0,-12,j,present,resp,freq_top,,,,,0,74,74,741,,,,,,,,525.8987891892308,526.0972368858232,,0.9597805802716102,,,,,,,,,,,,,,,,,,,,,,,526.0972493935363,527.0629080240507,527.0629224560274,607.1418939115018,607.1418939115018,528.5641366663289,j,1,1.4601678315641493,None,528.5644981071661,528.5645526279667,528.5645619285739,528.5649602511293,608.6239652272749,608.6239652272749,608.6239652272749,608.6239652272749,,,,,,,s1,001,1,m,27,2024-01-19_13h07.43.352,eye_track_exp,2023.1.3,120.12975855194534,
0,12,0,90,180,180,180,180,0,12,j,present,resp,freq_top,,,,,0,75,75,572,,,,,,,,528.5654509383352,528.786367619006,,1.0550277337103946,,,,,,,,,,,,,,,,,,,,,,,528.7863804474297,529.8437905298011,529.8438043203565,609.9228530670838,609.9228530670838,530.6028810715326,j,1,0.7109211807446627,None,530.6032652828218,530.6033050509353,530.6033137101214,530.6037408966298,,,,,,,,,,,s1,001,1,m,27,2024-01-19_13h07.43.352,eye_track_exp,2023.1.3,120.12975855194534,
0,0,0,12,0,0,168,0,0,0,None,abs,inhibit,freq_top,,,,,0,76,76,359,,,,,,,,530.6042440915488,530.8184762013499,,0.7937265573636896,,,,,,,,,,,,,,,,,,,,,,,530.8184893504841,531.6168335858396,531.6168480178161,611.6962873900444,611.6962873900444,534.6484043365205,None,1,,,534.6486442280433,534.6486833547355,534.6486923346321,534.6491612135177,613.1866939741045,613.1866939741045,613.1866939741045,613.1866939741045,614.677062714315,614.677062714315,,,,,s1,001,1,m,27,2024-01-19_13h07.43.352,eye_track_exp,2023.1.3,120.12975855194534,
0,0,180,12,0,0,180,-168,0,0,None,abs,inhibit,freq_top,,,,,0,77,77,366,,,,,,,,534.6496522214339,534.650504349477,,0.7425302357691534,,,,,,,,,,,,,,,,,,,,,,,534.6505139707948,535.3970140561038,535.3970275259488,615.4763770992112,615.4763770992112,538.4283218240993,None,1,,,538.428579033994,538.4286197642392,538.428629385557,538.4291309769229,616.9667201825742,616.9667201825742,616.9667201825742,616.9667201825742,618.4571065618671,618.4571065618671,,,,,s1,001,1,m,27,2024-01-19_13h07.43.352,eye_track_exp,2023.1.3,120.12975855194534,
168,0,180,0,180,180,180,0,12,180,None,abs,inhibit,freq_top,,,,,0,78,78,404,,,,,,,,538.4296453967125,538.4304449282187,,0.7745333901826925,,,,,,,,,,,,,,,,,,,,,,,538.4304555116681,539.2022901301956,539.2023052035935,619.2813959634083,619.2813959634083,542.2336620403095,None,1,,,542.2339599804494,542.2339991071418,542.2340080870382,542.2344253315185,620.7717942089931,620.7717942089931,620.7717942089931,620.7717942089931,622.262137292356,622.262137292356,,,,,s1,001,1,m,27,2024-01-19_13h07.43.352,eye_track_exp,2023.1.3,120.12975855194534,
-12,0,0,-168,0,0,270,0,0,0,None,present,inhibit,freq_top,,,,,0,79,79,239,,,,,,,,542.2349541832849,542.2359676287557,,0.8715349837335015,,,,,,,,,,,,,,,,,,,,,,,542.2359788536265,543.1073383073409,543.1073533807386,623.1863434374276,623.1863434374276,546.1382346036465,None,1,,,546.1384841164873,546.1385248467324,546.1385341473396,546.1389023230992,624.6767375137746,624.6767375137746,624.6767375137746,624.6767375137746,626.1671075368273,626.1671075368273,,,,,s1,001,1,m,27,2024-01-19_13h07.43.352,eye_track_exp,2023.1.3,120.12975855194534,
90,0,168,0,12,0,0,180,180,180,None,present,inhibit,freq_top,,,,,0,80,80,23,,,,,,,,546.1394369476562,546.3462211953782,,0.8669781276997803,,,,,,,,,,,,,,,,,,,,,,,546.3462333823808,547.2199170257558,547.2199311370217,627.2994846822209,627.2994846822209,550.2516692986316,None,1,,,550.251925225684,550.2519993098309,550.2520079690167,550.2525143710417,628.7898563088264,628.7898563088264,628.7898563088264,628.7898563088264,630.2802426881193,630.2802426881193,,,,,s1,001,1,m,27,2024-01-19_13h07.43.352,eye_track_exp,2023.1.3,120.12975855194534,
0,12,0,0,168,0,180,180,180,180,None,abs,inhibit,freq_top,,,,,0,81,81,347,,,,,,,,550.2530396949913,550.4769437948274,,0.7706374125881891,,,,,,,,,,,,,,,,,,,,,,,550.4769569439617,551.2497504871593,551.2497652398466,631.3293611188438,631.3293611188438,554.2811198315884,None,1,,,554.281378003615,554.2814261102038,554.2814347693899,554.2818010208861,632.8197147856564,632.8197147856564,632.8197147856564,632.8197147856564,634.3100886572362,634.3100886572362,,,,,s1,001,1,m,27,2024-01-19_13h07.43.352,eye_track_exp,2023.1.3,120.12975855194534,
0,0,0,0,168,180,180,180,0,12,None,abs,inhibit,freq_top,,,,,0,82,82,411,,,,,,,,554.2823154406757,554.5567009912523,,0.8074889513431396,,,,,,,,,,,,,,,,,,,,,,,554.5567147818077,555.3628715271853,555.3628856384515,635.4424452771517,635.4424452771517,558.394287695361,None,1,,,558.3945288697261,558.394568317129,558.3945856355009,571.049929507812,636.9328169037573,636.9328169037573,636.9328169037573,636.9328169037573,638.4232093765514,638.4232093765514,,,,,s1,001,1,m,27,2024-01-19_13h07.43.352,eye_track_exp,2023.1.3,120.12975855194534,
180,180,270,0,0,0,0,12,0,12,j,present,resp,freq_top,,,,,0,83,83,580,,,,,,,,571.0504792057667,571.2593002864588,,0.921150332977254,,,,,,,,,,,,,,,,,,,,,,,571.2593140770142,572.1821414872505,572.1821559192271,652.2612277571169,652.2612277571169,573.9152480568144,j,1,1.6988813844086508,None,573.9156418894216,573.9156848646409,573.9156951273798,573.9160684345089,653.7515990630119,653.7515990630119,653.7515990630119,653.7515990630119,,,,,,,s1,001,1,m,27,2024-01-19_13h07.43.352,eye_track_exp,2023.1.3,120.12975855194534,
180,12,0,270,180,-168,180,180,0,180,None,present,inhibit,freq_top,,,,,0,84,84,107,,,,,,,,573.916582533588,574.189058252589,,0.9126309722928188,,,,,,,,,,,,,,,,,,,,,,,574.1890723638552,575.1048406132501,575.1048553659372,655.1920273912502,655.1920273912502,578.1440577458665,None,1,,,578.1443011652058,578.1443386883451,578.1443473475309,578.1448255270237,656.6740675980958,656.6740675980958,656.6740675980958,656.6740675980958,658.1561530251348,658.1561530251348,,,,,s1,001,1,m,27,2024-01-19_13h07.43.352,eye_track_exp,2023.1.3,120.12975855194534,
270,0,0,0,168,180,180,180,180,12,None,present,inhibit,freq_top,,,,,0,85,85,148,,,,,,,,578.1453046686482,578.2858634619555,,0.7266915901213237,,,,,,,,,,,,,,,,,,,,,,,578.2858762903792,579.0182914079068,579.0183051984621,659.1053223205594,659.1053223205594,582.0569319028785,None,1,,,582.057173718665,582.0572147696208,582.0572237495174,582.0575742861944,660.5873705451696,660.5873705451696,660.5873705451696,660.5873705451696,662.0777434546177,662.0777434546177,,,,,s1,001,1,m,27,2024-01-19_13h07.43.352,eye_track_exp,2023.1.3,120.12975855194534,
0,-12,0,90,180,180,180,180,0,-12,j,present,resp,freq_top,,,,,0,86,86,736,,,,,,,,582.0580652941109,582.2402879211412,,0.8795461377798461,,,,,,,,,,,,,,,,,,,,,,,582.2403007495649,583.1226759706948,583.1226904026713,663.2017462050316,663.2017462050316,584.3561215313547,j,1,1.1896086790609388,None,584.3564816893494,584.3565214574629,584.356530116649,584.3570814181566,,,,,,,,,,,s1,001,1,m,27,2024-01-19_13h07.43.352,eye_track_exp,2023.1.3,120.12975855194534,
90,0,12,0,180,180,0,0,180,-168,None,present,inhibit,freq_top,,,,,0,87,87,310,,,,,,,,584.3575644083081,584.6218020343314,,0.8871725878665555,,,,,,,,,,,,,,,,,,,,,,,584.6218161455976,585.5124195176769,585.5124333082325,665.591378786149,665.591378786149,588.5435502534255,None,1,,,588.5437859757106,588.5438247816923,588.5438334408783,588.5444806348531,667.0817651654419,667.0817651654419,667.0817651654419,667.0817651654419,668.5721460926546,668.5721460926546,,,,,s1,001,1,m,27,2024-01-19_13h07.43.352,eye_track_exp,2023.1.3,120.12975855194534,
12,0,168,0,0,90,0,0,180,180,None,present,inhibit,freq_top,,,,,0,88,88,55,,,,,,,,588.5449886404309,588.7350824675217,,0.7976494591225998,,,,,,,,,,,,,,,,,,,,,,,588.7350956166559,589.5333801998412,589.5333949525285,669.6129093710352,669.6129093710352,592.5648771870859,None,1,,,592.5651202857147,592.5651606952493,592.5651780136212,592.5655840332307,671.1032912603799,671.1032912603799,671.1032912603799,671.1032912603799,672.5936468514559,672.5936468514559,,,,,s1,001,1,m,27,2024-01-19_13h07.43.352,eye_track_exp,2023.1.3,120.12975855194534,
0,0,168,0,0,168,0,180,180,180,f,abs,resp,freq_top,,,,,0,89,89,764,,,,,,,,592.5661106400229,592.8480909381298,,0.9785079385133821,,,,,,,,,,,,,,,,,,,,,,,592.8481047286854,593.8298739350804,593.829887725636,673.9091952858108,673.9091952858108,594.731101166232,f,1,0.8654433925189551,None,594.7314674177281,594.7315068651309,594.7315155243169,594.7319006977381,,,,,,,,,,,s1,001,1,m,27,2024-01-19_13h07.43.352,eye_track_exp,2023.1.3,120.12975855194534,
270,180,180,-168,180,180,180,180,12,180,None,present,inhibit,freq_top,,,,,0,90,90,82,,,,,,,,594.7323920263649,595.0300153043096,,0.870892931331317,,,,,,,,,,,,,,,,,,,,,,,595.0300287741544,595.9039080509905,595.9039221622564,675.9907138248074,675.9907138248074,598.9427685534284,None,1,,,598.9430126141891,598.9430517408813,598.9430604000673,598.9435674435132,677.4811213709994,677.4811213709994,677.4811213709994,677.4811213709994,678.9548368930072,678.9548368930072,,,,,s1,001,1,m,27,2024-01-19_13h07.43.352,eye_track_exp,2023.1.3,120.12975855194534,
180,180,180,168,180,180,168,180,0,180,f,abs,resp,freq_top,,,,,0,91,91,854,,,,,,,,598.9440552443237,599.1343575332993,,0.898986594168356,,,,,,,,,,,,,,,,,,,,,,,599.1343710031443,600.0325197333228,600.0325338445888,680.1121746230689,680.1121746230689,601.3329123472296,j,0,1.2539605421973192,None,601.3332789194363,601.8389532519412,601.8389651182332,601.8400038998408,,,,,,,681.3944243180732,,,,s1,001,1,m,27,2024-01-19_13h07.43.352,eye_track_exp,2023.1.3,120.12975855194534,
0,270,0,-168,0,180,180,180,0,-12,None,present,inhibit,freq_top,,,,,0,92,92,333,,,,,,,,601.8405378829765,601.8415734574784,,0.7665443983297896,,,,,,,,,,,,,,,,,,,,,,,601.8415843616384,602.6061892012896,602.6062036332661,682.6932643720039,682.6932643720039,605.6457430800275,None,1,,,605.6459784816021,605.6467273408347,605.6467376035736,605.6472019925108,684.1836337536353,684.1836337536353,684.1836337536353,684.1836337536353,685.657369801121,685.657369801121,,,,,s1,001,1,m,27,2024-01-19_13h07.43.352,eye_track_exp,2023.1.3,120.12975855194534,
0,0,0,168,0,0,168,0,0,0,f,abs,resp,freq_top,,,,,0,93,93,1000,,,,,,,,605.6477006974814,605.8459081818404,,0.7485787158506387,,,,,,,,,,,,,,,,,,,,,,,605.8459210102641,606.5938488991288,606.5938626896842,686.6731455551436,686.6731455551436,607.4107718990814,f,1,0.7724600912779351,None,607.4111391127093,607.4111779186909,607.4111868985875,607.4117250509609,,,,,,,,,,,s1,001,1,m,27,2024-01-19_13h07.43.352,eye_track_exp,2023.1.3,120.12975855194534,
0,12,180,0,270,180,0,180,-12,0,j,present,resp,freq_top,,,,,0,94,94,708,,,,,,,,607.4121961748207,607.6272159498357,,0.717922231254866,,,,,,,,,,,,,,,,,,,,,,,607.6272294196807,608.350814733188,608.3508288444542,688.4299763700436,688.4299763700436,609.534203463931,j,1,1.1432894103836588,None,609.5345668290319,609.5346065971452,609.5346155770418,609.534984073512,,,,,,,,,,,s1,001,1,m,27,2024-01-19_13h07.43.352,eye_track_exp,2023.1.3,120.12975855194534,
12,0,12,0,270,180,180,0,180,180,j,present,resp,freq_top,,,,,0,95,95,456,,,,,,,,609.5354757228496,609.7665554014719,,0.7025496076695529,,,,,,,,,,,,,,,,,,,,,,,609.7665685506062,610.4741189759326,610.4741334079093,690.5531148054121,690.5531148054121,611.3248557764467,j,1,0.8122798390968455,None,611.3252201036793,611.3252589096609,611.3252678895575,611.3256636464281,,,,,,,,,,,s1,001,1,m,27,2024-01-19_13h07.43.352,eye_track_exp,2023.1.3,120.12975855194534,
0,-168,180,270,0,180,0,-168,0,0,f,present,resp,freq_top,,,,,0,96,96,681,,,,,,,,611.3261450330268,611.573558502102,,1.0317598476251004,,,,,,,,,,,,,,,,,,,,,,,611.5735716512362,612.6052552920454,612.6052694033116,692.6846273150494,692.6846273150494,613.4888299707897,f,1,0.8403898017791107,None,613.4892023157871,613.4892430460324,613.4892520259287,613.4897465616617,,,,,,,,,,,s1,001,1,m,27,2024-01-19_13h07.43.352,eye_track_exp,2023.1.3,120.12975855194534,
90,180,180,0,168,0,-12,180,180,180,None,present,inhibit,freq_top,,,,,0,97,97,31,,,,,,,,613.4902446252112,613.7050687667651,,0.8430551141324069,,,,,,,,,,,,,,,,,,,,,,,613.7050819158995,614.5538348006911,614.5538501947996,694.6329528209063,694.6329528209063,617.5851570006633,None,1,,,617.585391440106,617.5854318496407,617.5854405088265,617.5858882208132,696.1233257303544,696.1233257303544,696.1233257303544,696.1233257303544,697.6137089025411,697.6137089025411,,,,,s1,001,1,m,27,2024-01-19_13h07.43.352,eye_track_exp,2023.1.3,120.12975855194534,
168,0,180,0,180,0,168,180,180,180,f,abs,resp,freq_top,,,,,0,98,98,762,,,,,,,,617.5863673624377,617.7762828744393,,1.0917937521718264,,,,,,,,,,,,,,,,,,,,,,,617.7762960235735,618.8747160107708,618.8747304427474,698.9625442099551,698.9625442099551,619.7173375504639,f,1,0.7860194143991066,None,619.7177111783036,619.7177528706806,619.7177615298666,619.7180209847355,,,,,,,,,,,s1,001,1,m,27,2024-01-19_13h07.43.352,eye_track_exp,2023.1.3,120.12975855194534,
0,0,0,-168,180,180,180,180,0,12,None,abs,inhibit,freq_top,,,,,0,99,99,339,,,,,,,,619.7185254624968,620.0331322905535,,0.9179947676135983,,,,,,,,,,,,,,,,,,,,,,,620.0331457603985,620.9566117054236,620.9566258166896,701.0357727008578,701.0357727008578,623.9884226683379,None,1,,,623.9886894995503,623.9887305505061,623.9887395304028,623.9892430460324,702.5261193120374,702.5261193120374,702.5261193120374,702.5261193120374,704.0082182089212,704.0082182089212,,,,,s1,001,1,m,27,2024-01-19_13h07.43.352,eye_track_exp,2023.1.3,120.12975855194534,
180,0,180,168,180,168,180,0,180,180,f,abs,resp,freq_top,,,,,0,100,100,790,,,,,,,,623.9897465616617,624.1711388689693,,0.7950720826888356,,,,,,,,,,,,,,,,,,,,,,,624.1711520181035,624.969438846263,624.9694526368183,705.0489388327932,705.0489388327932,625.9200170233183,f,1,0.9075796329441346,None,625.9203787848661,625.9204185529794,625.920427532876,625.9207944257934,,,,,,,,,,,s1,001,1,m,27,2024-01-19_13h07.43.352,eye_track_exp,2023.1.3,120.12975855194534,
90,180,180,-168,0,180,-12,180,0,180,None,present,inhibit,freq_top,,,,,0,101,101,132,,,,,,,,625.9212713224437,626.2275938751974,,0.7049222896559153,,,,,,,,,,,,,,,,,,,,,,,626.2276070243316,626.9348675272828,626.934881638549,707.0138954278215,707.0138954278215,629.9663840778736,None,1,,,629.9666214037119,629.9666608511146,629.9666695103007,629.967157311111,708.5042888627476,708.5042888627476,708.5042888627476,708.5042888627476,709.9946832598051,709.9946832598051,,,,,s1,001,1,m,27,2024-01-19_13h07.43.352,eye_track_exp,2023.1.3,120.12975855194534,
0,12,0,270,0,0,-12,0,0,0,j,present,resp,freq_top,,,,,0,102,102,678,,,,,,,,629.9676431876582,630.274118077943,,0.9627206654518605,,,,,,,,,,,,,,,,,,,,,,,630.2741312270772,631.2388816051949,631.2388969993034,711.318495764696,711.318495764696,632.4397509874678,j,1,1.1655149751231875,None,632.4401072969357,632.4401464236279,632.4401550828139,632.4405652716611,,,,,,,,,,,s1,001,1,m,27,2024-01-19_13h07.43.352,eye_track_exp,2023.1.3,120.12975855194534,
12,0,270,180,0,180,168,180,0,0,None,present,inhibit,freq_top,,,,,0,103,103,217,,,,,,,,632.4410543553139,632.6804388347174,,1.082786072924848,,,,,,,,,,,,,,,,,,,,,,,632.6804513424305,633.7623614690598,633.7623755803257,713.8496511951602,713.8496511951602,636.8020939835975,None,1,,,636.8023335544098,636.8023746053656,636.8023839059728,636.8026549064231,715.340044630086,715.340044630086,715.340044630086,715.340044630086,716.8137861296517,716.8137861296517,,,,,s1,001,1,m,27,2024-01-19_13h07.43.352,eye_track_exp,2023.1.3,120.12975855194534,
0,0,180,0,180,180,168,0,168,0,f,abs,resp,freq_top,,,,,0,104,104,947,,,,,,,,636.8031606670266,637.051543323511,,0.878528408917226,,,,,,,,,,,,,,,,,,,,,,,637.0515564726453,637.9337771112699,637.9337925053784,718.0210687616337,718.0210687616337,638.8334617244738,f,1,0.8469563511509932,None,638.8338202789156,638.8338606884503,638.8338699890575,638.8342352784217,,,,,,,,,,,s1,001,1,m,27,2024-01-19_13h07.43.352,eye_track_exp,2023.1.3,120.12975855194534,
0,0,0,0,168,0,0,168,0,0,f,abs,resp,freq_top,,,,,0,105,105,987,,,,,,,,638.8347545088703,639.0662353964432,,0.7298926938255171,,,,,,,,,,,,,,,,,,,,,,,639.0662482248669,639.7985350581577,639.7985494901344,719.877790342506,719.877790342506,640.4001643962496,f,1,0.5578322246065,None,640.4005383447999,640.400580678598,640.4005896584946,640.4009639277555,,,,,,,,,,,s1,001,1,m,27,2024-01-19_13h07.43.352,eye_track_exp,2023.1.3,120.12975855194534,
270,0,0,12,180,0,180,-168,0,0,None,present,inhibit,freq_top,,,,,0,106,106,289,,,,,,,,640.4014632741472,640.599035751534,,1.0011689616298103,,,,,,,,,,,,,,,,,,,,,,,640.5990495420893,641.6052543299137,641.6052694033116,721.6928939512701,721.6928939512701,644.6449922965315,None,1,,,644.6452466200311,644.6452870295658,644.6452963301728,644.6457504563713,723.1749293474567,723.1749293474567,723.1749293474567,723.1749293474567,724.6653077089846,724.6653077089846,,,,,s1,001,1,m,27,2024-01-19_13h07.43.352,eye_track_exp,2023.1.3,120.12975855194534,
270,0,0,0,168,180,180,180,180,12,None,present,inhibit,freq_top,,,,,0,107,107,150,,,,,,,,644.6462789874269,644.6470329780287,,0.9418422160947308,,,,,,,,,,,,,,,,,,,,,,,644.647043882189,645.5857567294703,645.5857750099741,725.6812752479415,725.6812752479415,648.6331144590446,None,1,,,648.6333598026475,648.6334002121822,648.6334091920788,648.6340688937665,727.1631339325919,727.1631339325919,727.1631339325919,727.1631339325919,728.6452212838943,728.6452212838943,,,,,s1,001,1,m,27,2024-01-19_13h07.43.352,eye_track_exp,2023.1.3,120.12975855194534,
-168,0,0,180,0,180,168,180,180,180,f,abs,resp,freq_top,,,,,0,108,108,754,,,,,,,,648.6345557324454,648.8086467424142,,0.7290979824608412,,,,,,,,,,,,,,,,,,,,,,,648.8086595708379,649.5403091521824,649.540323584159,729.6193774622556,729.6193774622556,650.3905607175708,f,1,0.8156921997961035,None,650.3909397974904,650.3909789241828,650.3909875833687,650.3914009793219,,,,,,,,,,,s1,001,1,m,27,2024-01-19_13h07.43.352,eye_track_exp,2023.1.3,120.12975855194534,
90,0,12,0,0,180,180,0,168,0,None,present,inhibit,freq_top,,,,,0,109,109,194,,,,,,,,650.3918865351583,650.5981865098862,,0.7606381756083893,,,,,,,,,,,,,,,,,,,,,,,650.5981990175993,651.3634183387447,651.3634330914321,731.4427592528212,731.4427592528212,654.3946815279679,None,1,,,654.3949159674106,654.3949554148136,654.3949643947102,654.3954438570453,732.9331751374888,732.9331751374888,732.9331751374888,732.9331751374888,734.4235531783062,734.4235531783062,,,,,s1,001,1,m,27,2024-01-19_13h07.43.352,eye_track_exp,2023.1.3,120.12975855194534,
0,180,0,180,168,180,0,180,-12,180,None,abs,inhibit,freq_top,,,,,0,110,110,410,,,,,,,,654.3959297335922,654.561478616942,,0.756916457384136,,,,,,,,,,,,,,,,,,,,,,,654.5614908039446,655.3185307221505,655.3185448334165,735.3976904347425,735.3976904347425,658.349710205909,None,1,,,658.3499424003777,658.3499802442276,658.3499889034136,658.3503522685143,736.8964178551133,736.8964178551133,736.8964178551133,736.8964178551133,738.3701375463587,738.3701375463587,,,,,s1,001,1,m,27,2024-01-19_13h07.43.352,eye_track_exp,2023.1.3,120.12975855194534,
168,180,270,180,180,12,0,0,0,0,None,present,inhibit,freq_top,,,,,0,111,111,260,,,,,,,,658.3508397486142,658.5832330578215,,0.8201229733647528,,,,,,,,,,,,,,,,,,,,,,,658.5832462069558,659.4067639788126,659.4067944463189,739.4858422309143,739.4858422309143,662.4379450661241,None,1,,,662.4382106144943,662.4382497411865,662.4382590417937,662.4386301039486,740.9761923699101,740.9761923699101,740.9761923699101,740.9761923699101,742.4666092167093,742.4666092167093,,,,,s1,001,1,m,27,2024-01-19_13h07.43.352,eye_track_exp,2023.1.3,120.12975855194534,
90,0,180,168,180,180,0,168,0,0,f,present,resp,freq_top,,,,,0,112,112,640,,,,,,,,662.4391339402888,662.6380508364774,,0.9345513723105298,,,,,,,,,,,,,,,,,,,,,,,662.6380723240871,663.5776712947344,663.5776854060003,743.6572322162771,743.6572322162771,664.5455316034632,f,1,0.9212233029506933,None,664.5458917614579,664.5459315295715,664.5459405094681,664.5463045159901,,,,,,,,,,,s1,001,1,m,27,2024-01-19_13h07.43.352,eye_track_exp,2023.1.3,120.12975855194534,
0,0,180,180,180,12,0,-168,0,0,None,abs,inhibit,freq_top,,,,,0,113,113,364,,,,,,,,664.5467871854311,664.7855199809113,,0.8538614580327445,,,,,,,,,,,,,,,,,,,,,,,664.7855321679139,665.6430593737933,665.6430731643487,745.7221206282337,745.7221206282337,668.6740255850083,None,1,,,668.6742561759239,668.6742949819055,668.6743039618021,668.6746689304558,747.220783906486,747.220783906486,747.220783906486,747.220783906486,748.6945391966073,748.6945391966073,,,,,s1,001,1,m,27,2024-01-19_13h07.43.352,eye_track_exp,2023.1.3,120.12975855194534,
180,180,12,180,168,0,180,90,0,180,None,present,inhibit,freq_top,,,,,0,114,114,101,,,,,,,,668.6751564105558,668.8573498529221,,0.7959290854150655,,,,,,,,,,,,,,,,,,,,,,,668.8573620399246,669.6559294898522,669.6559436011181,749.7352938158018,749.7352938158018,672.6873123041261,None,1,,,672.6875435364628,672.687582663155,672.6875916430516,672.6880528248831,751.2257157939704,751.2257157939704,751.2257157939704,751.2257157939704,752.7160668950982,752.7160668950982,,,,,s1,001,1,m,27,2024-01-19_13h07.43.352,eye_track_exp,2023.1.3,120.12975855194534,
0,270,180,180,180,0,-12,0,-12,0,j,present,resp,freq_top,,,,,0,115,115,716,,,,,,,,672.6885281179806,672.9625525484306,,0.9252392308134051,,,,,,,,,,,,,,,,,,,,,,,672.9625650561437,673.8941776916278,673.8941914821834,753.9733056538713,753.9733056538713,675.3102486918216,j,1,1.3730134453335268,None,675.3106364309273,675.3106761990408,675.3106848582266,675.3110636174359,,,,,,,,,,,s1,001,1,m,27,2024-01-19_13h07.43.352,eye_track_exp,2023.1.3,120.12975855194534,
180,180,90,180,-12,180,-12,180,180,180,j,present,resp,freq_top,,,,,0,116,116,444,,,,,,,,675.311572905856,675.6350688693925,,0.7148752117966264,,,,,,,,,,,,,,,,,,,,,,,675.6350826599481,676.3503448921707,676.3503593241475,756.4295222438453,756.4295222438453,677.1098129102689,j,1,0.7238919999292648,None,677.1101817274499,677.1102304754598,677.110239776067,677.1106172524338,,,,,,,,,,,s1,001,1,m,27,2024-01-19_13h07.43.352,eye_track_exp,2023.1.3,120.12975855194534,
90,180,168,0,0,180,180,12,180,180,None,present,inhibit,freq_top,,,,,0,117,117,33,,,,,,,,677.1111117881668,677.40866932044,,0.8620741097420456,,,,,,,,,,,,,,,,,,,,,,,677.4086821488637,678.2738640751542,678.2738785071307,758.3528602253442,758.3528602253442,681.3051962171545,None,1,,,681.3054373915196,681.305476518212,681.3054851773978,681.305927758015,759.8432225513426,759.8432225513426,759.8432225513426,759.8432225513426,761.3336153448473,761.3336153448473,,,,,s1,001,1,m,27,2024-01-19_13h07.43.352,eye_track_exp,2023.1.3,120.12975855194534,
180,-12,180,180,270,180,0,180,-12,180,j,present,resp,freq_top,,,,,0,118,118,545,,,,,,,,681.3064232558796,681.329262660692,,0.9237161727697198,,,,,,,,,,,,,,,,,,,,,,,681.3292738855629,682.2532497604292,682.2532638716954,762.3327215244273,762.3327215244273,683.9118613529625,j,1,1.6207046497813735,None,683.9122247180634,683.9122638447556,683.9122728246522,683.9126496595978,763.8231063001673,763.8231063001673,763.8231063001673,763.8231063001673,,,,,,,s1,001,1,m,27,2024-01-19_13h07.43.352,eye_track_exp,2023.1.3,120.12975855194534,
180,-168,0,180,0,180,-168,0,180,180,f,abs,resp,freq_top,,,,,0,119,119,809,,,,,,,,683.9131406675143,684.1524638911945,,1.0088432069779756,,,,,,,,,,,,,,,,,,,,,,,684.1524767196182,685.1681501669619,685.1681645989387,765.2468984078645,765.2468984078645,686.017633951193,f,1,0.802197339504346,None,686.0179973162939,686.018036442986,686.0180451021721,686.0184267477765,,,,,,,,,,,s1,001,1,m,27,2024-01-19_13h07.43.352,eye_track_exp,2023.1.3,120.12975855194534,
-12,0,90,180,12,180,180,180,0,180,j,present,resp,freq_top,,,,,0,120,120,505,,,,,,,,686.0189145485871,686.2260971188645,,1.0846514653516928,,,,,,,,,,,,,,,,,,,,,,,686.2261093058668,687.3157671589789,687.3157825530872,767.3950525901229,767.3950525901229,688.3580294386667,j,1,1.0062003849720895,None,688.358387672398,688.3584264783796,688.358434816855,688.358840515754,,,,,,,,,,,s1,001,1,m,27,2024-01-19_13h07.43.352,eye_track_exp,2023.1.3,120.12975855194534,
180,-168,180,270,0,180,180,180,12,0,None,present,inhibit,freq_top,,,,,0,121,121,212,,,,,,,,688.3593145260089,688.7321858094543,,0.779047531826235,,,,,,,,,,,,,,,,,,,,,,,688.7321989585886,689.5141151145771,689.5141289051325,769.601466417111,769.601466417111,692.5535968334319,None,1,,,692.5538466669831,692.553886114386,692.5538950942824,692.554371990933,771.0918486271663,771.0918486271663,771.0918486271663,771.0918486271663,772.5655590178047,772.5655590178047,,,,,s1,001,1,m,27,2024-01-19_13h07.43.352,eye_track_exp,2023.1.3,120.12975855194534,
-12,180,180,-12,0,270,0,180,180,180,j,present,resp,freq_top,,,,,0,122,122,434,,,,,,,,692.5548626781386,692.7694071600564,,0.8006391090399203,,,,,,,,,,,,,,,,,,,,,,,692.7694203091907,693.5771713069213,693.5771850974769,773.664629085372,773.664629085372,695.4270678456843,j,1,1.8077331250335646,None,695.4274369835758,695.4274770723997,695.4274860522963,695.4279735323963,775.1550449700393,775.1550449700393,775.1550449700393,775.1550449700393,,,,,,,s1,001,1,m,27,2024-01-19_13h07.43.352,eye_track_exp,2023.1.3,120.12975855194534,
12,180,90,180,168,0,180,0,180,180,None,present,inhibit,freq_top,,,,,0,123,123,41,,,,,,,,695.4284706338138,695.6427011400621,,0.983072553078888,,,,,,,,,,,,,,,,,,,,,,,695.6427139684857,696.6242846550246,696.6242984455799,776.70363583184,776.70363583184,699.656141800264,None,1,,,699.6563746361538,699.6564144042674,699.6564230634532,699.6567729587092,778.1940433780318,778.1940433780318,778.1940433780318,778.1940433780318,779.6844143632164,779.6844143632164,,,,,s1,001,1,m,27,2024-01-19_13h07.43.352,eye_track_exp,2023.1.3,120.12975855194534,
-12,0,90,0,0,-12,0,0,0,0,j,present,resp,freq_top,,,,,0,124,124,674,,,,,,,,699.6572578731244,699.8303460210719,,1.0919847305708303,,,,,,,,,,,,,,,,,,,,,,,699.8303582080745,700.929136429003,700.9291511816904,781.0082826717502,781.0082826717502,701.5963318405323,j,1,0.6236064392182925,None,701.596694564212,701.5967340116148,701.5967426708008,752.9174943138013,,,,,,,,,,,s1,001,1,m,27,2024-01-19_13h07.43.352,eye_track_exp,2023.1.3,120.12975855194534,
0,0,12,0,180,180,180,180,180,-168,None,abs,inhibit,freq_top,,,,,0,125,125,382,,,,,,,,752.918069989314,752.9512866267531,,0.943486877104906,,,,,,,,,,,,,,,,,,,,,,,752.9512988137557,753.8999267497007,753.8999415023881,833.9791303996439,833.9791303996439,756.9309654415096,None,1,,,756.9312037294793,756.9312444597246,756.9312534396212,756.9317162250055,835.4695273623864,835.4695273623864,835.4695273623864,835.4695273623864,836.9599009132556,836.9599009132556,,,,,s1,001,1,m,27,2024-01-19_13h07.43.352,eye_track_exp,2023.1.3,120.12975855194534,
12,0,168,0,0,0,0,0,180,180,None,abs,inhibit,freq_top,,,,,0,126,126,390,,,,,,,,756.9322040258158,757.1224174779576,,0.7372502804854146,,,,,,,,,,,,,,,,,,,,,,,757.1224303063813,757.8627987258809,757.8628125164365,837.9423875492452,837.9423875492452,760.894371721536,None,1,,,760.8946154615859,760.8946539468569,760.8946629267535,760.8951430305098,839.4327745699592,839.4327745699592,839.4327745699592,839.4327745699592,840.9231131633738,840.9231131633738,,,,,s1,001,1,m,27,2024-01-19_13h07.43.352,eye_track_exp,2023.1.3,120.12975855194534,
0,0,-12,0,12,0,0,180,180,180,j,present,resp,freq_top,,,,,0,127,127,440,,,,,,,,760.8956266620827,761.0781507570695,,0.7949181496743579,,,,,,,,,,,,,,,,,,,,,,,761.0781632647826,761.8765523996209,761.8765684351505,841.9638992122065,841.9638992122065,763.3348022947486,j,1,1.4091049325199947,None,763.3351570006633,763.3351964480661,763.3352051072521,763.3355796972236,,,,,,,,,,,s1,001,1,m,27,2024-01-19_13h07.43.352,eye_track_exp,2023.1.3,120.12975855194534,
180,0,180,168,180,168,180,0,180,180,f,abs,resp,freq_top,,,,,0,128,128,786,,,,,,,,763.3360626873751,763.5752547404232,,0.7234263387420417,,,,,,,,,,,,,,,,,,,,,,,763.5752678895575,764.2991989290832,764.2992130403492,844.3784891708862,844.3784891708862,764.9829426864516,f,1,0.6421200995650906,None,764.9832929024182,764.9833326705315,764.9833413297175,764.9837566499342,,,,,,,,,,,s1,001,1,m,27,2024-01-19_13h07.43.352,eye_track_exp,2023.1.3,120.12975855194534,
0,180,180,180,180,-168,0,0,0,12,None,abs,inhibit,freq_top,,,,,0,129,129,351,,,,,,,,764.9842515063777,765.2076883308811,,0.9018164530555635,,,,,,,,,,,,,,,,,,,,,,,765.2077005178834,766.1143211390614,766.1143349296168,846.1935940624925,846.1935940624925,769.1454679103396,None,1,,,769.145763284795,769.1458011286448,769.1458097878307,769.1461975269366,847.6839486914367,847.6839486914367,847.6839486914367,847.6839486914367,849.1660161586825,849.1660161586825,,,,,s1,001,1,m,27,2024-01-19_13h07.43.352,eye_track_exp,2023.1.3,120.12975855194534,
0,270,0,-168,0,0,-168,0,180,0,f,present,resp,freq_top,,,,,0,130,130,607,,,,,,,,769.1466862898789,769.6535443651791,,0.9572723541059954,,,,,,,,,,,,,,,,,,,,,,,769.6535575143133,770.6104007727844,770.610415846182,850.6896999944839,850.6896999944839,772.9849884993181,f,1,2.3305224989935596,None,772.9853380738635,772.985376238424,772.9853848976101,772.9857363964189,852.1800834873815,852.1800834873815,852.1800834873815,852.1800834873815,,,,,,,s1,001,1,m,27,2024-01-19_13h07.43.352,eye_track_exp,2023.1.3,120.12975855194534,
270,180,-12,180,0,180,0,180,0,12,j,present,resp,freq_top,,,,,0,131,131,578,,,,,,,,772.9862293285988,773.1918208536289,,1.0477059525122083,,,,,,,,,,,,,,,,,,,,,,,773.191833361342,774.2408433918866,774.2408584652843,854.3281943737101,854.3281943737101,776.5480357117659,j,1,2.259327313244512,None,776.5483913798124,776.548430185794,776.5484388449801,776.5488050964763,855.8102717829842,855.8102717829842,855.8102717829842,855.8102717829842,,,,,,,s1,001,1,m,27,2024-01-19_13h07.43.352,eye_track_exp,2023.1.3,120.12975855194534,
90,180,180,-12,180,0,-12,180,0,0,j,present,resp,freq_top,,,,,0,132,132,638,,,,,,,,776.5492861623642,776.7552881969522,,0.8793707232474812,,,,,,,,,,,,,,,,,,,,,,,776.7553010253758,777.6379658481704,777.637979638726,857.7169565462806,857.7169565462806,778.3558601522221,j,1,0.6786641093970047,None,778.3562190273746,778.3562575126456,778.3562661718316,778.3566827748906,,,,,,,,,,,s1,001,1,m,27,2024-01-19_13h07.43.352,eye_track_exp,2023.1.3,120.12975855194534,
0,90,180,-12,180,0,180,12,0,0,j,present,resp,freq_top,,,,,0,133,133,647,,,,,,,,778.3571898183367,778.5786940408124,,0.8610057183943125,,,,,,,,,,,,,,,,,,,,,,,778.5787065485255,779.4446937791125,779.4447165495645,859.5237284145736,859.5237284145736,780.1199326122904,j,1,0.6325305321524866,None,780.1202940531276,780.1203335005306,780.1203421597164,780.1207247674528,,,,,,,,,,,s1,001,1,m,27,2024-01-19_13h07.43.352,eye_track_exp,2023.1.3,120.12975855194534,
180,180,0,12,0,180,0,180,0,-168,None,abs,inhibit,freq_top,,,,,0,134,134,381,,,,,,,,780.1211994191291,780.4363633214842,,1.0060233241158434,,,,,,,,,,,,,,,,,,,,,,,780.4363761499079,781.4424241102525,781.4424385422293,861.5220235170663,861.5220235170663,784.4742123027148,None,1,,,784.4744422522093,784.4744810581911,784.4744900380875,784.4748389712119,863.0123832773801,863.0123832773801,863.0123832773801,863.0123832773801,864.5027520175903,864.5027520175903,,,,,s1,001,1,m,27,2024-01-19_13h07.43.352,eye_track_exp,2023.1.3,120.12975855194534,
180,12,180,180,0,180,0,180,0,-168,None,abs,inhibit,freq_top,,,,,0,135,135,383,,,,,,,,784.4753238856268,784.4760807626241,,0.777201958776258,,,,,,,,,,,,,,,,,,,,,,,784.4760903839418,785.2560992740395,785.2561130645951,865.3353664246798,865.3353664246798,788.2871148746855,None,1,,,788.2873454656013,788.2873842715829,788.2873929307688,788.2877668793193,866.8257515211304,866.8257515211304,866.8257515211304,866.8257515211304,868.316152973821,868.316152973821,,,,,s1,001,1,m,27,2024-01-19_13h07.43.352,eye_track_exp,2023.1.3,120.12975855194534,
180,270,180,0,0,180,168,0,12,180,None,present,inhibit,freq_top,,,,,0,136,136,97,,,,,,,,788.2882610943415,788.4702749387765,,1.0292183175375507,,,,,,,,,,,,,,,,,,,,,,,788.4702874464894,789.5024845449567,789.5024989769332,869.5817051925611,869.5817051925611,792.5336954583532,None,1,,,792.5339347084549,792.5339751179894,792.5339837771754,792.5344199435807,871.080405031821,871.080405031821,871.080405031821,871.080405031821,872.5541122153533,872.5541122153533,,,,,s1,001,1,m,27,2024-01-19_13h07.43.352,eye_track_exp,2023.1.3,120.12975855194534,
180,-12,180,-168,0,180,0,90,180,180,None,present,inhibit,freq_top,,,,,0,137,137,7,,,,,,,,792.5349042165745,792.7252129197622,,0.92182866061914,,,,,,,,,,,,,,,,,,,,,,,792.7252257481858,793.6488289573443,793.6488430686103,873.7281208027001,873.7281208027001,796.6798974752379,None,1,,,796.6801290282855,796.6801671928459,796.6801758520318,796.6805260679984,875.2268180762752,875.2268180762752,875.2268180762752,875.2268180762752,876.7005396917845,876.7005396917845,,,,,s1,001,1,m,27,2024-01-19_13h07.43.352,eye_track_exp,2023.1.3,120.12975855194534,
12,0,90,0,0,-168,0,0,0,0,None,present,inhibit,freq_top,,,,,0,138,138,276,,,,,,,,796.6810093788605,796.8635193625813,,0.8741859620802435,,,,,,,,,,,,,,,,,,,,,,,796.8635318702944,797.7373550227768,797.7373694547535,877.8162434142081,877.8162434142081,800.7682753723772,None,1,,,800.7685069254245,800.7685463728275,800.7685550320133,800.7688994751892,879.3149464605739,879.3149464605739,879.3149464605739,879.3149464605739,880.7886821873489,880.7886821873489,,,,,s1,001,1,m,27,2024-01-19_13h07.43.352,eye_track_exp,2023.1.3,120.12975855194534,
180,180,168,0,0,0,0,168,0,180,f,abs,resp,freq_top,,,,,0,139,139,873,,,,,,,,800.7693856724467,800.7845568870035,,0.8870891101042523,,,,,,,,,,,,,,,,,,,,,,,800.784567470453,801.6755188135247,801.675533566212,881.754518812242,881.754518812242,802.8920568324826,f,1,1.167979636022892,None,802.8924185940303,802.8924580414333,802.8924667006191,802.8928756066242,,,,,,,,,,,s1,001,1,m,27,2024-01-19_13h07.43.352,eye_track_exp,2023.1.3,120.12975855194534,
90,0,180,0,180,180,12,0,180,-168,None,present,inhibit,freq_top,,,,,0,140,140,306,,,,,,,,802.893955118477,803.1163999851191,,1.0272274044272451,,,,,,,,,,,,,,,,,,,,,,,803.1164124928322,804.1484668750858,804.1484813070625,884.235696949016,884.235696949016,807.1875461021476,None,1,,,807.187787276513,807.187825761784,807.1878344209698,807.1881926547011,885.7260756312547,885.7260756312547,885.7260756312547,885.7260756312547,887.1998180929523,887.1998180929523,,,,,s1,001,1,m,27,2024-01-19_13h07.43.352,eye_track_exp,2023.1.3,120.12975855194534,
168,0,0,90,0,180,12,0,180,180,None,present,inhibit,freq_top,,,,,0,141,141,48,,,,,,,,807.1887070744909,807.1894674793047,,0.9320134654103142,,,,,,,,,,,,,,,,,,,,,,,807.189477421333,808.1192767591298,808.1192911911063,888.198932290297,888.198932290297,811.1509818875487,None,1,,,811.1512246654669,811.1512634714485,811.1512724513451,811.1517461408895,889.6893231595383,889.6893231595383,889.6893231595383,889.6893231595383,891.1796880512214,891.1796880512214,,,,,s1,001,1,m,27,2024-01-19_13h07.43.352,eye_track_exp,2023.1.3,120.12975855194534,
90,180,180,-168,0,180,-12,180,0,180,None,present,inhibit,freq_top,,,,,0,142,142,131,,,,,,,,811.1522349038318,811.3346589371139,,0.7387423974736996,,,,,,,,,,,,,,,,,,,,,,,811.3346724069587,812.0749484618078,812.0749622523634,892.1538487195309,892.1538487195309,815.1056985140837,None,1,,,815.1059329535266,815.1059714387976,815.105980418694,815.1065407000984,893.6525613872144,893.6525613872144,893.6525613872144,893.6525613872144,895.1262720985634,895.1262720985634,,,,,s1,001,1,m,27,2024-01-19_13h07.43.352,eye_track_exp,2023.1.3,120.12975855194534,
12,0,0,12,0,0,90,180,180,0,j,present,resp,freq_top,,,,,0,143,143,592,,,,,,,,815.1070252938031,815.2729019433779,,0.8361298583369396,,,,,,,,,,,,,,,,,,,,,,,815.2729147718015,816.1130132812672,816.1130273925331,896.1920062243513,896.1920062243513,817.670531443108,j,1,1.5135901984338034,None,817.6708877525756,817.6709268792678,817.6709358591644,817.6712915272111,897.6823993385666,897.6823993385666,897.6823993385666,897.6823993385666,,,,,,,s1,001,1,m,27,2024-01-19_13h07.43.352,eye_track_exp,2023.1.3,120.12975855194534,
270,0,180,-12,0,180,0,-12,0,0,j,present,resp,freq_top,,,,,0,144,144,688,,,,,,,,817.6717661788872,817.8950432895157,,0.999270489494763,,,,,,,,,,,,,,,,,,,,,,,817.8950557972288,818.8934750147206,818.8934888052762,898.9729618521166,898.9729618521166,821.9250040730245,None,0,,,821.9252490959169,822.4315885821899,822.4315998070605,822.4322001772888,900.4633395722234,900.4633395722234,900.4633395722234,900.4633395722234,901.9537076710125,901.9537076710125,901.9870253322882,,,,s1,001,1,m,27,2024-01-19_13h07.43.352,eye_track_exp,2023.1.3,120.12975855194534,
0,90,180,180,12,0,0,0,168,0,None,present,inhibit,freq_top,,,,,0,145,145,205,,,,,,,,822.4327748906697,822.433543633959,,0.9840527344448793,,,,,,,,,,,,,,,,,,,,,,,822.4335538966978,823.4228341451588,823.4228485771354,903.5023681270117,903.5023681270117,826.4547134194291,None,1,,,826.4549420860814,826.4556787583111,826.4556890210503,826.4561736147547,904.9927214731136,904.9927214731136,904.9927214731136,904.9927214731136,906.4831193979877,906.4831193979877,,,,,s1,001,1,m,27,2024-01-19_13h07.43.352,eye_track_exp,2023.1.3,120.12975855194534,
0,168,0,0,0,0,0,168,0,0,f,abs,resp,freq_top,,,,,0,146,146,981,,,,,,,,826.4566643019606,826.6126845529103,,1.0550983338202062,,,,,,,,,,,,,,,,,,,,,,,826.6126980227551,827.6696408297938,827.6696549410598,907.7487133091048,907.7487133091048,829.9267432865653,f,1,2.211835526642517,None,829.927100237454,829.9271403262782,829.9271493061748,829.9280777633386,909.239071145155,909.239071145155,909.239071145155,909.239071145155,,,,,,,s1,001,1,m,27,2024-01-19_13h07.43.352,eye_track_exp,2023.1.3,120.12975855194534,
