ori10,ori11,ori12,ori13,ori14,ori16,ori17,ori18,ori19,ori20,corrAns,distractor,responses,dist_freq,practice_trials.thisRepN,practice_trials.thisTrialN,practice_trials.thisN,practice_trials.thisIndex,trials.thisRepN,trials.thisTrialN,trials.thisN,trials.thisIndex,intro_2.started,intro_2.stopped,key_resp.keys,key_resp.rt,key_resp.duration,start_et_record_2.started,start_et_record_2.stopped,fix_check_3.started,fix_check_3.stopped,fix_practice_2.started,fixdur,fix_practice_2.stopped,practice_search_2.started,int14_2.started,per15_2.started,practice_search_2.stopped,response_2.keys,response_2.corr,feedback_4.started,feedback_4.stopped,pause_pract_2.started,pause_pract_2.stopped,response_2.rt,response_2.duration,text_feedback.started,stop_et_record_2.started,stop_et_record_2.stopped,break_3.started,break_3.stopped,key_resp_2.keys,key_resp_2.rt,key_resp_2.duration,fix_check_2.started,fix_check_2.stopped,fixation_2.started,fixation_2.stopped,search_displays_2.started,int14.started,per15.started,search_displays_2.stopped,response.keys,response.corr,response.rt,response.duration,feedback_6.started,feedback_6.stopped,pause_4.started,pause_4.stopped,int14.stopped,int14_3.started,per15.stopped,per15_3.started,int14_3.stopped,per15_3.stopped,text_feedback_2.started,participant,session,group,age,gender,date,expName,psychopyVersion,frameRate,
,,,,,,,,,,,,,,,,,,,,,,1.0904366490649409e-05,0.550919382415259,space,0.5404861478587009,None,,,,,,,,,,,,,,,,,,,,,,,,,,,,,,,,,,,,,,,,,,,,,,,,,,,test,001,1,1,1,2024-01-19_17h25.50.822,eye_track_exp,2023.1.3,120.1256342391094,
180,180,180,-168,180,180,12,180,0,180,None,abs,inhibit,freq_top,0,0,0,22,,,,,,,,,,94.64744932436224,95.14961432217979,95.1708377471964,95.17339385898163,95.17340989481465,0.8400286028020933,96.04426819994887,96.04428038718197,110.09905558564947,110.09905558564947,99.05839608956592,None,1,99.05896568235516,99.05901154483763,99.05902084562081,99.06023764463123,,,,,,,,,,,,,,,,,,,,,,,,,,,,,,,,,,test,001,1,1,1,2024-01-19_17h25.50.822,eye_track_exp,2023.1.3,120.1256342391094,
0,180,0,-168,180,0,180,0,12,180,None,abs,inhibit,freq_top,0,1,1,24,,,,,,,,,,,,99.06072673753863,99.06162217845508,99.06163244138827,0.7970398524558897,99.85808832985845,99.85810051709154,113.91247546116654,113.91247546116654,102.87179126990009,None,1,102.87218158207611,102.87222199237533,102.8722312931585,102.87344745073551,,,,,,,,,,,,,,,,,,,,,,,,,,,,,,,,,,test,001,1,1,1,2024-01-19_17h25.50.822,eye_track_exp,2023.1.3,120.1256342391094,
180,168,180,0,180,0,180,0,0,168,f,abs,resp,freq_top,0,2,2,20,,,,,,,,,,,,102.87393173289308,102.87500356797284,102.87501415162274,0.7177297099405857,103.5969239423647,103.5969364503145,117.65097592476252,117.65097592476252,105.02914095721735,f,1,105.02976090252241,105.02980067138833,105.0298090100215,105.03035422834455,1.3956620497219774,None,,,,,,,,,,,,,,,,,,,,,,,,,,,,,,,,test,001,1,1,1,2024-01-19_17h25.50.822,eye_track_exp,2023.1.3,120.1256342391094,
0,0,0,-168,180,180,180,180,0,12,None,abs,inhibit,freq_top,0,3,3,25,,,,,,,,,,,,105.03083498261879,105.03158289387136,105.03159283608784,1.0760734749159195,106.11157732623019,106.11158983417988,120.16552507571328,120.16552507571328,109.12483382868027,None,1,109.12522221655627,109.1252623061389,109.12527160692196,109.12572477956348,,,,,,,,,,,,,,,,,,,,,,,,,,,,,,,,,,test,001,1,1,1,2024-01-19_17h25.50.822,eye_track_exp,2023.1.3,120.1256342391094,
0,0,0,-168,0,12,0,0,0,0,None,abs,inhibit,freq_top,0,4,4,21,,,,,,,,,,,,109.12620232667109,109.12693997499059,109.12695023792367,0.8261882076086593,109.95758746664956,109.95759997459925,124.01227158158542,124.01227158158542,112.97157103376924,None,1,112.97263837881576,112.97267975126499,112.97268873133157,112.97322593173806,,,,,,,,,,,,,,,,,,,,,,,,,,,,,,,,,,test,001,1,1,1,2024-01-19_17h25.50.822,eye_track_exp,2023.1.3,120.1256342391094,
168,0,270,180,180,180,180,168,180,180,f,present,resp,freq_top,0,5,5,49,,,,,,,,,,,,112.97377980941098,112.97475671235918,112.97476729600896,0.9531047884174079,113.92945580476317,113.92946895414627,127.98391509731994,127.98391509731994,115.44585196296237,f,1,115.44635003593635,115.44638948408556,115.44639814343543,115.44686799334329,1.4788206726544786,None,,,,,,,,,,,,,,,,,,,,,,,,,,,,,,,,test,001,1,1,1,2024-01-19_17h25.50.822,eye_track_exp,2023.1.3,120.1256342391094,
0,0,180,0,168,0,0,0,180,168,f,abs,resp,freq_top,0,6,6,17,,,,,,,,,,,,115.44734105041766,115.47066901816129,115.47068088467768,0.8595649069109228,116.33558348142435,116.33559566865745,130.3902056980446,130.3902056980446,117.2863739998852,f,1,117.28696700499074,117.28700581170665,117.28701382962322,117.2874888109975,0.9116027902631458,None,,,,,,,,,,,,,,,,,,,,,,,,,,,,,,,,test,001,1,1,1,2024-01-19_17h25.50.822,eye_track_exp,2023.1.3,120.1256342391094,
0,0,168,0,0,0,0,0,168,0,f,abs,resp,freq_top,0,7,7,11,,,,,,,,,,,,117.28795449158872,117.46916646060629,117.46917928927269,0.7909575395117668,118.25945945772594,118.25947228639234,132.3135906571389,132.3135906571389,119.47587970174641,f,1,119.47642780651938,119.476466933952,119.47647527258516,119.47694063245967,1.1804380788456683,None,,,,,,,,,,,,,,,,,,,,,,,,,,,,,,,,test,001,1,1,1,2024-01-19_17h25.50.822,eye_track_exp,2023.1.3,120.1256342391094,
0,0,0,0,168,0,0,12,0,0,None,abs,inhibit,freq_top,0,8,8,29,,,,,,,,,,,,119.4774191417174,119.50065153589605,119.50066308169585,0.8617029084276379,120.36574592120576,120.36575874987216,134.4201500504969,134.4201500504969,123.37947227356369,None,1,123.3798606614397,123.37990427890554,123.37991357968872,123.38146905549274,,,,,,,,,,,,,,,,,,,,,,,,,,,,,,,,,,test,001,1,1,1,2024-01-19_17h25.50.822,eye_track_exp,2023.1.3,120.1256342391094,
0,180,0,12,0,180,180,180,0,12,j,abs,resp,freq_top,0,9,9,4,,,,,,,,,,,,123.38196103485006,123.3827406970521,123.38275128070188,1.0403580624081328,124.42071900185283,124.42073150980264,138.47506155354517,138.47506155354517,125.45461779073048,j,1,125.45512324018762,125.45516204690352,125.4551703855368,125.45543946681505,0.9865382380173742,None,,,,,,,,,,,,,,,,,,,,,,,,,,,,,,,,test,001,1,1,1,2024-01-19_17h25.50.822,eye_track_exp,2023.1.3,120.1256342391094,
12,0,0,12,0,0,180,0,180,180,j,abs,resp,freq_top,0,10,10,6,,,,,,,,,,,,125.45591893822268,125.456660435142,125.45667005664177,0.7528006436584584,126.21066049351248,126.21067268074557,140.26519772021777,140.26519772021777,127.4778460155926,j,1,127.47844383144809,127.47848295888059,127.47849129751387,127.4787956576248,1.2280856702474239,None,,,,,,,,,,,,,,,,,,,,,,,,,,,,,,,,test,001,1,1,1,2024-01-19_17h25.50.822,eye_track_exp,2023.1.3,120.1256342391094,
0,270,0,0,12,0,180,180,180,12,j,present,resp,freq_top,0,11,11,42,,,,,,,,,,,,127.47927544974903,127.49339596288291,127.493407187966,0.7930101427493432,128.29291918549518,128.29293201416158,142.34677585144664,142.34677585144664,129.3758699840315,j,1,129.37638505498853,129.37642514457104,129.37643348320432,129.37687863792917,1.0346874302763354,None,,,,,,,,,,,,,,,,,,,,,,,,,,,,,,,,test,001,1,1,1,2024-01-19_17h25.50.822,eye_track_exp,2023.1.3,120.1256342391094,
180,12,180,12,0,180,0,180,180,180,j,abs,resp,freq_top,0,12,12,5,,,,,,,,,,,,129.37736195793673,129.4595138512716,129.4595260385047,0.7462865064153354,130.2073721855911,130.2073850142575,144.26183885463104,144.26183885463104,131.59112378155737,j,1,131.59163211746443,131.59167124489704,131.5916795835302,131.59213307688833,1.3428945375500234,None,,,,,,,,,,,,,,,,,,,,,,,,,,,,,,,,test,001,1,1,1,2024-01-19_17h25.50.822,eye_track_exp,2023.1.3,120.1256342391094,
180,12,180,12,180,90,180,180,0,180,j,present,resp,freq_top,0,13,13,37,,,,,,,,,,,,131.59262345266245,131.79872976959393,131.79874227754374,0.9168290702061374,132.7139983521579,132.71401053939098,146.7680634839387,146.7680634839387,133.59676614976763,j,1,133.5972866729079,133.5973261210571,133.59733445969027,133.59781681754782,0.836810702856269,None,,,,,,,,,,,,,,,,,,,,,,,,,,,,,,,,test,001,1,1,1,2024-01-19_17h25.50.822,eye_track_exp,2023.1.3,120.1256342391094,
0,0,0,-168,0,0,0,12,0,0,None,abs,inhibit,freq_top,0,14,14,23,,,,,,,,,,,,133.5982908367722,133.73794947237297,133.73796198032278,0.749485242657706,134.48688669753892,134.4868992054886,148.5415486830252,148.5415486830252,137.5008564738422,None,1,137.50124999318484,137.50129072420077,137.50129970426724,137.50226987216558,,,,,,,,,,,,,,,,,,,,,,,,,,,,,,,,,,test,001,1,1,1,2024-01-19_17h25.50.822,eye_track_exp,2023.1.3,120.1256342391094,
12,0,0,-168,0,0,180,180,180,180,None,abs,inhibit,freq_top,0,15,15,27,,,,,,,,,,,,137.50276730370626,137.50352066714197,137.50353060935845,0.81078795574381,138.31755375291414,138.31756626086394,152.3716608985776,152.3716608985776,141.33096516151136,None,1,141.3313461729042,141.33138690392002,141.3313958839866,141.3324093486341,,,,,,,,,,,,,,,,,,,,,,,,,,,,,,,,,,test,001,1,1,1,2024-01-19_17h25.50.822,eye_track_exp,2023.1.3,120.1256342391094,
180,168,0,180,0,180,180,180,168,180,f,abs,resp,freq_top,0,16,16,12,,,,,,,,,,,,141.33289491365827,141.33380991829108,141.33382018122416,1.0572389304509167,142.38903572366667,142.38904855233318,156.44320925767886,156.44320925767886,143.5391067463712,j,0,143.53960995081172,144.04506806730046,144.04507833023365,144.04587082110208,1.11311548246465,None,157.5755898701002,,,,,,,,,,,,,,,,,,,,,,,,,,,,,,,test,001,1,1,1,2024-01-19_17h25.50.822,eye_track_exp,2023.1.3,120.1256342391094,
0,180,0,0,180,168,180,0,0,168,f,abs,resp,freq_top,0,17,17,16,,,,,,,,,,,,144.04640834222528,144.08780035516168,144.08781125952817,0.9071072209708255,144.99526301492267,144.99527520215577,159.0493412960866,159.0493412960866,145.96212977671394,f,1,145.96266954285375,145.96339724895665,145.96340687045654,145.9638667781478,0.9237194657014243,None,,,,,,,,,,,,,,,,,,,,,,,,,,,,,,,,test,001,1,1,1,2024-01-19_17h25.50.822,eye_track_exp,2023.1.3,120.1256342391094,
180,0,180,0,12,0,12,180,180,180,j,abs,resp,freq_top,0,18,18,7,,,,,,,,,,,,145.96435138102197,146.0946264885663,146.0946393172328,0.9000236355430226,146.9934875274895,146.99350003543918,161.0476370077521,161.0476370077521,147.87638329104686,j,1,147.87686532818782,147.87690381418713,147.8769124735369,147.87735955256187,0.8445800639598247,None,,,,,,,,,,,,,,,,,,,,,,,,,,,,,,,,test,001,1,1,1,2024-01-19_17h25.50.822,eye_track_exp,2023.1.3,120.1256342391094,
0,0,168,0,0,0,0,0,180,168,f,abs,resp,freq_top,0,19,19,19,,,,,,,,,,,,147.8778390239695,147.9096916405524,147.9097038277855,0.7948597655272577,148.70825784464944,148.70827035259913,162.76286947761992,162.76286947761992,151.42329916738754,f,1,151.4237972403614,151.42383668851062,151.4238450271439,151.42434726943452,2.665672764865576,None,,,,,,,,,,,,,,,,,,,,,,,,,,,,,,,,test,001,1,1,1,2024-01-19_17h25.50.822,eye_track_exp,2023.1.3,120.1256342391094,
180,0,90,180,12,0,180,180,12,180,j,present,resp,freq_top,0,20,20,41,,,,,,,,,,,,151.4248463045583,151.42569909015901,151.4257093530921,0.845970246462949,152.27239620566547,152.27240871361505,166.32650303061212,166.32650303061212,153.55497773103866,j,1,153.55547516257934,153.55551396929536,153.5555223079284,153.55598830923623,1.246263890571413,None,,,,,,,,,,,,,,,,,,,,,,,,,,,,,,,,test,001,1,1,1,2024-01-19_17h25.50.822,eye_track_exp,2023.1.3,120.1256342391094,
180,270,180,12,180,0,12,180,0,180,j,present,resp,freq_top,0,21,21,33,,,,,,,,,,,,153.5564732328271,153.8046232589495,153.80463769119933,1.0316078507088071,154.83693738680722,154.8369498947568,168.8910108572212,168.8910108572212,156.13744023845925,j,1,156.1379463293497,156.13798545678242,156.13799379541547,156.13835363950875,1.2571926314989241,None,,,,,,,,,,,,,,,,,,,,,,,,,,,,,,,,test,001,1,1,1,2024-01-19_17h25.50.822,eye_track_exp,2023.1.3,120.1256342391094,
12,0,0,12,0,0,90,180,180,0,j,present,resp,freq_top,0,22,22,38,,,,,,,,,,,,156.13883246948308,156.44428846924188,156.4443022600583,0.9287376169328092,157.37627055914072,157.376283387807,171.43055474040068,171.43055474040068,158.77667761272642,j,1,158.77718274146673,158.77722186889946,158.77723052824922,158.77758171299274,1.3577001014708685,None,,,,,,,,,,,,,,,,,,,,,,,,,,,,,,,,test,001,1,1,1,2024-01-19_17h25.50.822,eye_track_exp,2023.1.3,120.1256342391094,
0,180,0,12,0,180,180,12,0,0,j,abs,resp,freq_top,0,23,23,2,,,,,,,,,,,,158.77806182583367,158.77878504190335,158.7787949841197,0.9786067251000765,159.76626875350598,159.76628126145556,173.82020303288925,173.82020303288925,160.89869105909315,j,1,160.89919233923365,160.89923178738286,160.89924012601614,160.89969169507413,1.0962621426657506,None,,,,,,,,,,,,,,,,,,,,,,,,,,,,,,,,test,001,1,1,1,2024-01-19_17h25.50.822,eye_track_exp,2023.1.3,120.1256342391094,
0,180,180,180,168,0,0,0,0,12,None,abs,inhibit,freq_top,0,24,24,31,,,,,,,,,,,,160.90016763859853,161.157176179604,161.157189328987,0.7266473133728288,161.88960451466437,161.88961702261417,175.94341050738342,175.94341050738342,164.90273754120017,None,1,164.90313234340942,164.9031708294085,164.9031794887585,164.90449955853364,,,,,,,,,,,,,,,,,,,,,,,,,,,,,,,,,,test,001,1,1,1,2024-01-19_17h25.50.822,eye_track_exp,2023.1.3,120.1256342391094,
0,180,0,12,0,12,0,180,180,180,j,abs,resp,freq_top,0,25,25,0,,,,,,,,,,,,164.9049851235577,164.9058084032256,164.90581898687537,0.7930883013418477,165.7021802639306,165.7021927718804,179.7568579645332,179.7568579645332,167.21916140931876,j,1,167.2197143248418,167.2197524901244,167.21976050804096,167.2202306786653,1.478720929772976,None,,,,,,,,,,,,,,,,,,,,,,,,,,,,,,,,test,001,1,1,1,2024-01-19_17h25.50.822,eye_track_exp,2023.1.3,120.1256342391094,
90,0,180,168,180,180,0,168,0,0,f,present,resp,freq_top,0,26,26,46,,,,,,,,,,,,167.22069603853993,167.22142887610948,167.22143881832585,1.0482535003723272,168.2754930457404,168.2755055536902,182.32967748411886,182.32967748411886,169.05917671391785,f,1,169.05968152194168,169.059720007941,169.05972834657427,169.06020076221535,0.7472476889280415,None,,,,,,,,,,,,,,,,,,,,,,,,,,,,,,,,test,001,1,1,1,2024-01-19_17h25.50.822,eye_track_exp,2023.1.3,120.1256342391094,
90,0,180,180,180,168,0,168,0,0,f,present,resp,freq_top,0,27,27,44,,,,,,,,,,,,169.0606837615062,169.29995410544598,169.29996693411226,1.0553233329556204,170.35705642400285,170.35706925266936,184.4112485595814,184.4112485595814,171.22456420218373,f,1,171.22506612375764,171.22510493047344,171.2251132691067,171.2254628502667,0.8250134612120519,None,,,,,,,,,,,,,,,,,,,,,,,,,,,,,,,,test,001,1,1,1,2024-01-19_17h25.50.822,eye_track_exp,2023.1.3,120.1256342391094,
180,180,168,0,270,0,0,168,0,180,f,present,resp,freq_top,0,28,28,47,,,,,,,,,,,,171.22594168024102,171.48135465585983,171.48136748452634,0.9979728512311017,172.479786672106,172.4797988593391,186.53445539264214,186.53445539264214,173.8468026312878,f,1,173.8473026285617,173.847341114561,173.84734977391076,173.84780134296898,1.325183280683973,None,,,,,,,,,,,,,,,,,,,,,,,,,,,,,,,,test,001,1,1,1,2024-01-19_17h25.50.822,eye_track_exp,2023.1.3,120.1256342391094,
180,270,0,0,168,0,0,168,180,0,f,present,resp,freq_top,0,29,29,45,,,,,,,,,,,,173.84828402154312,173.84908902036136,173.84909928329444,0.9556136508337929,174.80334039230706,174.8033557867068,188.85751649205247,188.85751649205247,175.73619419008946,f,1,175.73669547022996,175.73673363551256,175.73674229486255,175.73719258105393,0.8898700671896904,None,,,,,,,,,,,,,,,,,,,,,,,,,,,,,,,,test,001,1,1,1,2024-01-19_17h25.50.822,eye_track_exp,2023.1.3,120.1256342391094,
180,0,180,12,0,180,180,0,12,180,j,abs,resp,freq_top,0,30,30,3,,,,,,,,,,,,175.73767269389487,175.96910408121585,175.96911690988213,0.7404799773892449,176.7095541813917,176.7095663686248,190.76422963697757,190.76422963697757,177.50987919565546,j,1,177.5103827208127,177.5104215275287,177.51042986616176,178.81713345373032,0.7593088803838555,None,,,,,,,,,,,,,,,,,,,,,,,,,,,,,,,,test,001,1,1,1,2024-01-19_17h25.50.822,eye_track_exp,2023.1.3,120.1256342391094,
0,168,180,90,0,180,0,168,0,0,f,present,resp,freq_top,0,31,31,48,,,,,,,,,,,,178.8176690505536,178.83366030396883,178.83367249120192,0.8844108480101618,179.72360189184337,179.72361439979318,193.7783321899784,193.7783321899784,180.9578450021279,j,0,180.95836295953495,181.46346315623032,181.46347373988033,181.46385154410655,1.1850377971924217,None,194.99396282958048,,,,,,,,,,,,,,,,,,,,,,,,,,,,,,,test,001,1,1,1,2024-01-19_17h25.50.822,eye_track_exp,2023.1.3,120.1256342391094,
180,0,180,0,168,180,0,180,12,180,None,abs,inhibit,freq_top,0,32,32,30,,,,,,,,,,,,181.46437559512992,181.48962016563746,181.48963203215385,0.9725174337219479,182.4634593076305,182.463472136297,196.51767966627506,196.51767966627506,185.47703043312458,None,1,185.47741368953416,185.47814652710372,185.47815646932008,185.47880431697467,,,,,,,,,,,,,,,,,,,,,,,,,,,,,,,,,,test,001,1,1,1,2024-01-19_17h25.50.822,eye_track_exp,2023.1.3,120.1256342391094,
180,180,0,168,180,180,180,180,168,180,f,abs,resp,freq_top,0,33,33,10,,,,,,,,,,,,185.47928795769872,185.48013753613282,185.4801477990659,0.8138063536072611,186.29351090773412,186.2935230949672,200.34780695551046,200.34780695551046,187.6265341080566,f,1,187.62705078259683,187.62709023074603,187.6270988900958,187.62771755253425,1.2871959958166599,None,,,,,,,,,,,,,,,,,,,,,,,,,,,,,,,,test,001,1,1,1,2024-01-19_17h25.50.822,eye_track_exp,2023.1.3,120.1256342391094,
180,0,180,0,12,180,180,180,12,180,j,abs,resp,freq_top,0,34,34,9,,,,,,,,,,,,187.6281979860919,187.62894557662776,187.62895551884412,1.0774270710958285,188.70805066168668,188.7080631696365,202.76242143644515,202.76242143644515,189.3757032113681,j,1,189.3762073779585,189.37624650539124,189.3762548440243,189.37669935731583,0.6322431844622542,None,,,,,,,,,,,,,,,,,,,,,,,,,,,,,,,,test,001,1,1,1,2024-01-19_17h25.50.822,eye_track_exp,2023.1.3,120.1256342391094,
90,0,0,12,0,0,0,12,0,0,j,present,resp,freq_top,0,35,35,34,,,,,,,,,,,,189.3771846016234,189.54904030350053,189.54905345288375,1.0032030147159676,190.55652583035953,190.55653833830934,204.6108337446525,204.6108337446525,191.3896511789385,j,1,191.39015213836228,191.3901906243616,191.39019896299487,191.39054982702146,0.783751338523075,None,,,,,,,,,,,,,,,,,,,,,,,,,,,,,,,,test,001,1,1,1,2024-01-19_17h25.50.822,eye_track_exp,2023.1.3,120.1256342391094,
168,0,180,0,0,180,180,0,168,0,f,abs,resp,freq_top,0,36,36,13,,,,,,,,,,,,191.39102480839597,191.44801327253822,191.44802578048802,0.8748439483331913,192.32127727334387,192.32128978129367,206.3760322666618,206.3760322666618,193.82155838149697,f,1,193.82207762177063,193.82211642848642,193.8221250878364,193.82255869676146,1.4510697014442258,None,,,,,,,,,,,,,,,,,,,,,,,,,,,,,,,,test,001,1,1,1,2024-01-19_17h25.50.822,eye_track_exp,2023.1.3,120.1256342391094,
0,180,0,180,168,180,12,180,0,180,None,abs,inhibit,freq_top,0,37,37,28,,,,,,,,,,,,193.8230388096024,193.82377934437181,193.8237896073049,1.097224619715722,194.91979998826173,194.91981281692824,208.9738291997768,208.9738291997768,197.9331523849935,None,1,197.93351319123667,197.9335552051191,197.93356450590227,197.93420978782342,,,,,,,,,,,,,,,,,,,,,,,,,,,,,,,,,,test,001,1,1,1,2024-01-19_17h25.50.822,eye_track_exp,2023.1.3,120.1256342391094,
0,0,180,0,0,0,168,0,180,168,f,abs,resp,freq_top,0,38,38,15,,,,,,,,,,,,197.9346927871145,197.9356071503139,197.93561773396368,0.7092890961400106,198.64961929328797,198.64963180123777,212.70402662974573,212.70402662974573,199.66678436968118,f,1,199.66729751633807,199.6673369644875,199.66734562383726,199.66779623074535,0.9790155080257819,None,,,,,,,,,,,,,,,,,,,,,,,,,,,,,,,,test,001,1,1,1,2024-01-19_17h25.50.822,eye_track_exp,2023.1.3,120.1256342391094,
0,270,0,0,12,0,0,12,0,0,j,present,resp,freq_top,0,39,39,40,,,,,,,,,,,,199.66828339935296,199.69132272210186,199.69133394718506,0.9315213987032069,200.6233429772833,200.6233554852331,214.6773519836487,214.6773519836487,201.49004800166267,j,1,201.49055024395307,201.4905890506691,201.49059738930237,201.4910637113269,0.8295993887423947,None,,,,,,,,,,,,,,,,,,,,,,,,,,,,,,,,test,001,1,1,1,2024-01-19_17h25.50.822,eye_track_exp,2023.1.3,120.1256342391094,
180,270,180,12,180,180,180,180,12,180,j,present,resp,freq_top,0,40,40,35,,,,,,,,,,,,201.49154703133445,201.53118600700395,201.53119819423705,0.7624278923957439,202.29679151845562,202.29680498855532,216.35091694496862,216.35091694496862,203.92951770307855,f,0,203.93002732185232,204.43573110730313,204.43574137023643,204.43621057871087,1.5871353482961013,None,217.96623815713644,,,,,,,,,,,,,,,,,,,,,,,,,,,,,,,test,001,1,1,1,2024-01-19_17h25.50.822,eye_track_exp,2023.1.3,120.1256342391094,
90,0,0,12,0,180,180,180,0,12,j,present,resp,freq_top,0,41,41,36,,,,,,,,,,,,204.4367410440675,204.52810680634525,204.52811835214493,0.7139422600262519,205.24395986295144,205.24397237090125,219.29846437655726,219.29846437655726,206.5767662588114,j,1,206.5772662560853,206.5779965279214,206.5780061494213,206.57857670436056,1.2953967208287622,None,,,,,,,,,,,,,,,,,,,,,,,,,,,,,,,,test,001,1,1,1,2024-01-19_17h25.50.822,eye_track_exp,2023.1.3,120.1256342391094,
180,0,180,12,180,180,12,180,180,180,j,abs,resp,freq_top,0,42,42,1,,,,,,,,,,,,206.5790837574009,206.85200369337304,206.85201684275626,1.092228936218105,207.94996435234316,207.94997686029296,222.00450350334847,222.00450350334847,208.86773837345982,j,1,208.86826563164982,208.86830443836584,208.86831277699912,208.8686639617424,0.8775125335392886,None,,,,,,,,,,,,,,,,,,,,,,,,,,,,,,,,test,001,1,1,1,2024-01-19_17h25.50.822,eye_track_exp,2023.1.3,120.1256342391094,
0,180,0,0,180,0,180,168,0,168,f,abs,resp,freq_top,0,43,43,14,,,,,,,,,,,,208.86914760246668,209.0992999717448,209.09931312112803,0.8660006184684292,209.96509544367473,209.965108272341,224.01945820051662,224.01945820051662,211.03161817270416,f,1,211.03210534131154,211.03214318587743,211.032151203794,211.03262522301839,1.0222930142100495,None,,,,,,,,,,,,,,,,,,,,,,,,,,,,,,,,test,001,1,1,1,2024-01-19_17h25.50.822,eye_track_exp,2023.1.3,120.1256342391094,
180,180,90,180,12,180,12,0,0,180,j,present,resp,freq_top,0,44,44,39,,,,,,,,,,,,211.03309379005964,211.26519964451768,211.2652124731842,0.8900710325703148,212.15481602569844,212.15482885436495,226.2092637724553,226.2092637724553,213.0553900123059,j,1,213.05591149759607,213.05594966287867,213.05595832222866,213.05640924985346,0.8651812986548748,None,,,,,,,,,,,,,,,,,,,,,,,,,,,,,,,,test,001,1,1,1,2024-01-19_17h25.50.822,eye_track_exp,2023.1.3,120.1256342391094,
0,180,180,180,12,0,180,12,0,0,j,abs,resp,freq_top,0,45,45,8,,,,,,,,,,,,213.05689705989425,213.11265846209312,213.1126700078928,0.7374864704986684,213.853789764456,213.85380195168932,227.90784880262038,227.90784880262038,214.60362627913833,j,1,214.60422634001043,214.60426482600974,214.6042731646428,214.60474141096734,0.7017694250185968,None,,,,,,,,,,,,,,,,,,,,,,,,,,,,,,,,test,001,1,1,1,2024-01-19_17h25.50.822,eye_track_exp,2023.1.3,120.1256342391094,
90,0,0,12,0,12,180,180,180,0,j,present,resp,freq_top,0,46,46,32,,,,,,,,,,,,214.6052234481083,214.60597103864416,214.60598130157723,1.0306238279752795,215.6351119958615,215.6351245038113,229.68967584204972,229.68967584204972,216.31896073690427,j,1,216.31947163854466,216.31950980382726,216.31951846317702,216.31987253437046,0.6480394421479332,None,,,,,,,,,,,,,,,,,,,,,,,,,,,,,,,,test,001,1,1,1,2024-01-19_17h25.50.822,eye_track_exp,2023.1.3,120.1256342391094,
180,180,0,168,180,180,180,0,0,168,f,abs,resp,freq_top,0,47,47,18,,,,,,,,,,,,216.32035457151142,216.36834629189002,216.36835847912312,1.0566365624293463,217.4258719564391,217.4258851058221,231.47981521588883,231.47981521588883,218.10982525111308,f,1,218.11033326630354,218.11037239373627,218.11038073236932,218.111038842957,0.6496343661013952,None,,,,,,,,,,,,,,,,,,,,,,,,,,,,,,,,test,001,1,1,1,2024-01-19_17h25.50.822,eye_track_exp,2023.1.3,120.1256342391094,
180,270,0,0,0,0,0,168,0,168,f,present,resp,freq_top,0,48,48,43,,,,,,,,,,,,218.11151286218137,218.15911555325079,218.15912774048388,0.9002213462292092,219.05713471093964,219.05714753960615,233.111779698443,233.111779698443,220.05702406369187,f,1,220.05753592748215,220.05757441348146,220.05758307283122,220.05804747055595,0.9538398916002961,None,,,,,,,,,,,,,,,,,,,,,,,,,,,,,,,,test,001,1,1,1,2024-01-19_17h25.50.822,eye_track_exp,2023.1.3,120.1256342391094,
180,12,180,-168,180,180,0,180,180,180,None,abs,inhibit,freq_top,0,49,49,26,,,,,,,,,,,,220.05853303558,220.10650583367578,220.10651770019217,1.0815928571009312,221.18863720114427,221.18864970909408,235.2433152224636,235.2433152224636,224.20262782403051,None,1,224.20299953464018,224.2030396242228,224.20304860428928,224.2042666861662,,,,,,,,,,,,,,,,,,,,,,,,,,,,,,,,,,test,001,1,1,1,2024-01-19_17h25.50.822,eye_track_exp,2023.1.3,120.1256342391094,
,,,,,,,,,,,,,,,,,,,,,,,,,,,,,,,,,,,,,,,,,,,,,,,224.2043163972487,224.70703302772245,224.70704745997227,225.41041790343024,space,0.6845068507606129,None,,,,,,,,,,,,,,,,,,,,,,,,test,001,1,1,1,2024-01-19_17h25.50.822,eye_track_exp,2023.1.3,120.1256342391094,
0,180,0,0,180,168,180,0,0,168,f,abs,resp,freq_top,,,,,0,0,0,916,,,,,,225.41044195717996,225.91166501016505,,,,1.0833992722732273,,,,,,,,,,,,,,,,,,,,,,226.0939616429289,226.3016455651141,226.3016596766472,227.38354473372033,227.38355852453674,241.4380774703924,241.4380774703924,228.1510796766022,f,1,0.7232741185463283,None,228.1524314973267,228.15247479407594,228.1524834534257,228.15306074341493,,,,,,,,test,001,1,1,1,2024-01-19_17h25.50.822,eye_track_exp,2023.1.3,120.1256342391094,
180,12,180,270,180,180,0,0,0,12,j,present,resp,freq_top,,,,,0,1,1,583,,,,,,,,,,,0.8729792981907638,,,,,,,,,,,,,,,,,,,,,,228.1535235375561,228.15461686065214,228.15462680286873,229.03216627747702,229.03217974757672,243.08668394046606,243.08668394046606,229.9495695501339,j,1,0.8823434885981669,None,229.9500923182909,229.9501324078733,229.95014138794,229.95059295699798,,,,,,,,test,001,1,1,1,2024-01-19_17h25.50.822,eye_track_exp,2023.1.3,120.1256342391094,
180,90,180,-168,180,-168,180,0,180,180,f,present,resp,freq_top,,,,,0,2,2,462,,,,,,,,,,,1.0861485947170197,,,,,,,,,,,,,,,,,,,,,,229.95106505192257,229.96488312924544,229.9648940336117,231.05606159299327,231.05607538380968,245.10998208156013,245.10998208156013,231.78983148584507,f,1,0.6992113889335769,None,231.7903715727016,231.7904110208508,231.79042000091727,231.79087221140867,,,,,,,,test,001,1,1,1,2024-01-19_17h25.50.822,eye_track_exp,2023.1.3,120.1256342391094,
0,0,168,0,0,168,0,180,180,180,f,abs,resp,freq_top,,,,,0,3,3,764,,,,,,,,,,,0.727137062212848,,,,,,,,,,,,,,,,,,,,,,231.79134847564978,232.04700455449733,232.04701802459704,232.77916477042936,232.77917856124577,246.83352239580483,246.83352239580483,233.9956555721153,f,1,1.1678980574153002,None,233.9961555693892,233.99619437610522,233.9962033561717,233.99677583541074,,,,,,,,test,001,1,1,1,2024-01-19_17h25.50.822,eye_track_exp,2023.1.3,120.1256342391094,
0,180,-168,180,90,0,180,-168,0,180,f,present,resp,freq_top,,,,,0,4,4,534,,,,,,,,,,,0.855370292233719,,,,,,,,,,,,,,,,,,,,,,233.99725370323517,233.99798237148798,233.99799263442128,234.85283018020755,234.85284397102396,248.90676542174094,248.90676542174094,236.03553797173026,f,1,1.1422804934317128,None,236.03604085545408,236.03607998288658,236.03608896295304,236.03656041644422,,,,,,,,test,001,1,1,1,2024-01-19_17h25.50.822,eye_track_exp,2023.1.3,120.1256342391094,
0,12,0,90,180,180,168,0,0,0,None,present,inhibit,freq_top,,,,,0,5,5,247,,,,,,,,,,,0.8514406983176719,,,,,,,,,,,,,,,,,,,,,,236.03707484596794,236.03780511780406,236.03781538073713,236.89246947659376,236.89248358812665,250.9467017017547,250.9467017017547,239.923488229859,None,1,,,239.923876617735,239.9239160658842,239.92392504595068,239.92438014289223,252.43712077259363,252.43712077259363,252.43712077259363,252.43712077259363,253.9275315047995,253.9275315047995,,test,001,1,1,1,2024-01-19_17h25.50.822,eye_track_exp,2023.1.3,120.1256342391094,
90,180,180,180,-12,180,0,180,12,180,j,present,resp,freq_top,,,,,0,6,6,498,,,,,,,,,,,0.8270762387339903,,,,,,,,,,,,,,,,,,,,,,239.92485801071643,239.92568289396763,239.9256931569007,240.75575277492067,240.7557672071705,254.81009821306304,254.81009821306304,242.7308388632905,j,1,1.9271546618532511,None,242.73132539046446,242.73137381868037,242.7313911373799,242.73195399511928,256.30052530181854,256.30052530181854,256.30052530181854,256.30052530181854,,,,test,001,1,1,1,2024-01-19_17h25.50.822,eye_track_exp,2023.1.3,120.1256342391094,
12,0,180,0,0,180,180,180,168,0,None,abs,inhibit,freq_top,,,,,0,7,7,376,,,,,,,,,,,0.9816771879934193,,,,,,,,,,,,,,,,,,,,,,242.7324289764938,242.7331685491131,242.73317849132968,243.72022859400704,243.72024238482345,257.7742748035049,257.7742748035049,246.7514615860016,None,1,,,246.75183265517808,246.75187082046068,246.75187947981044,246.75221078012078,259.26469483649396,259.26469483649396,259.26469483649396,259.26469483649396,260.75508632570006,260.75508632570006,,test,001,1,1,1,2024-01-19_17h25.50.822,eye_track_exp,2023.1.3,120.1256342391094,
90,0,180,180,180,180,168,0,0,12,None,present,inhibit,freq_top,,,,,0,8,8,166,,,,,,,,,,,1.0704896258700811,,,,,,,,,,,,,,,,,,,,,,246.75268896866191,246.7535045511297,246.7535144933463,247.82528703339335,247.82530082420976,261.87912638064506,261.87912638064506,250.85643856335628,None,1,,,250.8568189333157,250.85685838146492,250.8568676822481,250.8573070640732,263.36956501520046,263.36956501520046,263.36956501520046,263.36956501520046,264.8599456000401,264.8599456000401,,test,001,1,1,1,2024-01-19_17h25.50.822,eye_track_exp,2023.1.3,120.1256342391094,
0,0,0,270,0,0,12,0,0,12,j,present,resp,freq_top,,,,,0,9,9,582,,,,,,,,,,,1.0024023939612574,,,,,,,,,,,,,,,,,,,,,,250.85778717691414,250.85850526151717,250.85851520373376,251.8629051733842,251.86291864348414,265.9174148184567,265.9174148184567,253.80484872276202,j,1,1.9069642652005996,None,253.80547764813355,253.80551677556605,253.80552575563252,253.80599496410696,267.4078207399126,267.4078207399126,267.4078207399126,267.4078207399126,,,,test,001,1,1,1,2024-01-19_17h25.50.822,eye_track_exp,2023.1.3,120.1256342391094,
12,180,90,180,168,0,180,0,180,180,None,present,inhibit,freq_top,,,,,0,10,10,43,,,,,,,,,,,0.8280931814665217,,,,,,,,,,,,,,,,,,,,,,253.80648149128115,253.8072255539339,253.80723581686698,254.6441141918085,254.64413632125797,268.6983749607524,268.6983749607524,257.67511915425735,None,1,,,257.67550786285005,257.6755466695661,257.67555532891583,257.6760014457907,270.1888010873578,270.1888010873578,270.1888010873578,270.1888010873578,271.6791832757807,271.6791832757807,,test,001,1,1,1,2024-01-19_17h25.50.822,eye_track_exp,2023.1.3,120.1256342391094,
0,0,180,0,168,0,0,0,168,0,f,abs,resp,freq_top,,,,,0,11,11,952,,,,,,,,,,,0.88745248561266,,,,,,,,,,,,,,,,,,,,,,257.676467126382,257.6772022089681,257.6772121511847,258.5661543859446,258.56616817676104,272.62008225099487,272.62008225099487,260.3399708853417,f,1,1.7323555315086878,None,260.34060237644644,260.34064022101234,260.3406492010788,260.34113123821976,274.11048175811754,274.11048175811754,274.11048175811754,274.11048175811754,,,,test,001,1,1,1,2024-01-19_17h25.50.822,eye_track_exp,2023.1.3,120.1256342391094,
270,180,12,180,0,180,168,180,0,180,None,present,inhibit,freq_top,,,,,0,12,12,112,,,,,,,,,,,0.7930987427200359,,,,,,,,,,,,,,,,,,,,,,260.34161487894403,260.34235637586335,260.3423663180797,261.1387564596346,261.1387712126009,275.19287803754753,275.19287803754753,264.17024217635776,None,1,,,264.1706401857334,264.1706796338826,264.1706886139493,264.1711414658739,276.6833173135361,276.6833173135361,276.6833173135361,276.6833173135361,278.17371200990885,278.17371200990885,,test,001,1,1,1,2024-01-19_17h25.50.822,eye_track_exp,2023.1.3,120.1256342391094,
-12,180,180,180,270,180,180,-12,0,0,j,present,resp,freq_top,,,,,0,13,13,685,,,,,,,,,,,0.8917153451885977,,,,,,,,,,,,,,,,,,,,,,264.1716241444483,264.1723508884013,264.17236115133437,265.0605237238924,265.06053719399233,279.1145984771732,279.1145984771732,266.68531185044867,j,1,1.5889156464792222,None,266.68582435567237,266.68586316238816,266.6858721424546,266.68632274936294,280.6049867592127,280.6049867592127,280.6049867592127,280.6049867592127,,,,test,001,1,1,1,2024-01-19_17h25.50.822,eye_track_exp,2023.1.3,120.1256342391094,
0,0,270,0,-168,180,180,0,180,-168,f,present,resp,freq_top,,,,,0,14,14,718,,,,,,,,,,,0.9265483291735714,,,,,,,,,,,,,,,,,,,,,,266.6867938821374,266.68765436493777,266.68766462787084,267.62460050730965,267.62461397740935,281.67906685563287,281.67906685563287,268.85836318403653,f,1,1.1846667280159409,None,268.858929890376,268.85896869709177,268.85897767715824,268.8594491306494,,,,,,,,test,001,1,1,1,2024-01-19_17h25.50.822,eye_track_exp,2023.1.3,120.1256342391094,
90,180,180,0,180,-168,180,0,12,180,None,present,inhibit,freq_top,,,,,0,15,15,91,,,,,,,,,,,0.9872029695187188,,,,,,,,,,,,,,,,,,,,,,268.8599228291571,268.86076503110803,268.8607752940411,269.8477772892195,269.8477907593192,283.9022041893935,283.9022041893935,272.87888456028304,None,1,,,272.8792674959759,272.8793056612585,272.879314641325,272.8800173315283,285.39262646739905,285.39262646739905,285.39262646739905,285.39262646739905,286.8830484246879,286.8830484246879,,test,001,1,1,1,2024-01-19_17h25.50.822,eye_track_exp,2023.1.3,120.1256342391094,
168,180,0,0,180,12,0,0,0,0,None,abs,inhibit,freq_top,,,,,0,16,16,401,,,,,,,,,,,0.9106857494895207,,,,,,,,,,,,,,,,,,,,,,272.88050289655257,272.88126491933826,272.8812835209046,273.7945566044059,273.7945703952223,287.8488699708822,287.8488699708822,276.82628510364134,None,1,,,276.8266580971176,276.8266969038334,276.8267058838999,276.82717990312426,289.33927525090473,289.33927525090473,289.33927525090473,289.33927525090473,290.8297244691097,290.8297244691097,,test,001,1,1,1,2024-01-19_17h25.50.822,eye_track_exp,2023.1.3,120.1256342391094,
180,180,180,90,168,0,0,0,0,12,None,present,inhibit,freq_top,,,,,0,17,17,170,,,,,,,,,,,0.9655552635499366,,,,,,,,,,,,,,,,,,,,,,276.8276757310816,276.82840407861795,276.828414341551,277.7909985737731,277.7910126853062,291.84549378659574,291.84549378659574,280.822395772698,None,1,,,280.8227738976407,280.82281238364,280.82282104299,280.82327132918135,293.33590836740143,293.33590836740143,293.33590836740143,293.33590836740143,294.82630113947437,294.82630113947437,,test,001,1,1,1,2024-01-19_17h25.50.822,eye_track_exp,2023.1.3,120.1256342391094,
168,180,180,12,180,180,180,0,270,0,None,present,inhibit,freq_top,,,,,0,18,18,180,,,,,,,,,,,0.7978342468924814,,,,,,,,,,,,,,,,,,,,,,280.823738613356,280.82455804442384,280.8245679866402,281.62124420745636,281.62125799827277,295.67560728501473,295.67560728501473,284.6524255640684,None,1,,,284.6527911810615,284.6528299877775,284.65284794791046,284.65342138929964,297.1660061507042,297.1660061507042,297.1660061507042,297.1660061507042,298.65641335502676,298.65641335502676,,test,001,1,1,1,2024-01-19_17h25.50.822,eye_track_exp,2023.1.3,120.1256342391094,
0,270,0,0,0,-168,0,0,0,12,None,present,inhibit,freq_top,,,,,0,19,19,172,,,,,,,,,,,0.865693827372931,,,,,,,,,,,,,,,,,,,,,,284.65390695432393,284.6546279253769,284.65463786759346,285.51814278113307,285.5181568926662,299.5723073350788,299.5723073350788,288.5490848831164,None,1,,,288.54946621522595,288.54950438050855,288.549513360575,288.54996492963323,301.06273249953426,301.06273249953426,301.06273249953426,301.06273249953426,302.55311180150727,302.55311180150727,,test,001,1,1,1,2024-01-19_17h25.50.822,eye_track_exp,2023.1.3,120.1256342391094,
12,0,168,0,0,90,0,0,180,180,None,present,inhibit,freq_top,,,,,0,20,20,55,,,,,,,,,,,0.7156457024753197,,,,,,,,,,,,,,,,,,,,,,288.5504492117907,288.5512359297593,288.55124619269236,289.26490747163984,289.2649219038897,303.3191172466346,303.3191172466346,292.29623667863257,None,1,,,292.2966135207089,292.2966536102915,292.296662590358,292.29721261943087,304.8095565226232,304.8095565226232,304.8095565226232,304.8095565226232,306.2999576333292,306.2999576333292,,test,001,1,1,1,2024-01-19_17h25.50.822,eye_track_exp,2023.1.3,120.1256342391094,
90,0,180,0,-12,0,0,0,180,12,j,present,resp,freq_top,,,,,0,21,21,569,,,,,,,,,,,0.7215390232513185,,,,,,,,,,,,,,,,,,,,,,292.29769690158855,292.2984060061251,292.29841594834147,293.0204055975321,293.0204190676318,307.0742972215995,307.0742972215995,294.9279317591918,j,1,1.8694599796241391,None,294.9284359257824,294.92847569464834,294.9284846747148,294.92884002877486,308.5646883900889,308.5646883900889,308.5646883900889,308.5646883900889,,,,test,001,1,1,1,2024-01-19_17h25.50.822,eye_track_exp,2023.1.3,120.1256342391094,
0,0,-168,0,180,180,0,0,180,168,f,abs,resp,freq_top,,,,,0,22,22,897,,,,,,,,,,,0.7230996538062138,,,,,,,,,,,,,,,,,,,,,,294.92931629301575,294.9302832537476,294.93029351668065,295.6592622811229,295.659276392656,309.7137276672962,309.7137276672962,297.88365618275975,f,1,2.189253617696181,None,297.8841491242672,297.8841885724164,297.88419723176617,297.8845541894095,311.2041531524684,311.2041531524684,311.2041531524684,311.2041531524684,,,,test,001,1,1,1,2024-01-19_17h25.50.822,eye_track_exp,2023.1.3,120.1256342391094,
180,-12,180,-168,0,180,0,90,180,180,None,present,inhibit,freq_top,,,,,0,23,23,4,,,,,,,,,,,0.7468283441203027,,,,,,,,,,,,,,,,,,,,,,297.88503366081727,297.8857636119367,297.8857735541533,298.6318175943236,298.6318317058567,312.68623679729774,312.68623679729774,301.66311376750036,None,1,,,301.6634848366766,301.66352396410934,301.6635332648925,301.6641320428978,314.17662700363724,314.17662700363724,314.17662700363724,314.17662700363724,315.6670496023595,315.6670496023595,,test,001,1,1,1,2024-01-19_17h25.50.822,eye_track_exp,2023.1.3,120.1256342391094,
-168,0,0,-168,0,0,0,270,0,0,f,present,resp,freq_top,,,,,0,24,24,629,,,,,,,,,,,0.8488702589965291,,,,,,,,,,,,,,,,,,,,,,301.665199708661,301.6659873887795,301.6659979724293,302.512237425261,302.5122508953607,316.56629389769216,316.56629389769216,304.7197128816167,j,0,2.1684981182874026,None,304.7203196775388,305.22555617881494,305.22556772461485,305.22672326674297,318.05671168566425,318.05671168566425,318.05671168566425,318.05671168566425,,,318.7560824716478,test,001,1,1,1,2024-01-19_17h25.50.822,eye_track_exp,2023.1.3,120.1256342391094,
0,0,0,0,0,0,168,0,0,168,f,abs,resp,freq_top,,,,,0,25,25,923,,,,,,,,,,,0.9837174392003956,,,,,,,,,,,,,,,,,,,,,,305.2272425070166,305.22792435063707,305.22793493428685,306.2174721946674,306.2174856647671,320.27148986038253,320.27148986038253,308.2414909860979,f,1,1.9824981702435025,None,308.24202081002136,308.2428880278717,308.24289764937134,308.2434556963608,321.761878142422,321.761878142422,321.761878142422,321.761878142422,,,,test,001,1,1,1,2024-01-19_17h25.50.822,eye_track_exp,2023.1.3,120.1256342391094,
90,0,180,180,180,180,168,0,0,12,None,present,inhibit,freq_top,,,,,0,26,26,165,,,,,,,,,,,0.7996789887070473,,,,,,,,,,,,,,,,,,,,,,308.2439409406684,308.24470135987076,308.2447113020871,309.04835573378864,309.04836984532153,323.10243273208596,323.10243273208596,312.0793937300534,None,1,,,312.07977089284645,312.07980905812906,312.0798177174788,312.0802888502533,324.5928453885916,324.5928453885916,324.5928453885916,324.5928453885916,326.08324265069757,326.08324265069757,,test,001,1,1,1,2024-01-19_17h25.50.822,eye_track_exp,2023.1.3,120.1256342391094,
180,168,180,180,168,0,0,0,180,180,f,abs,resp,freq_top,,,,,0,27,27,807,,,,,,,,,,,0.7424236800217237,,,,,,,,,,,,,,,,,,,,,,312.0807529272611,312.0816291251781,312.08163906739446,312.8281689933058,312.8281824634055,326.8825612560805,326.8825612560805,313.8291625735203,f,1,0.9559344921109414,None,313.8296584014777,313.8296975289102,313.82970618826016,313.8300131141043,,,,,,,,test,001,1,1,1,2024-01-19_17h25.50.822,eye_track_exp,2023.1.3,120.1256342391094,
180,0,168,180,168,0,180,180,0,180,f,abs,resp,freq_top,,,,,0,28,28,850,,,,,,,,,,,0.7907996459277924,,,,,,,,,,,,,,,,,,,,,,313.8304913026452,313.83125973976416,313.83126968198053,314.6266120422051,314.62662583302154,328.6810520917621,328.6810520917621,315.69379833400535,f,1,1.028596379457781,None,315.69430346274567,315.6943429108951,315.69435157024486,315.69489807143464,,,,,,,,test,001,1,1,1,2024-01-19_17h25.50.822,eye_track_exp,2023.1.3,120.1256342391094,
168,0,180,0,0,180,180,0,168,0,f,abs,resp,freq_top,,,,,0,29,29,944,,,,,,,,,,,0.7760998538547732,,,,,,,,,,,,,,,,,,,,,,315.69591762969867,315.69660684980227,315.69661743345205,316.4836041625174,316.4836179533338,330.53780848532904,330.53780848532904,317.3672872854768,f,1,0.8365217371450626,None,317.36783442809974,317.36787355553224,317.3678818941655,317.3684819550374,,,,,,,,test,001,1,1,1,2024-01-19_17h25.50.822,eye_track_exp,2023.1.3,120.1256342391094,
270,0,0,0,168,180,180,180,180,12,None,present,inhibit,freq_top,,,,,0,30,30,154,,,,,,,,,,,0.7367759199726632,,,,,,,,,,,,,,,,,,,,,,317.3689569364119,317.45807896493193,317.45809179359844,318.19883567023544,318.1988494610516,332.2530338994303,332.2530338994303,321.23013857846195,None,1,,,321.2305106097883,321.2305497372208,321.230559038004,321.2311109913769,333.74344366948606,333.74344366948606,333.74344366948606,333.74344366948606,335.2338553638418,335.2338553638418,,test,001,1,1,1,2024-01-19_17h25.50.822,eye_track_exp,2023.1.3,120.1256342391094,
180,180,180,90,168,0,0,0,0,12,None,present,inhibit,freq_top,,,,,0,31,31,167,,,,,,,,,,,0.9839420487350989,,,,,,,,,,,,,,,,,,,,,,321.2315869349013,321.2323210553375,321.23233099755385,322.2199673702869,322.2199805196701,336.27463544938985,336.27463544938985,325.25149862877606,None,1,,,325.2518639250525,325.2519024110518,325.25191139111826,325.2523559044098,337.76503752224573,337.76503752224573,337.76503752224573,337.76503752224573,339.2554639695678,339.2554639695678,,test,001,1,1,1,2024-01-19_17h25.50.822,eye_track_exp,2023.1.3,120.1256342391094,
-168,0,0,180,0,180,168,180,180,180,f,abs,resp,freq_top,,,,,0,32,32,754,,,,,,,,,,,0.7946470700462048,,,,,,,,,,,,,,,,,,,,,,325.25282511288424,325.2537356274838,325.2537452489837,326.050455145049,326.0504692565821,340.1047287426592,340.1047287426592,328.19194282776516,f,1,2.100477321736321,None,328.19255411372046,328.1926019005027,328.1926105598527,328.1928959976806,341.5951449270482,341.5951449270482,341.5951449270482,341.5951449270482,,,,test,001,1,1,1,2024-01-19_17h25.50.822,eye_track_exp,2023.1.3,120.1256342391094,
12,180,90,180,12,180,180,180,0,180,j,present,resp,freq_top,,,,,0,33,33,503,,,,,,,,,,,0.8584496875084776,,,,,,,,,,,,,,,,,,,,,,328.1933879770381,328.19415481057354,328.1941644320734,329.05664850448215,329.05666229529857,343.11050933975037,343.11050933975037,330.91365345346094,j,1,1.8145673988589124,None,330.914162751518,330.91420059608413,330.9142092554339,330.91490617273735,344.6009460500055,344.6009460500055,344.6009460500055,344.6009460500055,,,,test,001,1,1,1,2024-01-19_17h25.50.822,eye_track_exp,2023.1.3,120.1256342391094,
90,0,168,0,12,0,0,180,180,180,None,present,inhibit,freq_top,,,,,0,34,34,21,,,,,,,,,,,0.8712998248570962,,,,,,,,,,,,,,,,,,,,,,330.9153910963282,330.91628685796127,330.91629680017786,331.78692130286663,331.78693541439975,345.84156372463656,345.84156372463656,334.81869951318413,None,1,,,334.81907603454374,334.81911612412637,334.81912510419284,334.81965428668286,347.3319571381427,347.3319571381427,347.3319571381427,347.3319571381427,348.82237941614824,348.82237941614824,,test,001,1,1,1,2024-01-19_17h25.50.822,eye_track_exp,2023.1.3,120.1256342391094,
90,180,180,0,180,-168,180,0,12,180,None,present,inhibit,freq_top,,,,,0,35,35,92,,,,,,,,,,,0.7392028428845825,,,,,,,,,,,,,,,,,,,,,,334.8201353616739,334.8208884043929,334.8208989880427,335.55885391259903,335.55886770341544,349.6133613126548,349.6133613126548,338.5907616924476,None,1,,,338.5911279508739,338.5911661161565,338.5911747755065,338.59162153381476,351.103768837694,351.103768837694,351.103768837694,351.103768837694,352.5941856635162,352.5941856635162,,test,001,1,1,1,2024-01-19_17h25.50.822,eye_track_exp,2023.1.3,120.1256342391094,
0,168,0,180,0,180,180,168,0,0,f,abs,resp,freq_top,,,,,0,36,36,962,,,,,,,,,,,1.0100805755190645,,,,,,,,,,,,,,,,,,,,,,338.59209972235567,338.5928065818757,338.5928165240921,339.6057734771812,339.6057872679976,353.6599396347102,353.6599396347102,340.75562737470636,f,1,1.1047066123397826,None,340.7562056268455,340.7562441128448,340.7562527721948,340.7567117177359,,,,,,,,test,001,1,1,1,2024-01-19_17h25.50.822,eye_track_exp,2023.1.3,120.1256342391094,
90,0,12,0,180,180,0,0,180,-168,None,present,inhibit,freq_top,,,,,0,37,37,309,,,,,,,,,,,1.0108302749883717,,,,,,,,,,,,,,,,,,,,,,340.75717419116063,340.75792627172973,340.7579362139463,341.77062087859053,341.77063466940695,355.824777093903,355.824777093903,344.802069392181,None,1,,,344.80243725419086,344.80247606090666,344.80248472025664,344.803169450327,357.3151929575753,357.3151929575753,357.3151929575753,357.3151929575753,358.80560657623107,358.80560657623107,,test,001,1,1,1,2024-01-19_17h25.50.822,eye_track_exp,2023.1.3,120.1256342391094,
0,180,0,180,-168,0,-168,0,180,180,f,abs,resp,freq_top,,,,,0,38,38,811,,,,,,,,,,,0.9997783586173414,,,,,,,,,,,,,,,,,,,,,,344.8036582225177,344.8043949086873,344.80440485090367,345.80053572510997,345.80054919520967,359.85471278700527,359.85471278700527,346.78358488744607,f,1,0.9424178884490857,None,346.78408520543667,346.7841249743026,346.7841336336526,346.7845983520938,,,,,,,,test,001,1,1,1,2024-01-19_17h25.50.822,eye_track_exp,2023.1.3,120.1256342391094,
168,180,90,180,168,180,0,0,180,180,f,present,resp,freq_top,,,,,0,39,39,466,,,,,,,,,,,0.965954282262971,,,,,,,,,,,,,,,,,,,,,,346.78507365418477,346.78580649175433,346.7858164339707,347.74841221199245,347.74842600280886,361.803059765229,361.803059765229,348.68274194784703,f,1,0.8972664348167427,None,348.6832502837542,348.6832894111867,348.68329807053647,348.68376824116103,,,,,,,,test,001,1,1,1,2024-01-19_17h25.50.822,eye_track_exp,2023.1.3,120.1256342391094,
180,12,0,270,180,180,0,180,12,180,j,present,resp,freq_top,,,,,0,40,40,497,,,,,,,,,,,0.8501939187104296,,,,,,,,,,,,,,,,,,,,,,348.68424771256855,348.685443664996,348.6854536072126,349.53854869938164,349.53856249019805,363.59321164701794,363.59321164701794,351.0054941971132,j,1,1.4284780991534944,None,351.0060076644868,351.0060464712028,351.00605513055257,351.00651567967725,,,,,,,,test,001,1,1,1,2024-01-19_17h25.50.822,eye_track_exp,2023.1.3,120.1256342391094,
,,,,,,,,,,,,,,,,,,,,,,,,,,,,,,,,1.0133109184045974,,,,,,,,,,,,,,,,,,,,,,351.0069986789681,351.0077504388207,351.0077603810371,352.0201454963203,352.0201592871367,366.07445116559654,366.07445116559654,352.90442643513484,j,1,0.8337895519133554,None,352.9049325260255,352.904971653458,352.9049806335245,,,,,,,,,,,,,,,,,,
