ori10,ori11,ori12,ori13,ori14,ori16,ori17,ori18,ori19,ori20,corrAns,distractor,responses,dist_freq,practice_trials.thisRepN,practice_trials.thisTrialN,practice_trials.thisN,practice_trials.thisIndex,trials.thisRepN,trials.thisTrialN,trials.thisN,trials.thisIndex,intro_2.started,intro_2.stopped,key_resp.keys,key_resp.rt,key_resp.duration,start_et_record_2.started,start_et_record_2.stopped,fix_check_3.started,fix_check_3.stopped,fix_practice_2.started,fixdur,fix_practice_2.stopped,practice_search_2.started,int14_2.started,per15_2.started,practice_search_2.stopped,response_2.keys,response_2.corr,response_2.rt,response_2.duration,feedback_4.started,feedback_4.stopped,pause_pract_2.started,pause_pract_2.stopped,text_feedback.started,text_feedback.stopped,stop_et_record_2.started,stop_et_record_2.stopped,break_3.started,break_3.stopped,key_resp_2.keys,key_resp_2.rt,key_resp_2.duration,fix_check_2.started,fix_check_2.stopped,fixation_2.started,fixation_2.stopped,search_displays_2.started,int14.started,per15.started,int14.stopped,int14_3.started,per15.stopped,per15_3.started,int14_3.stopped,per15_3.stopped,search_displays_2.stopped,response.keys,response.corr,feedback_6.started,feedback_6.stopped,pause_4.started,pause_4.stopped,response.rt,response.duration,text_feedback_2.started,text_feedback_2.stopped,end_2.started,end_2.stopped,participant,session,group,age,gender,date,expName,psychopyVersion,frameRate,
,,,,,,,,,,,,,,,,,,,,,,9.9421845334291e-06,17.28126921287094,space,17.266780233090913,None,,,,,,,,,,,,,,,,,,,,,,,,,,,,,,,,,,,,,,,,,,,,,,,,,,,,,,,TS,001,2,26,M,2024-02-09_10h36.30.013,eye_track_exp,2023.1.3,120.12740792155184,
0,0,168,0,0,0,0,0,180,168,f,abs,resp,freq_top,0,0,0,19,,,,,,,,,,106.5462255458342,107.04742005120579,107.09480610655419,107.09805944592517,107.0980786888631,0.7297689996542635,107.82962976266754,107.82964259129267,849.1002335771946,849.1002335771946,109.77867029374693,f,1,1.908566529360769,None,109.77942654120716,109.7794707999642,109.77947945928645,109.77996919205634,,,,,,,,,,,,,,,,,,,,,,,,,,,,,,,,,,,,TS,001,2,26,M,2024-02-09_10h36.30.013,eye_track_exp,2023.1.3,120.12740792155184,
180,270,0,0,168,0,0,168,180,0,f,present,resp,freq_top,0,1,1,45,,,,,,,,,,,,109.7804525105139,109.98591096228483,109.98592443234156,1.067321185036075,111.05950942695517,111.05953027347095,852.3308034215224,852.3308034215224,114.07355773378504,None,0,,,114.07393810252461,114.56450986473192,114.5645204483476,114.56553102330417,855.3282665608731,,,,,,,,,,,,,,,,,,,,,,,,,,,,,,,,,,,TS,001,2,26,M,2024-02-09_10h36.30.013,eye_track_exp,2023.1.3,120.12740792155184,
0,0,0,-168,180,180,180,180,0,12,None,abs,inhibit,freq_top,0,2,2,25,,,,,,,,,,,,114.56605763837206,114.56682446944842,114.5668350530641,1.0987873230934038,115.66422324117138,115.66423639051254,856.9352478346082,856.9352478346082,117.89623021224634,f,0,2.1847844710271147,None,117.89672732147619,118.39629611930877,118.3963060614933,118.3967470454877,859.1416998634072,859.6412712269648,,,,,,,,,,,,,,,,,,,,,,,,,,,,,,,,,,TS,001,2,26,M,2024-02-09_10h36.30.013,eye_track_exp,2023.1.3,120.12740792155184,
180,0,90,180,12,0,180,180,12,180,j,present,resp,freq_top,0,3,3,41,,,,,,,,,,,,118.39727815057404,118.39805011310045,118.39806005528499,0.8298672702500871,119.2282956497811,119.22830815769066,860.4988853528207,860.4988853528207,120.76066243172363,j,1,1.485436453835291,None,120.76118199104758,120.76189750762296,120.76191610912929,120.76250654660817,,,,,,,,,,,,,,,,,,,,,,,,,,,,,,,,,,,,TS,001,2,26,M,2024-02-09_10h36.30.013,eye_track_exp,2023.1.3,120.12740792155184,
180,180,0,168,180,180,180,180,168,180,f,abs,resp,freq_top,0,4,4,10,,,,,,,,,,,,120.76300525941588,120.83581123575914,120.83582278152198,1.0655143575702046,121.90071542036048,121.90072824898562,863.1716165382786,863.1716165382786,123.43326982094777,f,1,1.484456346863908,None,123.43375442226761,123.43379354957506,123.43380188818128,123.4343458218932,,,,,,,,,,,,,,,,,,,,,,,,,,,,,,,,,,,,TS,001,2,26,M,2024-02-09_10h36.30.013,eye_track_exp,2023.1.3,120.12740792155184,
0,180,0,12,0,180,180,12,0,0,j,abs,resp,freq_top,0,5,5,2,,,,,,,,,,,,123.43481727387234,123.6915530237552,123.69156553166476,1.0037374255357834,124.698027310219,124.69804013884414,865.9692430501723,865.9692430501723,125.68233084575604,j,1,0.9430113882410751,None,125.68286355442069,125.682904285306,125.68291262391267,125.68335521148492,,,,,,,,,,,,,,,,,,,,,,,,,,,,,,,,,,,,TS,001,2,26,M,2024-02-09_10h36.30.013,eye_track_exp,2023.1.3,120.12740792155184,
0,180,180,180,168,0,0,0,0,12,None,abs,inhibit,freq_top,0,6,6,31,,,,,,,,,,,,125.68383981280476,125.90574424147098,125.90575707009612,0.907771785335631,126.81331143059379,126.81332393850334,868.0841278795851,868.0841278795851,129.8268937376106,None,1,,,129.82728148280967,129.8273218929794,129.82733087301676,129.82847037565762,,,,,,,,,,,,,,,,,,,,,,,,,,,,,,,,,,,,TS,001,2,26,M,2024-02-09_10h36.30.013,eye_track_exp,2023.1.3,120.12740792155184,
180,270,180,12,180,0,12,180,0,180,j,present,resp,freq_top,0,7,7,33,,,,,,,,,,,,129.82896427773085,129.82990621954195,129.82991584101092,1.0873613671688376,130.91788525243692,130.9178980810625,872.1889746304314,872.1889746304314,132.2345473595965,j,1,1.2824616239192892,None,132.23505376957928,132.235094179749,132.23510283907126,132.2355678767376,,,,,,,,,,,,,,,,,,,,,,,,,,,,,,,,,,,,TS,001,2,26,M,2024-02-09_10h36.30.013,eye_track_exp,2023.1.3,120.12740792155184,
12,0,0,12,0,0,180,0,180,180,j,abs,resp,freq_top,0,8,8,6,,,,,,,,,,,,132.23604862947013,132.53333919173883,132.53335266179556,0.7569999022229218,133.29129542495957,133.2913082535847,874.5619521575663,874.5619521575663,135.30669875533476,j,1,1.9812958546679056,None,135.30726129055347,135.30730138000763,135.30731003932942,135.3077840570336,,,,,,,,,,,,,,,,,,,,,,,,,,,,,,,,,,,,TS,001,2,26,M,2024-02-09_10h36.30.013,eye_track_exp,2023.1.3,120.12740792155184,
180,0,180,0,168,180,0,180,12,180,None,abs,inhibit,freq_top,0,9,9,30,,,,,,,,,,,,135.3082587161689,135.90628560945743,135.90629907951416,1.0323623801770818,136.93810573160545,136.93811856023058,878.2088477745701,878.2088477745701,139.95161363259513,None,1,,,139.9521873928611,139.95222780303084,139.9522367830682,139.95279514898357,,,,,,,,,,,,,,,,,,,,,,,,,,,,,,,,,,,,TS,001,2,26,M,2024-02-09_10h36.30.013,eye_track_exp,2023.1.3,120.12740792155184,
180,0,180,0,12,0,12,180,180,180,j,abs,resp,freq_top,0,10,10,7,,,,,,,,,,,,139.95326884597216,139.9541553039794,139.95416524616394,0.98812646232909,140.94309318039905,140.9431056883086,882.2138044346634,882.2138044346634,142.02693466092524,j,1,1.0334705151183243,None,142.02743914661414,142.0274792360683,142.02748789539055,142.02794876375356,,,,,,,,,,,,,,,,,,,,,,,,,,,,,,,,,,,,TS,001,2,26,M,2024-02-09_10h36.30.013,eye_track_exp,2023.1.3,120.12740792155184,
90,0,180,180,180,168,0,168,0,0,f,present,resp,freq_top,0,11,11,44,,,,,,,,,,,,142.02842053644827,142.2422564012436,142.2422695505843,1.0220154584089394,143.26583413164826,143.2658469602734,884.5368224842182,884.5368224842182,144.86551174829492,f,1,1.5582122829093805,None,144.86602200686548,144.8660617756036,144.86607043492586,144.86642674999302,,,,,,,,,,,,,,,,,,,,,,,,,,,,,,,,,,,,TS,001,2,26,M,2024-02-09_10h36.30.013,eye_track_exp,2023.1.3,120.12740792155184,
0,0,180,0,0,0,168,0,180,168,f,abs,resp,freq_top,0,12,12,15,,,,,,,,,,,,144.86690718200998,147.6874048877703,147.6874186785426,0.8758057196807878,148.5694492061807,148.5694620348063,889.8406643047028,889.8406643047028,149.68621567420678,f,1,1.0703143269263364,None,149.6867150284461,149.6867551178998,149.6867640979376,149.68721726912554,,,,,,,,,,,,,,,,,,,,,,,,,,,,,,,,,,,,TS,001,2,26,M,2024-02-09_10h36.30.013,eye_track_exp,2023.1.3,120.12740792155184,
0,0,168,0,0,0,0,0,168,0,f,abs,resp,freq_top,0,13,13,11,,,,,,,,,,,,149.68769353183916,149.6884318192242,149.68844176140874,0.798041022931182,150.48454359118796,150.48455609909752,891.7557048094836,891.7557048094836,151.9183092385024,f,1,1.3949596875984298,None,151.91881083775115,151.9188506064893,151.91885926581153,151.9195731788086,,,,,,,,,,,,,,,,,,,,,,,,,,,,,,,,,,,,TS,001,2,26,M,2024-02-09_10h36.30.013,eye_track_exp,2023.1.3,120.12740792155184,
180,0,180,12,180,180,12,180,180,180,j,abs,resp,freq_top,0,14,14,1,,,,,,,,,,,,151.92005489368785,152.26706728325325,152.26708075330998,1.0456215366225547,153.31547289359605,153.31548508079004,894.5866334704606,894.5866334704606,154.38246237123667,j,1,1.0290747866658876,None,154.38298706201067,154.3830265100337,154.38303516935548,154.38349892415954,,,,,,,,,,,,,,,,,,,,,,,,,,,,,,,,,,,,TS,001,2,26,M,2024-02-09_10h36.30.013,eye_track_exp,2023.1.3,120.12740792155184,
180,12,180,12,180,90,180,180,0,180,j,present,resp,freq_top,0,15,15,37,,,,,,,,,,,,154.3839774318826,154.38471315354263,154.38472309572717,0.9620658840221099,155.3475588890028,155.34757139691237,896.6182534660538,896.6182534660538,156.59782195599973,j,1,1.2043378616806422,None,156.59834728820533,156.59838898123735,156.59839764055914,156.59887743114496,,,,,,,,,,,,,,,,,,,,,,,,,,,,,,,,,,,,TS,001,2,26,M,2024-02-09_10h36.30.013,eye_track_exp,2023.1.3,120.12740792155184,
180,12,180,12,0,180,0,180,180,180,j,abs,resp,freq_top,0,16,16,5,,,,,,,,,,,,156.59936459818982,157.78756983181984,157.78758330187657,0.7589260377159,158.55322869237534,158.55324087956933,899.8238857456977,899.8238857456977,159.419597072123,j,1,0.8309725893466293,None,159.42010316139022,159.42014357155995,159.4201522308822,159.42061566497023,,,,,,,,,,,,,,,,,,,,,,,,,,,,,,,,,,,,TS,001,2,26,M,2024-02-09_10h36.30.013,eye_track_exp,2023.1.3,120.12740792155184,
0,168,180,90,0,180,0,168,0,0,f,present,resp,freq_top,0,17,17,48,,,,,,,,,,,,159.42109353126216,166.2881017386958,166.2881155294681,0.9847514898933587,167.27919899346625,167.27921214280695,908.5498021665621,908.5498021665621,168.6281347146769,f,1,1.3039203861424085,None,168.62866646119483,168.62870655064899,168.6287155306868,168.62935535837278,,,,,,,,,,,,,,,,,,,,,,,,,,,,,,,,,,,,TS,001,2,26,M,2024-02-09_10h36.30.013,eye_track_exp,2023.1.3,120.12740792155184,
0,180,0,12,0,12,0,180,180,180,j,abs,resp,freq_top,0,18,18,0,,,,,,,,,,,,168.62984797758327,169.14447020503667,169.1444836750934,0.838271278958387,169.9848320748988,169.98484490352394,911.255834218241,911.255834218241,170.73610267005415,j,1,0.7105666403283522,None,170.73662479510313,170.73666488455683,170.73667386459465,170.73714307156433,,,,,,,,,,,,,,,,,,,,,,,,,,,,,,,,,,,,TS,001,2,26,M,2024-02-09_10h36.30.013,eye_track_exp,2023.1.3,120.12740792155184,
180,168,0,180,0,180,180,180,168,180,f,abs,resp,freq_top,0,19,19,12,,,,,,,,,,,,170.73764050150976,170.98489397301591,170.9849074430722,1.0857983759406422,172.07487651646397,172.07488966580468,913.345745562819,913.345745562819,173.2751031341295,f,1,1.1638924133251294,None,173.27562365560016,173.27566310362317,173.2756714422294,173.27611499194836,,,,,,,,,,,,,,,,,,,,,,,,,,,,,,,,,,,,TS,001,2,26,M,2024-02-09_10h36.30.013,eye_track_exp,2023.1.3,120.12740792155184,
0,0,180,0,168,0,0,0,180,168,f,abs,resp,freq_top,0,20,20,17,,,,,,,,,,,,173.27658836822138,173.27733884280042,173.27734846426938,1.07054671296887,174.35637696530557,174.35639011464627,915.627132478327,915.627132478327,175.54002547123582,f,1,1.1382912879982996,None,175.5405395783937,175.540580309279,175.54058896860124,175.5408397682254,,,,,,,,,,,,,,,,,,,,,,,,,,,,,,,,,,,,TS,001,2,26,M,2024-02-09_10h36.30.013,eye_track_exp,2023.1.3,120.12740792155184,
12,0,0,12,0,0,90,180,180,0,j,present,resp,freq_top,0,21,21,38,,,,,,,,,,,,175.5413295009953,175.60550277467155,175.60551464114997,0.8887372105133605,176.49579557842208,176.4958084070472,917.7670138841004,917.7670138841004,177.7623051371911,j,1,1.222549057414426,None,177.7628028878521,177.7628429773058,177.76285163662806,177.7633269371945,,,,,,,,,,,,,,,,,,,,,,,,,,,,,,,,,,,,TS,001,2,26,M,2024-02-09_10h36.30.013,eye_track_exp,2023.1.3,120.12740792155184,
0,180,0,0,180,0,180,168,0,168,f,abs,resp,freq_top,0,22,22,14,,,,,,,,,,,,177.7638115385148,178.4202077146865,178.42022150545836,0.8727832300160858,179.29418988353882,179.29420271216395,920.5646330195345,920.5646330195345,180.59344803621025,f,1,1.2566953300417936,None,180.59397240626868,180.5940128164384,180.5940214757602,180.59449260702377,,,,,,,,,,,,,,,,,,,,,,,,,,,,,,,,,,,,TS,001,2,26,M,2024-02-09_10h36.30.013,eye_track_exp,2023.1.3,120.12740792155184,
180,270,0,0,0,0,0,168,0,168,f,present,resp,freq_top,0,23,23,43,,,,,,,,,,,,180.5950002998693,180.83434075458626,180.83435390392697,0.9394462704518906,181.77545736454522,181.77547019317035,923.045851751765,923.045851751765,183.0745695916039,j,0,1.255656211393898,None,183.0751350132632,183.58107546855763,183.58108541074216,183.58206070697906,924.3280876015506,,,,,,,,,,,,,,,,,,,,,,,,,,,,,,,,,,,TS,001,2,26,M,2024-02-09_10h36.30.013,eye_track_exp,2023.1.3,120.12740792155184,
90,0,0,12,0,0,0,12,0,0,j,present,resp,freq_top,0,24,24,34,,,,,,,,,,,,183.58259084991914,183.58329770717182,183.58330797007238,1.0093049887821306,184.5972908509134,184.59730335882296,925.8684597663841,925.8684597663841,185.7312300374565,j,1,1.0893558554314495,None,185.73173452314586,185.73245388830856,185.73246350977752,185.73305972013713,,,,,,,,,,,,,,,,,,,,,,,,,,,,,,,,,,,,TS,001,2,26,M,2024-02-09_10h36.30.013,eye_track_exp,2023.1.3,120.12740792155184,
0,180,0,0,180,168,180,0,0,168,f,abs,resp,freq_top,0,25,25,16,,,,,,,,,,,,185.73354432145743,185.94694593728673,185.9469584451963,0.9577717334869935,186.90421346575886,186.90422629438444,928.1748310710586,928.1748310710586,187.93797295533386,j,0,0.9914224507494964,None,187.93846172595704,188.44356896203908,188.4435795456552,188.44433867955604,929.1906500488931,,,,,,,,,,,,,,,,,,,,,,,,,,,,,,,,,,,TS,001,2,26,M,2024-02-09_10h36.30.013,eye_track_exp,2023.1.3,120.12740792155184,
180,180,168,0,270,0,0,168,0,180,f,present,resp,freq_top,0,26,26,47,,,,,,,,,,,,188.44486818106452,188.44564784076601,188.44565778295055,0.9014091142021857,189.35205949146712,189.3520729615234,930.6227608035465,930.6227608035465,190.8354584485637,f,1,1.439046541239577,None,190.8359748007315,190.83669929734424,190.83670923952877,190.83760307399552,,,,,,,,,,,,,,,,,,,,,,,,,,,,,,,,,,,,TS,001,2,26,M,2024-02-09_10h36.30.013,eye_track_exp,2023.1.3,120.12740792155184,
90,0,0,12,0,12,180,180,180,0,j,present,resp,freq_top,0,27,27,32,,,,,,,,,,,,190.8381085218316,190.83888208793587,190.8388920301204,0.7246895194897229,191.56651016812884,191.5665226760384,932.8375729267259,932.8375729267259,193.11656345503116,j,1,1.5113865177702337,None,193.1170676200045,193.1171083508898,193.11711701021204,193.11776645936698,,,,,,,,,,,,,,,,,,,,,,,,,,,,,,,,,,,,TS,001,2,26,M,2024-02-09_10h36.30.013,eye_track_exp,2023.1.3,120.12740792155184,
0,180,0,-168,180,0,180,0,12,180,None,abs,inhibit,freq_top,0,28,28,24,,,,,,,,,,,,193.11824143921785,193.3574244225597,193.3574375719004,0.9970482862437566,194.3557955078645,194.35580865720567,935.6268524935799,935.6268524935799,197.3695933357858,None,1,,,197.36998781601324,197.37002758475182,197.37003688550476,197.37119402750523,,,,,,,,,,,,,,,,,,,,,,,,,,,,,,,,,,,,TS,001,2,26,M,2024-02-09_10h36.30.013,eye_track_exp,2023.1.3,120.12740792155184,
0,0,0,-168,0,0,0,12,0,0,None,abs,inhibit,freq_top,0,29,29,23,,,,,,,,,,,,197.3716901745879,197.6543009409479,197.65431441100418,0.9082624918583213,198.56060675548997,198.56061958411556,939.8316217274578,939.8316217274578,201.57438758548278,None,1,,,201.57476378491947,201.57480451580432,201.5748138165577,201.57613516496167,,,,,,,,,,,,,,,,,,,,,,,,,,,,,,,,,,,,TS,001,2,26,M,2024-02-09_10h36.30.013,eye_track_exp,2023.1.3,120.12740792155184,
0,180,0,12,0,180,180,180,0,12,j,abs,resp,freq_top,0,30,30,4,,,,,,,,,,,,201.57662393558485,201.61741703968573,201.61742890616415,1.0884495066136228,202.7072818804968,202.70729502983795,943.9781178931421,943.9781178931421,204.27329205295518,j,1,1.5223642931384802,None,204.27379044504778,204.27383053450149,204.2738395145393,219.31026864103478,,,,,,,,,,,,,,,,,,,,,,,,,,,,,,,,,,,,TS,001,2,26,M,2024-02-09_10h36.30.013,eye_track_exp,2023.1.3,120.12740792155184,
0,180,0,180,168,180,12,180,0,180,None,abs,inhibit,freq_top,0,31,31,28,,,,,,,,,,,,219.31079589753426,219.3117933231497,219.31180422748093,0.9182930436066645,220.2345909769224,220.23460380554752,961.5048978087743,961.5048978087743,223.24764763101803,None,1,,,223.2480324897765,223.2480745035241,223.24808380427748,223.2486248515488,,,,,,,,,,,,,,,,,,,,,,,,,,,,,,,,,,,,TS,001,2,26,M,2024-02-09_10h36.30.013,eye_track_exp,2023.1.3,120.12740792155184,
12,0,0,-168,0,0,180,180,180,180,None,abs,inhibit,freq_top,0,32,32,27,,,,,,,,,,,,223.24910111426243,223.25001515381382,223.25002477528278,1.0018763856985953,224.25528387021677,224.2552966988419,965.5264938372889,965.5264938372889,227.2692824661235,None,1,,,227.26967854992927,227.26971960153014,227.26972890228353,227.2703716164101,,,,,,,,,,,,,,,,,,,,,,,,,,,,,,,,,,,,TS,001,2,26,M,2024-02-09_10h36.30.013,eye_track_exp,2023.1.3,120.12740792155184,
0,270,0,0,12,0,0,12,0,0,j,present,resp,freq_top,0,33,33,40,,,,,,,,,,,,227.2708539727205,227.2954175829782,227.295428808025,0.8098443440059923,228.1109451585894,228.11095766649896,969.3815595567326,969.3815595567326,229.47713057006877,j,1,1.3177714528585511,None,229.47762383071085,229.47766327873387,229.47767193805566,229.47814178645694,,,,,,,,,,,,,,,,,,,,,,,,,,,,,,,,,,,,TS,001,2,26,M,2024-02-09_10h36.30.013,eye_track_exp,2023.1.3,120.12740792155184,
0,270,0,0,12,0,180,180,180,12,j,present,resp,freq_top,0,34,34,42,,,,,,,,,,,,229.4786039376827,229.7264023050475,229.72641577510421,1.0402586053505956,230.76675346300726,230.76676661234842,972.0376571466509,972.0376571466509,231.76719989916728,j,1,0.9653796999971291,None,231.76770374342505,231.76774575717263,231.76775441649488,231.76822394418014,,,,,,,,,,,,,,,,,,,,,,,,,,,,,,,,,,,,TS,001,2,26,M,2024-02-09_10h36.30.013,eye_track_exp,2023.1.3,120.12740792155184,
0,180,180,180,12,0,180,12,0,0,j,abs,resp,freq_top,0,35,35,8,,,,,,,,,,,,231.7686979618843,231.94085105741578,231.94086356532534,0.9860733211771563,232.93188577263754,232.93189860126313,974.2024828521371,974.2024828521371,233.79846357969336,j,1,0.8175419808237621,None,233.7989590853449,233.79899885408304,233.7990075134053,233.79948281397174,,,,,,,,,,,,,,,,,,,,,,,,,,,,,,,,,,,,TS,001,2,26,M,2024-02-09_10h36.30.013,eye_track_exp,2023.1.3,120.12740792155184,
180,180,180,-168,180,180,12,180,0,180,None,abs,inhibit,freq_top,0,36,36,22,,,,,,,,,,,,233.79994400305077,233.8232914596315,233.8233023639632,0.9702119641283499,234.79692703110004,234.79693953901005,976.0675754251006,976.0675754251006,237.8103290959316,None,1,,,237.810706257515,237.8107469884003,237.8107562891537,237.81197853642698,,,,,,,,,,,,,,,,,,,,,,,,,,,,,,,,,,,,TS,001,2,26,M,2024-02-09_10h36.30.013,eye_track_exp,2023.1.3,120.12740792155184,
180,12,180,-168,180,180,0,180,180,180,None,abs,inhibit,freq_top,0,37,37,26,,,,,,,,,,,,237.81246826919732,237.81326909613063,237.81327903831516,0.7382914205080782,238.5520195944423,238.55203242306789,979.822678251343,979.822678251343,241.56546367302144,None,1,,,241.56608618206337,241.5661265922331,241.56613621370207,241.56664551012545,,,,,,,,,,,,,,,,,,,,,,,,,,,,,,,,,,,,TS,001,2,26,M,2024-02-09_10h36.30.013,eye_track_exp,2023.1.3,120.12740792155184,
180,180,0,168,180,180,180,0,0,168,f,abs,resp,freq_top,0,38,38,18,,,,,,,,,,,,241.56750085871636,241.56833183291883,241.56834209581893,1.0657846251193392,242.63151185028255,242.63152467890768,983.9025890410826,983.9025890410826,243.88154913347444,f,1,1.2121575502212636,None,243.88206067490773,243.88210044364587,243.8821094236837,243.88255297340265,,,,,,,,,,,,,,,,,,,,,,,,,,,,,,,,,,,,TS,001,2,26,M,2024-02-09_10h36.30.013,eye_track_exp,2023.1.3,120.12740792155184,
90,0,0,12,0,180,180,180,0,12,j,present,resp,freq_top,0,39,39,36,,,,,,,,,,,,243.88303083969458,244.0725484416912,244.07256062888518,0.936122710507052,245.01293317857744,245.0129463279186,986.2839067782288,986.2839067782288,246.11351826010514,j,1,1.0549055443850648,None,246.11401248289394,246.1140519309165,246.11406026952318,246.11453460794291,,,,,,,,,,,,,,,,,,,,,,,,,,,,,,,,,,,,TS,001,2,26,M,2024-02-09_10h36.30.013,eye_track_exp,2023.1.3,120.12740792155184,
180,270,180,12,180,180,180,180,12,180,j,present,resp,freq_top,0,40,40,35,,,,,,,,,,,,246.11500221133429,246.11575332734446,246.11576294881343,0.8144181514934856,246.92812923043994,246.92814237978064,988.1989476037252,988.1989476037252,248.16179077346032,j,1,1.1876167107732272,None,248.16230584276536,248.1623462529351,248.16235555368849,248.16271860378401,,,,,,,,,,,,,,,,,,,,,,,,,,,,,,,,,,,,TS,001,2,26,M,2024-02-09_10h36.30.013,eye_track_exp,2023.1.3,120.12740792155184,
168,0,180,0,0,180,180,0,168,0,f,abs,resp,freq_top,0,41,41,13,,,,,,,,,,,,248.1632054501133,248.2277244552406,248.22773696315016,1.0690596562441153,249.30126679467503,249.3012793025846,990.5719180751162,990.5719180751162,250.9340672803669,f,1,1.5830276549379505,None,250.93456342744958,250.93460351690373,250.9346124969411,250.935178560032,,,,,,,,,,,,,,,,,,,,,,,,,,,,,,,,,,,,TS,001,2,26,M,2024-02-09_10h36.30.013,eye_track_exp,2023.1.3,120.12740792155184,
0,0,0,0,168,0,0,12,0,0,None,abs,inhibit,freq_top,0,42,42,29,,,,,,,,,,,,250.93565738847064,251.64946070062888,251.64947384997004,1.078166766219064,252.73134645723076,252.7313596065719,994.0023607877674,994.0023607877674,255.74511702432346,None,1,,,255.74552914391052,255.74557211980527,255.74558142055866,255.74665196933847,,,,,,,,,,,,,,,,,,,,,,,,,,,,,,,,,,,,TS,001,2,26,M,2024-02-09_10h36.30.013,eye_track_exp,2023.1.3,120.12740792155184,
0,0,0,-168,0,12,0,0,0,0,None,abs,inhibit,freq_top,0,43,43,21,,,,,,,,,,,,255.74715870003683,255.74798486350528,255.7479948056898,1.0203930178199936,256.7695725534131,256.76958538203826,998.0406109376218,998.0406109376218,259.78336364630604,None,1,,,259.7837738415992,259.7838145724845,259.7838241939535,259.78507755064356,,,,,,,,,,,,,,,,,,,,,,,,,,,,,,,,,,,,TS,001,2,26,M,2024-02-09_10h36.30.013,eye_track_exp,2023.1.3,120.12740792155184,
180,168,180,0,180,0,180,0,0,168,f,abs,resp,freq_top,0,44,44,20,,,,,,,,,,,,259.7855544547883,259.78619941392435,259.78620967682446,1.0513451425255056,260.84095423163444,260.840966739544,1002.1121382207402,1002.1121382207402,261.84160047363275,f,1,0.9541492007103898,None,261.8421107322033,261.8421501802263,261.84215851883255,261.842511306028,,,,,,,,,,,,,,,,,,,,,,,,,,,,,,,,,,,,TS,001,2,26,M,2024-02-09_10h36.30.013,eye_track_exp,2023.1.3,120.12740792155184,
168,0,270,180,180,180,180,168,180,180,f,present,resp,freq_top,0,45,45,49,,,,,,,,,,,,261.84299430376996,261.8437152725105,261.84372489397947,0.7621535318455368,262.60622053625593,262.60623368559664,1003.8773256293161,1003.8773256293161,264.5890802100175,j,0,1.9406964628090009,None,264.58962863374836,265.09522656474746,265.09523650693245,265.0963484280287,1005.8423291395488,,,,,,,,,,,,,,,,,,,,,,,,,,,,,,,,,,,TS,001,2,26,M,2024-02-09_10h36.30.013,eye_track_exp,2023.1.3,120.12740792155184,
180,180,90,180,12,180,12,0,0,180,j,present,resp,freq_top,0,46,46,39,,,,,,,,,,,,265.09687023236165,265.09764508132866,265.0976556649448,1.0579611983162438,266.15328250845823,266.15329533708336,1007.4243157612168,1007.4243157612168,267.5035180901259,j,1,1.3059537232495586,None,267.50403700801826,267.5047743332566,267.5047842754411,267.50514572195834,,,,,,,,,,,,,,,,,,,,,,,,,,,,,,,,,,,,TS,001,2,26,M,2024-02-09_10h36.30.013,eye_track_exp,2023.1.3,120.12740792155184,
90,0,180,168,180,180,0,168,0,0,f,present,resp,freq_top,0,47,47,46,,,,,,,,,,,,267.5056412276099,267.6867288192184,267.6867416478435,0.8694237851695219,268.55940856188863,268.5594213905142,1009.8306182082451,1009.8306182082451,270.3754630732833,f,1,1.7794137029097783,None,270.3759633896693,270.3760041205546,270.3760127798764,270.376643306809,,,,,,,,,,,,,,,,,,,,,,,,,,,,,,,,,,,,TS,001,2,26,M,2024-02-09_10h36.30.013,eye_track_exp,2023.1.3,120.12740792155184,
180,0,180,12,0,180,180,0,12,180,j,abs,resp,freq_top,0,48,48,3,,,,,,,,,,,,270.37716190398623,270.3779418844033,270.3779511851567,1.06634198244832,271.44055134865766,271.4405638565672,1012.7114919145984,1012.7114919145984,273.6065851899293,j,1,2.1298612776097343,None,273.6071178985944,273.607157346617,273.6071663266548,273.60765413513127,,,,,,,,,,,,,,,,,,,,,,,,,,,,,,,,,,,,TS,001,2,26,M,2024-02-09_10h36.30.013,eye_track_exp,2023.1.3,120.12740792155184,
180,0,180,0,12,180,180,180,12,180,j,abs,resp,freq_top,0,49,49,9,,,,,,,,,,,,273.6081483579201,273.63190055762834,273.63191146196004,1.0702382805715254,274.7049679172119,274.704980745837,1015.9753943759947,1015.9753943759947,275.7544209848088,j,1,1.0101586579728519,None,275.7549447134361,275.7549844821742,275.75499314149647,275.755476459954,,,,,,,,,,,,,,,,,,,,,,,,,,,,,,,,,,,,TS,001,2,26,M,2024-02-09_10h36.30.013,eye_track_exp,2023.1.3,120.12740792155184,
,,,,,,,,,,,,,,,,,,,,,,,,,,,,,,,,,,,,,,,,,,,,,,,,275.7555306608956,276.2581962888712,276.25822098397475,287.41839342635603,space,11.140814678590914,None,,,,,,,,,,,,,,,,,,,,,,,,,,,TS,001,2,26,M,2024-02-09_10h36.30.013,eye_track_exp,2023.1.3,120.12740792155184,
180,0,180,0,180,12,180,90,0,168,None,present,inhibit,freq_bottom,,,,,0,0,0,125,,,,,,287.4184194043223,287.91963603907243,,,,0.7397911644216161,,,,,,,,,,,,,,,,,,,,,,,288.1139534712179,304.07198013359084,304.0719961693726,304.8121924537536,304.81220656524147,1046.0831907485085,1046.0831907485085,1047.5735720056305,1047.5735720056305,1047.5735720056305,1047.5735720056305,1049.064010029419,1049.064010029419,307.84361392637084,None,1,307.8444676713834,307.8445282866378,307.8445372666756,307.84507318249644,,,,,,,TS,001,2,26,M,2024-02-09_10h36.30.013,eye_track_exp,2023.1.3,120.12740792155184,
0,0,180,-12,180,180,90,180,180,168,None,present,inhibit,freq_bottom,,,,,0,1,1,145,,,,,,,,,,,0.9512692545996522,,,,,,,,,,,,,,,,,,,,,,,307.84555682166956,339.2251067742518,339.2251234514647,340.1825346605401,340.182548772028,1081.453211277516,1081.453211277516,1082.9436181918886,1082.9436181918886,1082.9436181918886,1082.9436181918886,1084.4340276719863,1084.4340276719863,343.2140388777907,None,1,343.21443079229266,343.2144712024624,343.2144801825002,343.2149157143285,,,,,,,TS,001,2,26,M,2024-02-09_10h36.30.013,eye_track_exp,2023.1.3,120.12740792155184,
0,0,0,12,0,0,270,180,180,12,j,present,resp,freq_bottom,,,,,0,2,2,623,,,,,,,,,,,0.9388955711463712,,,,,,,,,,,,,,,,,,,,,,,343.21540705067673,361.1316826313564,361.131697704991,362.07178321419315,362.07179732568056,1103.342989653393,1103.342989653393,1104.8334097171064,1104.8334097171064,1104.8334097171064,1104.8334097171064,,,364.02233944734917,j,1,364.023358681628,364.02340614754166,364.023415127579,364.0237999863375,1.9111290472608289,None,,,,,TS,001,2,26,M,2024-02-09_10h36.30.013,eye_track_exp,2023.1.3,120.12740792155184,
-168,0,0,0,0,90,0,12,180,180,None,present,inhibit,freq_bottom,,,,,0,3,3,277,,,,,,,,,,,0.8963282914471835,,,,,,,,,,,,,,,,,,,,,,,364.024287794814,409.29041377768726,409.29044681139703,410.18960708165787,410.18962119314574,1151.4605268010828,1151.4605268010828,1152.9509022853235,1152.9509022853235,1152.9509022853235,1152.9509022853235,1154.4413303669276,1154.4413303669276,413.2207793582288,None,1,413.2211574819589,413.2211991749914,413.2212084757448,413.2216869834674,,,,,,,TS,001,2,26,M,2024-02-09_10h36.30.013,eye_track_exp,2023.1.3,120.12740792155184,
180,180,-168,180,180,-168,0,90,0,180,f,present,resp,freq_bottom,,,,,0,4,4,477,,,,,,,,,,,0.8182503786545774,,,,,,,,,,,,,,,,,,,,,,,413.2221719055033,413.2878560705217,413.2878682577157,414.11160519136,414.11161962356346,1155.3821964979775,1155.3821964979775,1156.8725873765684,1156.8725873765684,1156.8725873765684,1156.8725873765684,,,416.33613499818966,f,1,416.3366442946135,416.3366843840672,416.33669336410503,416.33723890139527,2.1740802660922327,None,,,,,TS,001,2,26,M,2024-02-09_10h36.30.013,eye_track_exp,2023.1.3,120.12740792155184,
180,0,180,0,-12,180,180,-12,180,90,j,present,resp,freq_bottom,,,,,0,5,5,739,,,,,,,,,,,1.0814470375740273,,,,,,,,,,,,,,,,,,,,,,,416.33771580554003,416.7262695287759,416.7262846024105,417.8084849810475,417.8084987718198,1159.079054799718,1159.079054799718,1160.5694729391375,1160.5694729391375,1160.5694729391375,1160.5694729391375,,,419.64982310929327,j,1,419.65039173810874,419.6504327897096,419.65044176974743,419.6509266917833,1.8047133555426171,None,,,,,TS,001,2,26,M,2024-02-09_10h36.30.013,eye_track_exp,2023.1.3,120.12740792155184,
180,12,0,168,0,0,90,180,180,180,None,present,inhibit,freq_bottom,,,,,0,6,6,198,,,,,,,,,,,0.7437180580492776,,,,,,,,,,,,,,,,,,,,,,,419.65139910590915,420.52252530205806,420.52254037569264,421.272107008695,421.2721207994673,1162.542769514183,1162.542769514183,1164.0331850878774,1164.0331850878774,1164.0331850878774,1164.0331850878774,1165.5235830222123,1165.5235830222123,424.3029454202933,None,1,424.30332899618907,424.3033690856432,424.3033783863966,424.30390949148295,,,,,,,TS,001,2,26,M,2024-02-09_10h36.30.013,eye_track_exp,2023.1.3,120.12740792155184,
180,0,180,-12,180,180,0,270,180,-12,j,present,resp,freq_bottom,,,,,0,7,7,544,,,,,,,,,,,0.7923985504444977,,,,,,,,,,,,,,,,,,,,,,,424.30437228413984,424.3119360416058,424.3119472666531,425.1105109096234,425.1105247003957,1166.3811763015524,1166.3811763015524,,,,,,,426.4111946432795,j,1,426.4117222204941,426.4117629513794,426.4117719314172,426.41222189544897,1.2537129953791464,None,,,,,TS,001,2,26,M,2024-02-09_10h36.30.013,eye_track_exp,2023.1.3,120.12740792155184,
180,0,180,0,180,12,180,90,0,168,None,present,inhibit,freq_bottom,,,,,0,8,8,123,,,,,,,,,,,0.72023928375739,,,,,,,,,,,,,,,,,,,,,,,426.41270264818104,426.4680520726729,426.4680642598669,427.19204708618645,427.1920611976743,1168.4627746969477,1168.4627746969477,1169.953158199079,1169.953158199079,1169.953158199079,1169.953158199079,1171.4435667170296,1171.4435667170296,430.2230381584254,None,1,430.2234076228333,430.2234483537186,430.22345797518756,430.2239117878071,,,,,,,TS,001,2,26,M,2024-02-09_10h36.30.013,eye_track_exp,2023.1.3,120.12740792155184,
0,0,168,180,180,180,180,0,0,168,f,abs,resp,freq_bottom,,,,,0,9,9,782,,,,,,,,,,,0.8712160313177156,,,,,,,,,,,,,,,,,,,,,,,430.22439510626464,430.6222755607955,430.6222906344301,431.4970053177858,431.49701974998925,1172.767453585232,1172.767453585232,,,,,,,432.74684119156154,f,1,432.7473674859134,432.74740885822985,432.74741815898324,432.7479422083261,1.2031294051791974,None,,,,,TS,001,2,26,M,2024-02-09_10h36.30.013,eye_track_exp,2023.1.3,120.12740792155184,
0,180,180,180,90,12,180,180,12,0,j,present,resp,freq_bottom,,,,,0,10,10,417,,,,,,,,,,,1.0019640675743509,,,,,,,,,,,,,,,,,,,,,,,432.7488812636966,432.79551010943806,432.7955226173476,433.80287726822144,433.80289105899374,1175.0738255313377,1175.0738255313377,,,,,,,435.13716815152657,j,1,435.137680334391,435.13772074456074,435.13773004531413,435.1382236266718,1.2973668829174585,None,,,,,TS,001,2,26,M,2024-02-09_10h36.30.013,eye_track_exp,2023.1.3,120.12740792155184,
0,0,0,180,-12,0,90,180,0,-12,j,present,resp,freq_bottom,,,,,0,11,11,732,,,,,,,,,,,1.0969792394300215,,,,,,,,,,,,,,,,,,,,,,,435.13871239729497,435.5771393256059,435.57715375780936,436.67559517605196,436.6756092875398,1177.946366083424,1177.946366083424,,,,,,,437.7929729280727,j,1,437.79349409097495,437.79353674615413,437.7935460469075,437.79410761997906,1.0800951915564383,None,,,,,TS,001,2,26,M,2024-02-09_10h36.30.013,eye_track_exp,2023.1.3,120.12740792155184,
0,0,12,0,180,12,180,180,180,90,j,present,resp,freq_bottom,,,,,0,12,12,525,,,,,,,,,,,0.8661291546229061,,,,,,,,,,,,,,,,,,,,,,,437.7945919005833,437.90068270736583,437.9006955359914,438.76578586394544,438.7658002961489,1180.0362780694331,1180.0362780694331,1181.5266830595115,1181.5266830595115,1181.5266830595115,1181.5266830595115,,,440.5067999731882,j,1,440.5072855366552,440.5073256261094,440.50733428543117,440.50768578976385,1.6944118732274092,None,,,,,TS,001,2,26,M,2024-02-09_10h36.30.013,eye_track_exp,2023.1.3,120.12740792155184,
180,180,-168,0,12,180,90,0,180,180,None,present,inhibit,freq_bottom,,,,,0,13,13,175,,,,,,,,,,,1.0131686334585903,,,,,,,,,,,,,,,,,,,,,,,440.5081886718749,440.705829038684,440.70584347088743,441.7211852238611,441.72119933534896,1182.992102698277,1182.992102698277,1184.4825092919336,1184.4825092919336,1184.4825092919336,1184.4825092919336,1185.9729040191119,1185.9729040191119,444.7527099669119,None,1,444.75308841135757,444.753129783674,444.7531390844274,444.7537657627727,,,,,,,TS,001,2,26,M,2024-02-09_10h36.30.013,eye_track_exp,2023.1.3,120.12740792155184,
0,180,0,180,180,12,180,90,180,168,None,present,inhibit,freq_bottom,,,,,0,14,14,41,,,,,,,,,,,0.7814188137422549,,,,,,,,,,,,,,,,,,,,,,,444.7542519676708,444.78622539189064,444.78623725836906,445.5678963010905,445.5679100918628,1186.838851299235,1186.838851299235,1188.3292415363944,1188.3292415363944,1188.3292415363944,1188.3292415363944,1189.8196644865488,1189.8196644865488,448.59916126447933,None,1,448.5995474061001,448.5995890991326,448.5995983998855,448.6000477224861,,,,,,,TS,001,2,26,M,2024-02-09_10h36.30.013,eye_track_exp,2023.1.3,120.12740792155184,
168,0,180,180,180,0,0,168,0,0,f,abs,resp,freq_bottom,,,,,0,15,15,765,,,,,,,,,,,1.049772167903254,,,,,,,,,,,,,,,,,,,,,,,448.60055092531275,449.43994070609415,449.43995545901316,450.4889614490189,450.4889752397912,1191.7596816833207,1191.7596816833207,,,,,,,451.7721389199005,j,0,451.7726786843091,452.278216962201,452.278229149395,452.27943247444637,1.2345794214877515,None,1193.025256676738,,,,TS,001,2,26,M,2024-02-09_10h36.30.013,eye_track_exp,2023.1.3,120.12740792155184,
180,0,180,168,180,270,180,180,168,0,f,present,resp,freq_bottom,,,,,0,16,16,487,,,,,,,,,,,0.7698644533652116,,,,,,,,,,,,,,,,,,,,,,,452.279977370305,452.28817165470355,452.28818352118196,453.0617082533281,453.06172172338484,1194.3324814057096,1194.3324814057096,1195.822891527238,1195.822891527238,1195.822891527238,1195.822891527238,,,455.1025116203291,f,1,455.10302925535916,455.10377620206646,455.10378678568213,455.10435028304755,2.006786333102127,None,,,,,TS,001,2,26,M,2024-02-09_10h36.30.013,eye_track_exp,2023.1.3,120.12740792155184,
0,180,180,0,12,90,180,168,180,0,None,present,inhibit,freq_bottom,,,,,0,17,17,161,,,,,,,,,,,1.0661259793636066,,,,,,,,,,,,,,,,,,,,,,,455.10484995800243,455.51825850128944,455.5182729334929,456.5837139960622,456.5837374083035,1197.8544938834716,1197.8544938834716,1199.34491138146,1199.34491138146,1199.34491138146,1199.34491138146,1200.8353035429136,1200.8353035429136,459.6146146264932,None,1,459.6149840909011,459.61504181971486,459.6150507997527,459.6155113474001,,,,,,,TS,001,2,26,M,2024-02-09_10h36.30.013,eye_track_exp,2023.1.3,120.12740792155184,
0,180,0,0,12,0,270,0,-12,180,j,present,resp,freq_bottom,,,,,0,18,18,581,,,,,,,,,,,0.9644676737063131,,,,,,,,,,,,,,,,,,,,,,,459.616023209549,459.9064693795149,459.9064841324339,460.8719437002951,460.8719574910674,1202.1425237818657,1202.1425237818657,,,,,,,462.08862751990273,j,1,462.08916920860565,462.0892102602065,462.08921956095946,462.08968139146964,1.1721065820927379,None,,,,,TS,001,2,26,M,2024-02-09_10h36.30.013,eye_track_exp,2023.1.3,120.12740792155184,
0,0,12,0,0,0,90,0,0,168,None,present,inhibit,freq_bottom,,,,,0,19,19,229,,,,,,,,,,,0.8259904195906577,,,,,,,,,,,,,,,,,,,,,,,462.09018202857123,462.34610604718955,462.34611983796185,463.1783239850074,463.1783377757797,1204.448905670156,1204.448905670156,1205.9393183574098,1205.9393183574098,1205.9393183574098,1205.9393183574098,1207.4297050666974,1207.4297050666974,466.2088776011242,None,1,466.20925893201047,466.20930030432737,466.2093105672275,466.2097627762687,,,,,,,TS,001,2,26,M,2024-02-09_10h36.30.013,eye_track_exp,2023.1.3,120.12740792155184,
180,0,180,-12,180,180,-12,180,180,270,j,present,resp,freq_bottom,,,,,0,20,20,545,,,,,,,,,,,0.7192871804417783,,,,,,,,,,,,,,,,,,,,,,,466.21025475404804,469.37325366329424,469.37326841621325,470.09735130580975,470.0973647758665,1211.368041713558,1211.368041713558,1212.8584309885705,1212.8584309885705,1212.8584309885705,1212.8584309885705,,,472.2048179826538,j,1,472.2053420319967,472.20538308359755,472.20539238435094,472.20587602352407,2.0734557365419732,None,,,,,TS,001,2,26,M,2024-02-09_10h36.30.013,eye_track_exp,2023.1.3,120.12740792155184,
-12,0,0,0,0,0,270,0,-12,0,j,present,resp,freq_bottom,,,,,0,21,21,673,,,,,,,,,,,0.7210830491638056,,,,,,,,,,,,,,,,,,,,,,,472.2063837163696,472.3874244834956,472.3874382742679,473.11104393900405,473.1110574090603,1214.3821339584292,1214.3821339584292,1215.8725347792047,1215.8725347792047,1215.8725347792047,1215.8725347792047,1217.3629381657056,1217.3629381657056,476.1427123626577,None,0,476.14310844646343,476.64181002922714,476.6418196506961,476.64226512470896,,,1217.3878956147587,1217.8875003327425,,,TS,001,2,26,M,2024-02-09_10h36.30.013,eye_track_exp,2023.1.3,120.12740792155184,
0,180,0,180,180,90,180,-12,180,-12,j,present,resp,freq_bottom,,,,,0,22,22,461,,,,,,,,,,,0.7924665621118592,,,,,,,,,,,,,,,,,,,,,,,476.6428190006054,476.65862611196144,476.65863797843986,477.4573562063447,477.457369997117,1218.7284584129643,1218.7284584129643,1220.2188640444742,1220.2188640444742,1220.2188640444742,1220.2188640444742,1221.709269034553,1221.709269034553,480.48892681173083,None,0,480.48933347915226,480.9878282003333,480.98783782180226,480.98810305362986,,,1221.7342396329473,1222.2338212594054,,,TS,001,2,26,M,2024-02-09_10h36.30.013,eye_track_exp,2023.1.3,120.12740792155184,
0,0,180,180,180,90,0,168,0,12,None,present,inhibit,freq_bottom,,,,,0,23,23,20,,,,,,,,,,,0.9853508044714445,,,,,,,,,,,,,,,,,,,,,,,480.988653080939,480.99661035648523,480.9966219022481,481.9876325637979,481.9876466752853,1223.257945168531,1223.257945168531,1224.7483700429789,1224.7483700429789,1224.7483700429789,1224.7483700429789,1226.2387529036791,1226.2387529036791,485.0186890620257,None,1,485.019085145831,485.01983401683174,485.01984588331015,485.02075414998035,,,,,,,TS,001,2,26,M,2024-02-09_10h36.30.013,eye_track_exp,2023.1.3,120.12740792155184,
168,0,168,0,0,0,0,180,0,180,f,abs,resp,freq_bottom,,,,,0,24,24,976,,,,,,,,,,,0.7530212548312708,,,,,,,,,,,,,,,,,,,,,,,485.0212688985698,485.0511929499007,485.0512051370947,485.8088801027061,485.8088935727628,1227.0797231710949,1227.0797231710949,,,,,,,487.1254995546865,f,1,487.1260633727675,487.1261028207905,487.12611180082786,487.1265912706981,1.2727477888558951,None,,,,,TS,001,2,26,M,2024-02-09_10h36.30.013,eye_track_exp,2023.1.3,120.12740792155184,
180,180,-12,0,0,0,270,0,-168,180,None,present,inhibit,freq_bottom,,,,,0,25,25,296,,,,,,,,,,,1.0565306364267841,,,,,,,,,,,,,,,,,,,,,,,487.1270691369896,487.7575694501684,487.7575842030874,488.8152809452904,488.81529473606224,1230.0854992596278,1230.0854992596278,1231.5758930246593,1231.5758930246593,1231.5758930246593,1231.5758930246593,1233.0662749232124,1233.0662749232124,491.8463627800529,None,1,491.8467672024649,491.84680825406576,491.84681755481915,491.8472886860827,,,,,,,TS,001,2,26,M,2024-02-09_10h36.30.013,eye_track_exp,2023.1.3,120.12740792155184,
0,-12,180,180,180,90,180,180,0,168,None,present,inhibit,freq_bottom,,,,,0,26,26,29,,,,,,,,,,,0.8700766187354223,,,,,,,,,,,,,,,,,,,,,,,491.8477970203594,491.85480273262556,491.8548142783884,492.72818612539277,492.72819991616507,1233.9988428579995,1233.9988428579995,1235.4892590731251,1235.4892590731251,1235.4892590731251,1235.4892590731251,1236.9796441788349,1236.9796441788349,495.75912235525857,None,1,495.7594988754108,495.75953960629613,495.7595489070495,495.7601008586521,,,,,,,TS,001,2,26,M,2024-02-09_10h36.30.013,eye_track_exp,2023.1.3,120.12740792155184,
-168,0,0,0,12,0,270,0,0,0,None,present,inhibit,freq_bottom,,,,,0,27,27,172,,,,,,,,,,,1.0143192668032417,,,,,,,,,,,,,,,,,,,,,,,495.7605877049814,495.76132470950415,495.7613356138354,496.77480214250863,496.7748168954281,1238.045390562686,1238.045390562686,1239.5358151164182,1239.5358151164182,1239.5358151164182,1239.5358151164182,1241.026212730037,1241.026212730037,499.8060196399838,None,1,499.80640834733003,499.80645004036205,499.806459661831,499.8070045576901,,,,,,,TS,001,2,26,M,2024-02-09_10h36.30.013,eye_track_exp,2023.1.3,120.12740792155184,
0,180,90,0,180,180,180,12,180,168,None,present,inhibit,freq_bottom,,,,,0,28,28,102,,,,,,,,,,,0.7157110003568856,,,,,,,,,,,,,,,,,,,,,,,499.80749653546945,499.82207562667054,499.82208685171736,500.53793055672713,500.53794402678386,1241.8088810648528,1241.8088810648528,1243.2992822063438,1243.2992822063438,1243.2992822063438,1243.2992822063438,1244.789678857816,1244.789678857816,503.569070761735,None,1,503.56944856474956,503.56948929563487,503.5694982756727,503.5701159739797,,,,,,,TS,001,2,26,M,2024-02-09_10h36.30.013,eye_track_exp,2023.1.3,120.12740792155184,
180,180,180,180,12,0,-168,0,90,0,None,present,inhibit,freq_bottom,,,,,0,29,29,147,,,,,,,,,,,0.8668424362336765,,,,,,,,,,,,,,,,,,,,,,,503.5706223839629,508.6229917188016,508.62300647172106,509.4889364331998,509.4889502239721,1250.759614333038,1250.759614333038,1252.2500241338512,1252.2500241338512,1252.2500241338512,1252.2500241338512,1253.7404425939862,1253.7404425939862,512.5204515547812,None,1,512.5208296785117,512.5208697679655,512.520880030866,512.5213178077033,,,,,,,TS,001,2,26,M,2024-02-09_10h36.30.013,eye_track_exp,2023.1.3,120.12740792155184,
-168,180,180,-168,180,180,180,0,0,0,f,abs,resp,freq_bottom,,,,,0,30,30,881,,,,,,,,,,,1.0606643486159593,,,,,,,,,,,,,,,,,,,,,,,512.5218024090236,512.5225435828493,512.5225538457494,513.5848288035995,513.5848422736558,1254.856146210408,1254.856146210408,,,,,,,514.9355887553252,j,0,514.9361535355533,515.4412703931043,515.4412816181516,515.4417825759688,1.303377093862082,None,1256.1883662328773,,,,TS,001,2,26,M,2024-02-09_10h36.30.013,eye_track_exp,2023.1.3,120.12740792155184,
180,180,180,0,-168,0,270,180,180,-168,f,present,resp,freq_bottom,,,,,0,31,31,721,,,,,,,,,,,0.8768193238936239,,,,,,,,,,,,,,,,,,,,,,,515.442328113259,525.9916219455445,525.9916546585391,526.8735601070807,526.8735745392842,1268.1448714202925,1268.1448714202925,,,,,,,528.2915311509491,f,1,528.2920616146043,528.2927938083926,528.2928047127239,528.2934002816528,1.3743954012722952,None,,,,,TS,001,2,26,M,2024-02-09_10h36.30.013,eye_track_exp,2023.1.3,120.12740792155184,
12,0,-168,0,0,270,0,180,0,180,None,present,inhibit,freq_bottom,,,,,0,32,32,292,,,,,,,,,,,0.7782201086866858,,,,,,,,,,,,,,,,,,,,,,,528.2939272174362,531.6700044611543,531.6700188933578,532.4522667699798,532.4522805607521,1273.7234764163363,1273.7234764163363,1275.2138692192211,1275.2138692192211,1275.2138692192211,1275.2138692192211,1276.7042742092995,1276.7042742092995,535.4838441103943,None,1,535.4842145369494,535.4842546264031,535.4842636064409,535.4848129923184,,,,,,,TS,001,2,26,M,2024-02-09_10h36.30.013,eye_track_exp,2023.1.3,120.12740792155184,
0,0,12,0,0,0,270,0,0,-12,j,present,resp,freq_bottom,,,,,0,33,33,655,,,,,,,,,,,0.9919233473745882,,,,,,,,,,,,,,,,,,,,,,,535.4853129879889,538.1400350285617,538.1400497814807,539.1382438317564,539.1382576225287,1280.4094669481692,1280.4094669481692,1281.8998466017133,1281.8998466017133,1281.8998466017133,1281.8998466017133,,,541.2633748841818,j,1,541.2638912363491,541.7689481200773,541.7689596658402,541.7697242519071,2.0849822563570797,None,1282.5160208683246,,,,TS,001,2,26,M,2024-02-09_10h36.30.013,eye_track_exp,2023.1.3,120.12740792155184,
0,180,0,0,-168,180,12,180,270,180,None,present,inhibit,freq_bottom,,,,,0,34,34,329,,,,,,,,,,,0.9227845566407296,,,,,,,,,,,,,,,,,,,,,,,541.7702617713062,542.2194304282807,542.2194445397686,543.143446801455,543.1434605922273,1284.4143896124056,1284.4143896124056,1285.9047962060622,1285.9047962060622,1285.9047962060622,1285.9047962060622,1287.3952153076289,1287.3952153076289,546.175146655241,None,1,546.1755215718144,546.1762441441338,546.1762544070339,546.176816300821,,,,,,,TS,001,2,26,M,2024-02-09_10h36.30.013,eye_track_exp,2023.1.3,120.12740792155184,
0,12,0,0,0,180,0,12,0,90,j,present,resp,freq_bottom,,,,,0,35,35,661,,,,,,,,,,,0.7568716558881885,,,,,,,,,,,,,,,,,,,,,,,546.1773102028947,546.1837780750457,546.1837896208085,546.9399620336835,546.9399758244558,1288.2111800186462,1288.2111800186462,1289.7015615964838,1289.7015615964838,1289.7015615964838,1289.7015615964838,,,548.997849922403,j,1,548.9983454280546,549.504035725156,549.5040469502028,549.5050860688507,2.0104886743581574,None,1290.2511039833844,,,,TS,001,2,26,M,2024-02-09_10h36.30.013,eye_track_exp,2023.1.3,120.12740792155184,
180,168,180,180,180,180,270,180,180,168,f,present,resp,freq_bottom,,,,,0,36,36,427,,,,,,,,,,,1.072122875360498,,,,,,,,,,,,,,,,,,,,,,,549.5056146082125,550.7877603369056,550.7877750898247,551.861282791971,551.8612969034584,1293.1320132891728,1293.1320132891728,,,,,,,553.1620560052879,f,1,553.1626576678136,553.1634004452176,553.1634113495493,553.163985751246,1.2665602221670724,None,,,,,TS,001,2,26,M,2024-02-09_10h36.30.013,eye_track_exp,2023.1.3,120.12740792155184,
180,168,0,0,0,0,12,0,0,180,None,abs,inhibit,freq_bottom,,,,,0,37,37,361,,,,,,,,,,,0.782501996045453,,,,,,,,,,,,,,,,,,,,,,,553.1644783704569,553.3351763791657,553.3351898492219,554.1174091821526,554.1174236143561,1295.3884238334049,1295.3884238334049,1296.878820484877,1296.878820484877,1296.878820484877,1296.878820484877,1298.3692427935998,1298.3692427935998,557.1491558604207,None,1,557.1495634899893,557.1496051830213,557.1496148044903,557.1500711828348,,,,,,,TS,001,2,26,M,2024-02-09_10h36.30.013,eye_track_exp,2023.1.3,120.12740792155184,
180,-168,180,180,180,270,180,180,-168,180,f,present,resp,freq_bottom,,,,,0,38,38,442,,,,,,,,,,,0.9529005347420172,,,,,,,,,,,,,,,,,,,,,,,557.1505718199364,569.0721183620285,569.072135359957,570.0293820419133,570.0293958326852,1311.2999072811108,1311.2999072811108,,,,,,,571.2623886836132,f,1,571.2629316551784,571.262973668926,571.2629829696793,571.2635756521672,1.1932417422437993,None,,,,,TS,001,2,26,M,2024-02-09_10h36.30.013,eye_track_exp,2023.1.3,120.12740792155184,
0,-12,180,180,180,90,180,180,0,168,None,present,inhibit,freq_bottom,,,,,0,39,39,31,,,,,,,,,,,0.989720613545412,,,,,,,,,,,,,,,,,,,,,,,571.2640862314533,571.7527802036352,571.7527943151231,572.7436677103824,572.7436818218703,1314.0142901264167,1314.0142901264167,1315.5046835707321,1315.5046835707321,1315.5046835707321,1315.5046835707321,1316.9950757321858,1316.9950757321858,575.7750109283852,None,1,575.775412143641,576.2813205273719,576.2813323938503,576.282118147149,,,1317.0284003313632,,,,TS,001,2,26,M,2024-02-09_10h36.30.013,eye_track_exp,2023.1.3,120.12740792155184,
180,0,0,168,0,168,0,90,180,180,f,present,resp,freq_bottom,,,,,0,40,40,616,,,,,,,,,,,1.0769632194821595,,,,,,,,,,,,,,,,,,,,,,,576.2826569494109,578.5390905851682,578.5391053380872,579.621000716158,579.6210151483615,1320.8918171651494,1320.8918171651494,1322.3821788586179,1322.3821788586179,1322.3821788586179,1322.3821788586179,,,581.5287760497263,f,1,581.5292644996339,581.5299944484127,581.5300050320284,581.5305845651756,1.85817536854006,None,,,,,TS,001,2,26,M,2024-02-09_10h36.30.013,eye_track_exp,2023.1.3,120.12740792155184,
168,0,0,0,0,168,180,180,0,0,f,abs,resp,freq_bottom,,,,,0,41,41,1004,,,,,,,,,,,1.078204646002167,,,,,,,,,,,,,,,,,,,,,,,581.5310672422015,582.4942215061001,582.4942362590191,583.5762557540393,583.5762698655271,1324.846762712446,1324.846762712446,,,,,,,584.859416547708,f,1,584.8599284098568,585.3652803519662,585.3652918977291,590.6536033844482,1.2458275601345576,None,1326.1123409130196,,,,TS,001,2,26,M,2024-02-09_10h36.30.013,eye_track_exp,2023.1.3,120.12740792155184,
180,180,168,0,0,0,168,0,180,0,f,abs,resp,freq_bottom,,,,,0,42,42,966,,,,,,,,,,,0.8085025068114722,,,,,,,,,,,,,,,,,,,,,,,590.6541562981974,595.3499276946609,595.3499427682955,596.1568257747608,596.1568395655331,1337.4277817350521,1337.4277817350521,,,,,,,597.1570133934056,f,1,597.1575249348389,597.1582555250484,597.158265787949,597.1588555839962,0.9523304223610012,None,,,,,TS,001,2,26,M,2024-02-09_10h36.30.013,eye_track_exp,2023.1.3,120.12740792155184,
-168,180,180,180,180,270,0,-168,0,0,f,present,resp,freq_bottom,,,,,0,43,43,424,,,,,,,,,,,0.8690700074916604,,,,,,,,,,,,,,,,,,,,,,,597.1593514103633,597.3482093003045,597.3482230910768,598.2218636977809,598.2218778092688,1339.4926788639095,1339.4926788639095,,,,,,,599.1891830955924,f,1,599.1896943163097,599.6947797437292,599.694790968776,599.6955664591746,0.9195853563303444,None,1340.4418428705076,,,,TS,001,2,26,M,2024-02-09_10h36.30.013,eye_track_exp,2023.1.3,120.12740792155184,
180,12,180,180,180,270,180,180,-168,180,None,present,inhibit,freq_bottom,,,,,0,44,44,19,,,,,,,,,,,1.087195253814743,,,,,,,,,,,,,,,,,,,,,,,599.6960988471237,599.8039061239688,599.8039192733099,600.8947764082864,600.8947905197742,1342.165385354264,1342.165385354264,,,,,,,601.7124736251485,f,0,601.7129944673347,602.217679000214,602.2176905459769,602.2181783544529,0.7760814674932135,None,1342.964747579158,,,,TS,001,2,26,M,2024-02-09_10h36.30.013,eye_track_exp,2023.1.3,120.12740792155184,
0,90,0,180,0,180,-12,180,180,-12,j,present,resp,freq_bottom,,,,,0,45,45,603,,,,,,,,,,,0.7599724262415544,,,,,,,,,,,,,,,,,,,,,,,602.2187177981464,602.3357937567571,602.3358075475294,603.1011565967838,603.1011707082716,1344.3718566260009,1344.3718566260009,,,,,,,604.2516969865883,j,1,604.2522114144617,604.2529375146528,604.2529474568373,604.2534987670088,1.1118729792403883,None,,,,,TS,001,2,26,M,2024-02-09_10h36.30.013,eye_track_exp,2023.1.3,120.12740792155184,
12,0,-168,0,0,270,0,180,0,180,None,present,inhibit,freq_bottom,,,,,0,46,46,291,,,,,,,,,,,0.747858708817623,,,,,,,,,,,,,,,,,,,,,,,604.2540003662575,604.9581604007922,604.9581748329956,605.7067751497984,605.7067889405707,1346.9779831925766,1346.9779831925766,1348.4683785611865,1348.4683785611865,1348.4683785611865,1348.4683785611865,1349.9587797026775,1349.9587797026775,608.7384785314562,None,1,608.7388771809865,608.7389185533034,608.7389281747724,608.7395009728912,,,,,,,TS,001,2,26,M,2024-02-09_10h36.30.013,eye_track_exp,2023.1.3,120.12740792155184,
0,180,180,180,180,168,0,-168,0,0,f,abs,resp,freq_bottom,,,,,0,47,47,750,,,,,,,,,,,0.9019801575795956,,,,,,,,,,,,,,,,,,,,,,,608.7400115521773,632.6514757569453,632.6514901891487,633.5582270455002,633.5582408362725,1374.8293436843232,1374.8293436843232,1376.3197550887148,1376.3197550887148,1376.3197550887148,1376.3197550887148,1377.810149174462,1377.810149174462,636.5895202318648,None,0,636.5898900169886,637.0963776131512,637.0963898003452,637.0976037090122,,,1377.8434721700614,,,,TS,001,2,26,M,2024-02-09_10h36.30.013,eye_track_exp,2023.1.3,120.12740792155184,
0,180,0,0,168,180,180,0,-168,180,f,abs,resp,freq_bottom,,,,,0,48,48,920,,,,,,,,,,,0.8631975465330328,,,,,,,,,,,,,,,,,,,,,,,637.0981383419708,654.4580104662341,654.4580265020159,655.322889121871,655.3229029126433,1396.5942190365895,1396.5942190365895,1398.0846214609433,1398.0846214609433,1398.0846214609433,1398.0846214609433,,,657.814592368828,f,1,657.8151135317303,658.320062655006,658.3200742007689,658.3209911267609,2.4554408829183103,None,1399.0671001245337,,,,TS,001,2,26,M,2024-02-09_10h36.30.013,eye_track_exp,2023.1.3,120.12740792155184,
0,180,180,180,0,270,0,-168,0,-168,f,present,resp,freq_bottom,,,,,0,49,49,596,,,,,,,,,,,0.8356139780162444,,,,,,,,,,,,,,,,,,,,,,,658.3215366640507,660.3109325223932,660.3109488788905,661.1520384525215,661.1520522432938,1402.4226037811732,1402.4226037811732,,,,,,,662.5016354893655,f,1,662.5022387554695,662.5029812121575,662.5029917957736,662.5035524066984,1.314978661135001,None,,,,,TS,001,2,26,M,2024-02-09_10h36.30.013,eye_track_exp,2023.1.3,120.12740792155184,
180,168,180,180,180,180,0,168,180,0,f,abs,resp,freq_bottom,,,,,0,50,50,757,,,,,,,,,,,1.0164067155710776,,,,,,,,,,,,,,,,,,,,,,,662.5040671552879,698.7618086693928,698.7618250258897,699.7772610692596,699.777275501463,1441.0481557728654,1441.0481557728654,,,,,,,701.0270356863493,f,1,701.02755107637,701.5333699804396,701.533381846918,701.534365161046,1.2156863843204064,None,1442.280453312303,,,,TS,001,2,26,M,2024-02-09_10h36.30.013,eye_track_exp,2023.1.3,120.12740792155184,
180,12,0,12,180,0,180,0,180,90,j,present,resp,freq_bottom,,,,,0,51,51,500,,,,,,,,,,,0.7110263310265037,,,,,,,,,,,,,,,,,,,,,,,701.5349042840235,701.5509920215572,701.5510038880357,702.2672693341015,702.2672834455893,1443.5376973964626,1443.5376973964626,,,,,,,703.4174450702321,j,1,703.4180329419855,703.418765777205,703.4187763608206,703.4193414617644,1.1101529813061006,None,,,,,TS,001,2,26,M,2024-02-09_10h36.30.013,eye_track_exp,2023.1.3,120.12740792155184,
0,180,0,-168,180,0,180,0,-168,180,f,abs,resp,freq_bottom,,,,,0,52,52,889,,,,,,,,,,,0.824654050140804,,,,,,,,,,,,,,,,,,,,,,,703.4198401745721,703.4205887248572,703.4205993084729,704.248446854373,704.2484609658609,1445.5193646495045,1445.5193646495045,,,,,,,705.3819511505194,f,1,705.3824428075832,705.3824828970373,705.382508233572,705.3829418411069,1.0962919724054245,None,,,,,TS,001,2,26,M,2024-02-09_10h36.30.013,eye_track_exp,2023.1.3,120.12740792155184,
-168,0,0,0,12,0,270,0,0,0,None,present,inhibit,freq_bottom,,,,,0,53,53,173,,,,,,,,,,,1.0455766152441217,,,,,,,,,,,,,,,,,,,,,,,705.3834245181329,705.5478797970641,705.5478939085519,706.5964858546768,706.5964996454491,1447.8673786339887,1447.8673786339887,1449.3577759268924,1449.3577759268924,1449.3577759268924,1449.3577759268924,1450.8482081777997,1450.8482081777997,709.6275901395338,None,1,709.6279958448085,709.6280445935845,709.6280538943379,709.6286962877489,,,,,,,TS,001,2,26,M,2024-02-09_10h36.30.013,eye_track_exp,2023.1.3,120.12740792155184,
180,180,180,180,12,0,-168,0,90,0,None,present,inhibit,freq_bottom,,,,,0,54,54,151,,,,,,,,,,,0.8018689549809315,,,,,,,,,,,,,,,,,,,,,,,709.629216488504,709.6691699590801,709.6691821462741,710.477166169504,710.4771802809919,1451.7474159139738,1451.7474159139738,1453.237810641152,1453.237810641152,1453.237810641152,1453.237810641152,1454.7282153105152,1454.7282153105152,713.508226195604,None,1,713.5089263178288,713.5089676901453,713.5089773116142,713.5094259927832,,,,,,,TS,001,2,26,M,2024-02-09_10h36.30.013,eye_track_exp,2023.1.3,120.12740792155184,
180,0,180,-12,180,0,180,0,180,168,None,abs,inhibit,freq_bottom,,,,,0,55,55,410,,,,,,,,,,,0.9607548948938361,,,,,,,,,,,,,,,,,,,,,,,713.5099163669847,713.5106443914697,713.5106546543698,714.4727993054585,714.4728130962303,1455.74400414108,1455.74400414108,,,,,,,715.523768395848,j,0,715.5242642222152,716.029404812723,716.0294163584858,716.0300994827821,1.015449824469897,None,1456.7764679395013,,,,TS,001,2,26,M,2024-02-09_10h36.30.013,eye_track_exp,2023.1.3,120.12740792155184,
0,180,-168,0,0,0,12,180,90,180,None,present,inhibit,freq_bottom,,,,,0,56,56,284,,,,,,,,,,,0.8126500727406893,,,,,,,,,,,,,,,,,,,,,,,716.0306315500156,716.0314262833517,716.0314371876834,716.8462925433296,716.8463056926707,1458.1170031561624,1458.1170031561624,1459.6074065426628,1459.6074065426628,1459.6074065426628,1459.6074065426628,1461.097798383401,1461.097798383401,719.8773817545521,None,1,719.87775635041,719.8784962413733,719.878506824989,719.8790645494732,,,,,,,TS,001,2,26,M,2024-02-09_10h36.30.013,eye_track_exp,2023.1.3,120.12740792155184,
90,0,0,180,180,12,0,168,0,0,None,present,inhibit,freq_bottom,,,,,0,57,57,56,,,,,,,,,,,0.9585599014028221,,,,,,,,,,,,,,,,,,,,,,,719.8795597344092,719.8804256666158,719.8804368916626,720.8431386258044,720.8431527372918,1462.1136042118942,1462.1136042118942,1463.604018823442,1463.604018823442,1463.604018823442,1463.604018823442,1465.0944202856485,1465.0944202856485,723.8740110332592,None,1,723.8743811390987,723.8744221906995,723.8744314914529,723.8748865869347,,,,,,,TS,001,2,26,M,2024-02-09_10h36.30.013,eye_track_exp,2023.1.3,120.12740792155184,
0,0,168,0,168,180,270,0,0,0,f,present,resp,freq_bottom,,,,,0,58,58,557,,,,,,,,,,,0.8467688247232837,,,,,,,,,,,,,,,,,,,,,,,723.875370867539,723.8761024198957,723.8761123620802,724.7231627564483,724.7231762265051,1465.9936539997889,1465.9936539997889,,,,,,,725.9227986159199,f,1,725.9233140059405,725.9233547368258,725.9233643582947,725.9238281130984,1.1658503822588955,None,,,,,TS,001,2,26,M,2024-02-09_10h36.30.013,eye_track_exp,2023.1.3,120.12740792155184,
180,180,0,-168,180,-168,0,0,180,180,f,abs,resp,freq_bottom,,,,,0,59,59,888,,,,,,,,,,,0.919105526324875,,,,,,,,,,,,,,,,,,,,,,,725.9243136765654,726.1888633421072,726.1888774535951,727.1125234002143,727.1125384738493,1468.3832991183208,1468.3832991183208,,,,,,,728.0957409926214,f,1,728.096237139704,728.0962778705893,728.0962868506272,728.0968567623054,0.934860079737291,None,,,,,TS,001,2,26,M,2024-02-09_10h36.30.013,eye_track_exp,2023.1.3,120.12740792155184,
0,12,0,180,12,0,0,90,0,0,j,present,resp,freq_bottom,,,,,0,60,60,567,,,,,,,,,,,1.0467016433551946,,,,,,,,,,,,,,,,,,,,,,,728.0973294971468,728.1451728929865,728.145185721612,729.1942632312039,729.1942773426913,1470.4648664042998,1470.4648664042998,,,,,,,730.0441827476157,j,1,730.0446946097645,730.5504115262634,730.5504230720262,730.5515978533863,0.8054349657147668,None,1471.2974743323261,,,,TS,001,2,26,M,2024-02-09_10h36.30.013,eye_track_exp,2023.1.3,120.12740792155184,
12,0,0,0,0,-12,0,270,0,0,j,present,resp,freq_bottom,,,,,0,61,61,669,,,,,,,,,,,1.089804067386762,,,,,,,,,,,,,,,,,,,,,,,730.5521328070604,734.9891739231252,734.9891883553287,736.080123424204,736.0801375356918,1477.3506659820455,1477.3506659820455,1478.849418237879,1478.849418237879,1478.849418237879,1478.849418237879,,,738.3130267954703,j,1,738.3135409026286,738.3142801521603,738.3142907357765,738.3145492325757,2.191913338095901,None,,,,,TS,001,2,26,M,2024-02-09_10h36.30.013,eye_track_exp,2023.1.3,120.12740792155184,
180,0,180,0,180,168,180,0,180,168,f,abs,resp,freq_bottom,,,,,0,62,62,867,,,,,,,,,,,0.8444769029433168,,,,,,,,,,,,,,,,,,,,,,,738.315048586815,744.0068068685746,744.0068219422092,744.8553697578632,744.8553841900666,1486.126576197063,1486.126576197063,,,,,,,746.1060503966132,f,1,746.1065590516055,746.1066026689314,746.1066119696848,746.1070978538673,1.2071838921995095,None,,,,,TS,001,2,26,M,2024-02-09_10h36.30.013,eye_track_exp,2023.1.3,120.12740792155184,
180,12,180,180,180,12,0,0,0,270,j,present,resp,freq_bottom,,,,,0,63,63,431,,,,,,,,,,,0.7574361741667149,,,,,,,,,,,,,,,,,,,,,,,746.1075882280688,781.6831868357781,781.6832022301282,782.4408448034605,782.4408585942329,1523.7113568933173,1523.7113568933173,1525.2017275668236,1525.2017275668236,1525.2017275668236,1525.2017275668236,,,784.4310527137836,j,1,784.431569065951,784.9375938694566,784.9376050945039,784.9386204801949,1.9408969100788909,None,1525.6846980478358,,,,TS,001,2,26,M,2024-02-09_10h36.30.013,eye_track_exp,2023.1.3,120.12740792155184,
0,168,180,180,180,168,0,180,0,180,f,abs,resp,freq_bottom,,,,,0,64,64,763,,,,,,,,,,,0.7454708079368884,,,,,,,,,,,,,,,,,,,,,,,784.9391557545846,820.1925403468285,820.1925557411787,820.9408218722929,820.9408363044963,1562.2120081064081,1562.2120081064081,,,,,,,822.2582232289842,f,1,822.2587556169337,822.2595378423603,822.2595481052604,822.2601144890664,1.2782512691017018,None,,,,,TS,001,2,26,M,2024-02-09_10h36.30.013,eye_track_exp,2023.1.3,120.12740792155184,
0,168,180,180,0,0,90,0,12,0,None,present,inhibit,freq_bottom,,,,,0,65,65,186,,,,,,,,,,,0.7450799059166487,,,,,,,,,,,,,,,,,,,,,,,822.2606164090307,866.3528984835602,866.3529154814887,867.1022588964111,867.1022736493301,1608.3728348086788,1608.3728348086788,1609.8632388366104,1609.8632388366104,1609.8632388366104,1609.8632388366104,1611.3536146415668,1611.3536146415668,870.1336697854126,None,1,870.1340774149808,870.1341210323067,870.13413033306,870.1347598978459,,,,,,,TS,001,2,26,M,2024-02-09_10h36.30.013,eye_track_exp,2023.1.3,120.12740792155184,
0,0,12,0,0,0,90,0,0,168,None,present,inhibit,freq_bottom,,,,,0,66,66,227,,,,,,,,,,,0.9651903110296596,,,,,,,,,,,,,,,,,,,,,,,870.1352608556631,870.1997724843309,870.1997849922404,871.1650200591594,871.1650338499317,1612.4360594055152,1612.4360594055152,1613.9264454733716,1613.9264454733716,1613.9264454733716,1613.9264454733716,,,872.6908936324157,j,0,872.6914231339242,873.1960476929803,873.1960598801743,873.1968421056008,1.4688593042467346,None,1613.9431137061993,,,,TS,001,2,26,M,2024-02-09_10h36.30.013,eye_track_exp,2023.1.3,120.12740792155184,
12,180,0,0,0,0,-168,0,90,0,None,present,inhibit,freq_bottom,,,,,0,67,67,245,,,,,,,,,,,0.8452758557522365,,,,,,,,,,,,,,,,,,,,,,,873.1973744935499,873.2134567789185,873.2134686453969,874.0625972770604,874.0626113885482,1615.3335849881992,1615.3335849881992,1616.8239842053963,1616.8239842053963,1616.8239842053963,1616.8239842053963,1618.314393685494,1618.314393685494,877.0942673042923,None,1,877.0946611430882,877.095410976236,877.0954218805678,877.0960915348073,,,,,,,TS,001,2,26,M,2024-02-09_10h36.30.013,eye_track_exp,2023.1.3,120.12740792155184,
-168,180,0,12,180,180,0,0,180,180,None,abs,inhibit,freq_bottom,,,,,0,68,68,350,,,,,,,,,,,0.834726715811286,,,,,,,,,,,,,,,,,,,,,,,877.0966066041124,877.1857180839038,877.1857309125289,878.0261133081913,878.0261277403947,1619.2968761976722,1619.2968761976722,1620.7873251257924,1620.7873251257924,1620.7873251257924,1620.7873251257924,1622.2776768770764,1622.2776768770764,881.0570585180949,None,1,881.0574430561378,881.0574828248764,881.0574918049138,881.0579234881548,,,,,,,TS,001,2,26,M,2024-02-09_10h36.30.013,eye_track_exp,2023.1.3,120.12740792155184,
0,-168,0,0,-168,0,270,0,0,0,f,present,resp,freq_bottom,,,,,0,69,69,726,,,,,,,,,,,0.9390638549811161,,,,,,,,,,,,,,,,,,,,,,,881.0583965437118,881.0988009404668,881.0988128069448,882.0391340421365,882.0391478329084,1623.31016472917,1623.31016472917,,,,,,,882.9563313595427,f,1,882.9568422595444,883.462305810694,883.4623173564564,883.4631618007156,0.882176764294627,None,1624.2093756725008,,,,TS,001,2,26,M,2024-02-09_10h36.30.013,eye_track_exp,2023.1.3,120.12740792155184,
-12,180,0,180,180,270,180,180,-12,180,j,present,resp,freq_bottom,,,,,0,70,70,463,,,,,,,,,,,0.8622126437199085,,,,,,,,,,,,,,,,,,,,,,,883.4636977165369,883.4644760933757,883.4644863562762,884.3291094015544,884.3291228716107,1625.599880308926,1625.599880308926,,,,,,,885.4959610676883,j,1,885.4964581769177,885.4971916535683,885.4972019164684,885.4975585522511,1.1196917056338407,None,,,,,TS,001,2,26,M,2024-02-09_10h36.30.013,eye_track_exp,2023.1.3,120.12740792155184,
168,180,180,0,180,180,180,180,-168,180,f,abs,resp,freq_bottom,,,,,0,71,71,843,,,,,,,,,,,0.8938418293857338,,,,,,,,,,,,,,,,,,,,,,,885.4980739422717,885.5698327820769,885.5698449692709,886.4693330109071,886.4693464809638,1627.7397087966206,1627.7397087966206,1629.2301275774712,1629.2301275774712,1629.2301275774712,1629.2301275774712,,,888.1110153953127,f,1,888.1115179567082,888.1115583668775,888.1115673469153,888.1120253288377,1.604122725634852,None,,,,,TS,001,2,26,M,2024-02-09_10h36.30.013,eye_track_exp,2023.1.3,120.12740792155184,
180,180,180,12,0,180,-168,180,270,0,None,present,inhibit,freq_bottom,,,,,0,72,72,212,,,,,,,,,,,0.9035925852460592,,,,,,,,,,,,,,,,,,,,,,,888.112509930158,888.1268613132602,888.126872538307,889.0335397993667,889.0335539108546,1630.304206474158,1630.304206474158,1631.7945867691333,1631.7945867691333,1631.7945867691333,1631.7945867691333,1633.2850000978183,1633.2850000978183,892.0647515239607,None,1,892.0651293269752,892.065169737145,892.0651790378979,892.0657823040019,,,,,,,TS,001,2,26,M,2024-02-09_10h36.30.013,eye_track_exp,2023.1.3,120.12740792155184,
168,180,0,180,180,180,0,180,168,180,f,abs,resp,freq_bottom,,,,,0,73,73,793,,,,,,,,,,,0.967340997918674,,,,,,,,,,,,,,,,,,,,,,,892.0662858275441,892.0733232906578,892.0733341949895,893.0468052393389,893.0468190301112,1634.3174760834336,1634.3174760834336,,,,,,,893.9303094553065,f,1,893.9308078473987,893.9308488989996,893.930858199753,893.9315236846892,0.8340238778698676,None,,,,,TS,001,2,26,M,2024-02-09_10h36.30.013,eye_track_exp,2023.1.3,120.12740792155184,
0,270,0,0,0,-12,0,0,-168,0,None,present,inhibit,freq_bottom,,,,,0,74,74,241,,,,,,,,,,,0.9192398842571173,,,,,,,,,,,,,,,,,,,,,,,893.9320114931656,893.932940285636,893.9329505485362,894.8537046023016,894.8537180723579,1636.1242869288817,1636.1242869288817,1637.6230103203084,1637.6230103203084,1637.6230103203084,1637.6230103203084,1639.0967506054308,1639.0967506054308,897.8848454487406,None,1,897.8852386461053,897.8852784148439,897.8852970163507,897.8861562135289,,,,,,,TS,001,2,26,M,2024-02-09_10h36.30.013,eye_track_exp,2023.1.3,120.12740792155184,
180,0,0,180,-168,90,0,12,0,180,None,present,inhibit,freq_bottom,,,,,0,75,75,310,,,,,,,,,,,1.0608152110783555,,,,,,,,,,,,,,,,,,,,,,,897.8866488327394,897.8937485146857,897.8937600604486,898.9584224254636,898.9584358955199,1640.2291330382964,1640.2291330382964,1641.719515257565,1641.719515257565,1641.719515257565,1641.719515257565,1643.209938207719,1643.209938207719,901.9898416530709,None,1,901.9902281154077,901.9902691670086,901.990278467762,901.9907390154094,,,,,,,TS,001,2,26,M,2024-02-09_10h36.30.013,eye_track_exp,2023.1.3,120.12740792155184,
180,180,180,180,12,270,0,0,0,168,None,present,inhibit,freq_bottom,,,,,0,76,76,154,,,,,,,,,,,0.8116364075685683,,,,,,,,,,,,,,,,,,,,,,,901.9912281067486,901.9919509997831,901.9919615833987,902.8049776348957,902.8049920670992,1644.0758572648665,1644.0758572648665,1645.5662612927981,1645.5662612927981,1645.5662612927981,1645.5662612927981,1647.056661792858,1647.056661792858,905.8365995547829,None,1,905.8369940350099,905.8370363694735,905.8370456702269,905.8375421380251,,,,,,,TS,001,2,26,M,2024-02-09_10h36.30.013,eye_track_exp,2023.1.3,120.12740792155184,
0,0,12,0,0,0,-168,0,90,0,None,present,inhibit,freq_bottom,,,,,0,77,77,232,,,,,,,,,,,1.0344710024658068,,,,,,,,,,,,,,,,,,,,,,,905.8380309086483,906.3858536183297,906.3858683712492,907.4259170943678,907.4259312058557,1648.6969423292358,1648.6969423292358,1650.187346677883,1650.187346677883,1650.187346677883,1650.187346677883,1651.6777491022367,1651.6777491022367,910.4571214425023,None,1,910.4575011698103,910.4575425421267,910.4575515221645,910.4579896197179,,,,,,,TS,001,2,26,M,2024-02-09_10h36.30.013,eye_track_exp,2023.1.3,120.12740792155184,
180,180,180,0,-12,0,270,0,-168,0,None,present,inhibit,freq_bottom,,,,,0,78,78,333,,,,,,,,,,,0.9524720359921565,,,,,,,,,,,,,,,,,,,,,,,910.4584989161417,910.506619731003,910.506631918197,911.4643205462944,911.4643346577823,1652.735182857621,1652.735182857621,1654.2255718119181,1654.2255718119181,1654.2255718119181,1654.2255718119181,1655.7159954035037,1655.7159954035037,914.4953337479119,None,1,914.495718927386,914.4957596582713,914.4957692797402,914.4962169987625,,,,,,,TS,001,2,26,M,2024-02-09_10h36.30.013,eye_track_exp,2023.1.3,120.12740792155184,
-168,0,0,0,0,12,0,90,0,0,None,present,inhibit,freq_bottom,,,,,0,79,79,274,,,,,,,,,,,0.9896664793230547,,,,,,,,,,,,,,,,,,,,,,,914.4967096179735,917.3682318979277,917.3682466508471,918.3584417325446,918.3584555233165,1659.6293524719317,1659.6293524719317,1661.1197180139875,1661.1197180139875,1661.1197180139875,1661.1197180139875,1662.6101544341982,1662.6101544341982,921.3896018219216,None,1,921.3899879635424,921.3900274115654,921.3900363916027,921.3904699991376,,,,,,,TS,001,2,26,M,2024-02-09_10h36.30.013,eye_track_exp,2023.1.3,120.12740792155184,
180,12,180,180,180,270,180,180,-168,180,None,present,inhibit,freq_bottom,,,,,0,80,80,17,,,,,,,,,,,0.7203248377035657,,,,,,,,,,,,,,,,,,,,,,,921.3909459411352,923.3795881177425,923.379602549946,924.1037867856821,924.10380089717,1665.3827760311246,1665.3827760311246,1666.8648584505522,1666.8648584505522,1666.8648584505522,1666.8648584505522,1668.3552592713277,1668.3552592713277,927.1428467425076,None,1,927.1432174897782,927.1432572585163,927.1432665592697,927.1437206926048,,,,,,,TS,001,2,26,M,2024-02-09_10h36.30.013,eye_track_exp,2023.1.3,120.12740792155184,
0,0,0,0,0,0,12,0,270,168,None,present,inhibit,freq_bottom,,,,,0,81,81,268,,,,,,,,,,,1.0176517681329165,,,,,,,,,,,,,,,,,,,,,,,927.1441959931713,932.3968163200639,932.3968317144145,933.4206002706201,933.4206137406763,1674.6915434022862,1674.6915434022862,1676.1819458266395,1676.1819458266395,1676.1819458266395,1676.1819458266395,1677.67234921314,1677.67234921314,936.4522340569856,None,1,936.4526208400375,936.4526609294917,936.4526699095295,936.4529053148035,,,,,,,TS,001,2,26,M,2024-02-09_10h36.30.013,eye_track_exp,2023.1.3,120.12740792155184,
-12,0,180,0,-12,180,180,270,0,180,j,present,resp,freq_bottom,,,,,0,82,82,740,,,,,,,,,,,1.0588466928213576,,,,,,,,,,,,,,,,,,,,,,,936.4534203841085,939.5320178433349,939.5320325962539,940.5979024556236,940.5979165671115,1681.8687846513194,1681.8687846513194,,,,,,,941.8807290636037,j,1,941.8812370771648,941.8812778080501,941.8812867880874,1000.5727875351945,1.233245885889346,None,,,,,TS,001,2,26,M,2024-02-09_10h36.30.013,eye_track_exp,2023.1.3,120.12740792155184,
180,0,180,-12,180,90,180,180,-168,0,None,present,inhibit,freq_bottom,,,,,0,83,83,140,,,,,,,,,,,0.760744520115648,,,,,,,,,,,,,,,,,,,,,,,1000.5733747655167,1000.7728489843098,1000.7728630957977,1001.5375319071964,1001.5375460186842,1742.8087322527995,1742.8087322527995,1744.2991388464566,1744.2991388464566,1744.2991388464566,1744.2991388464566,1745.7895415915254,1745.7895415915254,1004.5693318242593,None,1,1004.5697384916807,1004.5697789018504,1004.5697878818883,1004.5703167419656,,,,,,,TS,001,2,26,M,2024-02-09_10h36.30.013,eye_track_exp,2023.1.3,120.12740792155184,
168,180,0,180,180,180,-168,180,180,180,f,abs,resp,freq_bottom,,,,,0,84,84,789,,,,,,,,,,,0.9020107712219401,,,,,,,,,,,,,,,,,,,,,,,1004.5708116061855,1004.5716618233264,1004.5716717655109,1005.4764791966204,1005.4764929873922,1746.747051581016,1746.747051581016,1748.237462985407,1748.237462985407,1748.237462985407,1748.237462985407,,,1007.1844996852178,f,1,1007.1850073780633,1007.185047467517,1007.1850567682704,1007.1855153916244,1.663702068597786,None,,,,,TS,001,2,26,M,2024-02-09_10h36.30.013,eye_track_exp,2023.1.3,120.12740792155184,
180,12,0,0,0,270,0,168,180,180,None,present,inhibit,freq_bottom,,,,,0,85,85,254,,,,,,,,,,,0.7786260740212213,,,,,,,,,,,,,,,,,,,,,,,1007.1859932579159,1007.2584175826573,1007.2584300905669,1008.0405467944956,1008.0405605852675,1749.3115476549756,1749.3115476549756,1750.8019317985381,1750.8019317985381,1750.8019317985381,1750.8019317985381,1752.2923550694077,1752.2923550694077,1011.0728374064756,None,1,1011.0732033430118,1011.0732427910343,1011.0732520917877,1011.0739804369882,,,,,,,TS,001,2,26,M,2024-02-09_10h36.30.013,eye_track_exp,2023.1.3,120.12740792155184,
0,168,180,180,0,0,90,0,12,0,None,present,inhibit,freq_bottom,,,,,0,86,86,184,,,,,,,,,,,0.7678138888065416,,,,,,,,,,,,,,,,,,,,,,,1011.074484281246,1011.0754092251286,1011.0754191673132,1011.8537953648256,1011.8538091555974,1753.1250008418783,1753.1250008418783,1754.6153628560623,1754.6153628560623,1754.6153628560623,1754.6153628560623,1756.1057800333351,1756.1057800333351,1014.8853457651267,None,1,1014.8857216438473,1014.8857617333015,1014.8857707133388,1014.8863152884824,,,,,,,TS,001,2,26,M,2024-02-09_10h36.30.013,eye_track_exp,2023.1.3,120.12740792155184,
180,180,180,12,0,180,-168,180,270,0,None,present,inhibit,freq_bottom,,,,,0,87,87,208,,,,,,,,,,,0.8589926076717921,,,,,,,,,,,,,,,,,,,,,,,1014.8867870611771,1015.1849890972721,1015.1850035294756,1016.0508298998052,1016.0508430491464,1757.321401322054,1757.321401322054,1758.8118239514924,1758.8118239514924,1758.8118239514924,1758.8118239514924,1760.3022193201023,1760.3022193201023,1019.0817067972794,None,1,1019.0821227654542,1019.0821660620645,1019.0821756835335,1019.0827513680929,,,,,,,TS,001,2,26,M,2024-02-09_10h36.30.013,eye_track_exp,2023.1.3,120.12740792155184,
0,90,180,180,180,12,0,0,-168,0,None,present,inhibit,freq_bottom,,,,,0,88,88,8,,,,,,,,,,,0.9289285806191665,,,,,,,,,,,,,,,,,,,,,,,1019.0832632302418,1021.454579771118,1021.4545951654686,1022.3869183942284,1022.3869328264318,1763.6577018095095,1763.6577018095095,1765.1481071203038,1765.1481071203038,1765.1481071203038,1765.1481071203038,1766.6384765109474,1766.6384765109474,1025.4181984312518,None,1,1025.4185653299346,1025.4186050986732,1025.418614078711,1025.4192410777714,,,,,,,TS,001,2,26,M,2024-02-09_10h36.30.013,eye_track_exp,2023.1.3,120.12740792155184,
180,168,0,0,0,0,12,0,90,180,None,present,inhibit,freq_bottom,,,,,0,89,89,248,,,,,,,,,,,0.7910520891588735,,,,,,,,,,,,,,,,,,,,,,,1025.4197455634608,1025.4348256124786,1025.434837478957,1026.2252943928966,1026.2253081836689,1767.4961047482911,1767.4961047482911,1768.9948403269118,1768.9948403269118,1768.9948403269118,1768.9948403269118,1770.4685905542192,1770.4685905542192,1029.2562036826494,None,1,1029.2565955971518,1029.2566366487526,1029.2566462702216,1029.2570933478128,,,,,,,TS,001,2,26,M,2024-02-09_10h36.30.013,eye_track_exp,2023.1.3,120.12740792155184,
180,0,180,0,180,90,180,12,180,168,None,present,inhibit,freq_bottom,,,,,0,90,90,120,,,,,,,,,,,0.8640876766880832,,,,,,,,,,,,,,,,,,,,,,,1029.2575798734265,1029.3058523867817,1029.3058658568384,1030.1720928009927,1030.1721069124806,1771.4427274042205,1771.4427274042205,1772.9331679937345,1772.9331679937345,1772.9331679937345,1772.9331679937345,1774.4235656073538,1774.4235656073538,1033.2031457713483,None,1,1033.2035155564722,1033.2035543630636,1033.2035633431015,1033.2040258150428,,,,,,,TS,001,2,26,M,2024-02-09_10h36.30.013,eye_track_exp,2023.1.3,120.12740792155184,
-168,0,0,0,0,12,0,0,0,0,None,abs,inhibit,freq_bottom,,,,,0,91,91,355,,,,,,,,,,,0.7988806027442158,,,,,,,,,,,,,,,,,,,,,,,1033.204500474178,1034.0022302565053,1034.0022446887087,1034.8016771503262,1034.8016909410985,1776.0721523578854,1776.0721523578854,1777.562545802201,1777.562545802201,1777.562545802201,1777.562545802201,1779.052974204521,1779.052974204521,1037.8330094639978,None,1,1037.8334122828314,1037.833454617295,1037.8334639180484,1037.8340261325511,,,,,,,TS,001,2,26,M,2024-02-09_10h36.30.013,eye_track_exp,2023.1.3,120.12740792155184,
180,180,0,168,0,168,0,180,0,0,f,abs,resp,freq_bottom,,,,,0,92,92,942,,,,,,,,,,,0.731342628879516,,,,,,,,,,,,,,,,,,,,,,,1037.8345235624965,1045.950232631084,1045.9502486668653,1046.682826030692,1046.6828401421799,1787.9537540887231,1787.9537540887231,1789.4441488159018,1789.4441488159018,1789.4441488159018,1789.4441488159018,,,1048.6576549850274,f,1,1048.658189617986,1048.6582313110184,1048.6582406117718,1048.6587280995323,1.9268322467521557,None,,,,,TS,001,2,26,M,2024-02-09_10h36.30.013,eye_track_exp,2023.1.3,120.12740792155184,
180,0,180,0,180,168,180,0,180,168,f,abs,resp,freq_bottom,,,,,0,93,93,864,,,,,,,,,,,0.7472554182796548,,,,,,,,,,,,,,,,,,,,,,,1048.6592187944493,1048.8648767313434,1048.8648905221157,1049.6136746089755,1049.6136883997478,1790.884586951941,1790.884586951941,,,,,,,1050.89823885425,f,1,1050.8987375670577,1050.898778297943,1050.8987872779808,1050.8992994608452,1.2361817167854952,None,,,,,TS,001,2,26,M,2024-02-09_10h36.30.013,eye_track_exp,2023.1.3,120.12740792155184,
0,0,180,0,-168,180,270,0,12,180,None,present,inhibit,freq_bottom,,,,,0,94,94,316,,,,,,,,,,,0.7848897367592205,,,,,,,,,,,,,,,,,,,,,,,1050.8997907971934,1051.512239631023,1051.5122543839425,1052.3027674231175,1052.3027828174677,1793.5740194039372,1793.5740194039372,1795.064384945993,1795.064384945993,1795.064384945993,1795.064384945993,1796.554783521759,1796.554783521759,1055.3344826712532,None,1,1055.3348579085427,1055.334898639428,1055.3349079401814,1055.3354592503529,,,,,,,TS,001,2,26,M,2024-02-09_10h36.30.013,eye_track_exp,2023.1.3,120.12740792155184,
0,-168,0,180,-168,90,0,180,0,0,f,present,resp,freq_bottom,,,,,0,95,95,720,,,,,,,,,,,0.7859167134704991,,,,,,,,,,,,,,,,,,,,,,,1055.3359435309571,1055.3369432015825,1055.3369537851981,1056.1249713360403,1056.124984806097,1797.395730376934,1797.395730376934,,,,,,,1057.3918898072402,f,1,1057.3924703025345,1057.3925110334199,1057.3925200134572,1057.3929882582802,1.2206558730383676,None,,,,,TS,001,2,26,M,2024-02-09_10h36.30.013,eye_track_exp,2023.1.3,120.12740792155184,
12,180,180,168,180,180,180,0,0,0,None,abs,inhibit,freq_bottom,,,,,0,96,96,371,,,,,,,,,,,0.9095382507468196,,,,,,,,,,,,,,,,,,,,,,,1057.393474783894,1058.1237263179569,1058.123741070876,1059.0387402033402,1059.038754314828,1800.3099206645738,1800.3099206645738,1801.8003275789465,1801.8003275789465,1801.8003275789465,1801.8003275789465,1803.2907293618687,1803.2907293618687,1062.0702248569369,None,1,1062.0706263929083,1062.0706674445091,1062.070676424547,1062.07115493227,,,,,,,TS,001,2,26,M,2024-02-09_10h36.30.013,eye_track_exp,2023.1.3,120.12740792155184,
168,180,180,180,180,180,168,180,270,180,f,present,resp,freq_bottom,,,,,0,97,97,420,,,,,,,,,,,0.7262286906573399,,,,,,,,,,,,,,,,,,,,,,,1062.0716485136277,1062.1783576601488,1062.1783717716366,1062.9103247021276,1062.910339134331,1804.1816498061112,1804.1816498061112,1805.6720224039113,1805.6720224039113,1805.6720224039113,1805.6720224039113,,,1065.2514904457212,f,1,1065.2519971764195,1065.2520379073048,1065.2520472080582,1065.2526966572132,2.291078290804535,None,,,,,TS,001,2,26,M,2024-02-09_10h36.30.013,eye_track_exp,2023.1.3,120.12740792155184,
-168,0,0,0,0,90,0,12,180,180,None,present,inhibit,freq_bottom,,,,,0,98,98,271,,,,,,,,,,,0.9708703598901784,,,,,,,,,,,,,,,,,,,,,,,1065.2531931250114,1065.4425173354816,1065.4425314469695,1066.4158870336914,1066.4159011451793,1807.686991806036,1807.686991806036,1809.1774025689965,1809.1774025689965,1809.1774025689965,1809.1774025689965,1810.6677998618998,1810.6677998618998,1069.4471555249524,None,1,1069.4475294793792,1069.4475881703397,1069.4475971503775,1069.4481766835247,,,,,,,TS,001,2,26,M,2024-02-09_10h36.30.013,eye_track_exp,2023.1.3,120.12740792155184,
168,180,0,0,168,0,180,0,0,180,f,abs,resp,freq_bottom,,,,,0,99,99,916,,,,,,,,,,,0.8040461959755928,,,,,,,,,,,,,,,,,,,,,,,1069.4486789242046,1069.830274080372,1069.8302885125754,1070.6378039702672,1070.6378177610395,1811.908409388373,1811.908409388373,,,,,,,1071.4215964133732,f,1,1071.4221069926593,1071.4221470821135,1071.4221563828664,1071.4227519517954,0.7396959583231819,None,,,,,TS,001,2,26,M,2024-02-09_10h36.30.013,eye_track_exp,2023.1.3,120.12740792155184,
0,0,0,168,180,168,0,0,0,0,f,abs,resp,freq_bottom,,,,,0,100,100,840,,,,,,,,,,,0.9955595375944206,,,,,,,,,,,,,,,,,,,,,,,1071.4232519474658,1071.6870591563193,1071.6870732678071,1072.6860687864473,1072.6860828979352,1813.9566809395815,1813.9566809395815,,,,,,,1074.0189414652282,f,1,1074.0194443473392,1074.0194934168308,1074.0195023968686,1074.0202458157037,1.283247377217549,None,,,,,TS,001,2,26,M,2024-02-09_10h36.30.013,eye_track_exp,2023.1.3,120.12740792155184,
180,-12,0,180,0,-12,0,0,90,180,j,present,resp,freq_bottom,,,,,0,101,101,609,,,,,,,,,,,1.047602742645334,,,,,,,,,,,,,,,,,,,,,,,1074.0207438870798,1074.7844165557258,1074.7844313086448,1075.8331246009097,1075.8331390331132,1817.1040035894493,1817.1040035894493,1818.5944079380965,1818.5944079380965,1818.5944079380965,1818.5944079380965,,,1077.491543209857,j,1,1077.4920383947929,1077.492078163531,1077.4920868228533,1077.4924360821765,1.6077477744236148,None,,,,,TS,001,2,26,M,2024-02-09_10h36.30.013,eye_track_exp,2023.1.3,120.12740792155184,
180,0,180,0,168,180,-168,180,180,0,f,abs,resp,freq_bottom,,,,,0,102,102,908,,,,,,,,,,,1.090870770070099,,,,,,,,,,,,,,,,,,,,,,,1077.4929203627808,1077.6654284905167,1077.6654419605734,1078.755824115699,1078.7558385479024,1820.0265478778729,1820.0265478778729,1821.5169191928098,1821.5169191928098,1821.5169191928098,1821.5169191928098,,,1080.6142672914634,f,1,1080.6147836436312,1080.6148400895822,1080.61484906962,1080.6152977507895,1.8214534286723847,None,,,,,TS,001,2,26,M,2024-02-09_10h36.30.013,eye_track_exp,2023.1.3,120.12740792155184,
0,0,-168,180,180,180,90,0,0,12,None,present,inhibit,freq_bottom,,,,,0,103,103,66,,,,,,,,,,,0.8840047150262919,,,,,,,,,,,,,,,,,,,,,,,1080.6157695234842,1081.2958723577444,1081.2958880728102,1082.1859679213812,1082.185982032869,1823.4569412003166,1823.4569412003166,1824.947347473258,1824.947347473258,1824.947347473258,1824.947347473258,1826.4377322582518,1826.4377322582518,1085.217524735995,None,1,1085.2178977282751,1085.2179378177293,1085.2179471184822,1085.2185519881646,,,,,,,TS,001,2,26,M,2024-02-09_10h36.30.013,eye_track_exp,2023.1.3,120.12740792155184,
180,180,180,168,0,0,0,90,180,168,f,present,resp,freq_bottom,,,,,0,104,104,613,,,,,,,,,,,1.0761798563932854,,,,,,,,,,,,,,,,,,,,,,,1085.2190574360006,1086.5741034314328,1086.574119146499,1087.6561357550786,1087.656149545851,1828.9273049912654,1828.9273049912654,1830.417689776259,1830.417689776259,1830.417689776259,1830.417689776259,1831.908110160688,1831.908110160688,1090.6879122599003,None,0,1090.6882919872087,1091.1868659251509,1091.186876188051,1091.1873319249644,,,1831.9330650440165,1832.4326546883653,,,TS,001,2,26,M,2024-02-09_10h36.30.013,eye_track_exp,2023.1.3,120.12740792155184,
0,0,180,180,180,90,0,12,0,12,j,present,resp,freq_bottom,,,,,0,105,105,439,,,,,,,,,,,0.9578464601451925,,,,,,,,,,,,,,,,,,,,,,,1091.187869765079,1091.2035857931955,1091.203597659674,1092.1609986058493,1092.1610127173371,1833.4318144134095,1833.4318144134095,1834.9222001605503,1834.9222001605503,1834.9222001605503,1834.9222001605503,1836.4126192621166,1836.4126192621166,1095.1920563869398,None,0,1095.1924412456983,1095.6917493017222,1095.6917589231912,1095.6920074778059,,,1836.4375722211512,1836.9371801462912,,,TS,001,2,26,M,2024-02-09_10h36.30.013,eye_track_exp,2023.1.3,120.12740792155184,
0,180,0,0,168,180,168,180,0,180,f,abs,resp,freq_bottom,,,,,0,106,106,918,,,,,,,,,,,1.0121360455269572,,,,,,,,,,,,,,,,,,,,,,,1095.6925482043616,1096.1079086229852,1096.1079240173353,1097.1235768644724,1097.1235993145665,1838.3942640650644,1838.3942640650644,1839.8846773937494,1839.8846773937494,1839.8846773937494,1839.8846773937494,,,1099.2143288047218,f,1,1099.2148381011457,1099.2155930657432,1099.2156036493593,1099.2161966525628,2.0449553419014137,None,,,,,TS,001,2,26,M,2024-02-09_10h36.30.013,eye_track_exp,2023.1.3,120.12740792155184,
0,0,0,0,0,0,12,0,270,168,None,present,inhibit,freq_bottom,,,,,0,107,107,270,,,,,,,,,,,0.8524080437043633,,,,,,,,,,,,,,,,,,,,,,,1099.2166883096265,1099.546763385949,1099.5467784595835,1100.4037540406161,1100.403768152104,1841.6748161577816,1841.6748161577816,1843.1652160164103,1843.1652160164103,1843.1652160164103,1843.1652160164103,1844.6555950285228,1844.6555950285228,1103.4351742303706,None,1,1103.4355658241575,1103.4356059136117,1103.435615214365,1103.4362806993013,,,,,,,TS,001,2,26,M,2024-02-09_10h36.30.013,eye_track_exp,2023.1.3,120.12740792155184,
180,90,0,0,180,180,-168,180,-168,180,f,present,resp,freq_bottom,,,,,0,108,108,526,,,,,,,,,,,0.9945444457722314,,,,,,,,,,,,,,,,,,,,,,,1103.4367691492089,1104.9174054618516,1104.9174205354861,1105.9155863627866,1105.9156004742745,1847.1868059513276,1847.1868059513276,,,,,,,1107.1001537190027,f,1,1107.1006960491363,1107.1007377421683,1107.1007467222062,1107.101338763263,1.1408990268025718,None,,,,,TS,001,2,26,M,2024-02-09_10h36.30.013,eye_track_exp,2023.1.3,120.12740792155184,
0,270,0,0,0,-12,0,0,-168,0,None,present,inhibit,freq_bottom,,,,,0,109,109,240,,,,,,,,,,,0.7310542234693033,,,,,,,,,,,,,,,,,,,,,,,1107.1018278546017,1107.3149844436884,1107.3149985551763,1108.0472003609975,1108.0472144724854,1849.318333997749,1849.318333997749,1850.8087361013872,1850.8087361013872,1850.8087361013872,1850.8087361013872,1852.299150392219,1852.299150392219,1111.0785525590381,None,1,1111.0789287584748,1111.078969168644,1111.078978790113,1111.0794233019792,,,,,,,TS,001,2,26,M,2024-02-09_10h36.30.013,eye_track_exp,2023.1.3,120.12740792155184,
0,0,0,168,180,168,0,0,0,0,f,abs,resp,freq_bottom,,,,,0,110,110,842,,,,,,,,,,,0.7864148356305538,,,,,,,,,,,,,,,,,,,,,,,1111.0799139968963,1111.1040491310691,1111.1040609975475,1111.893835428622,1111.8938495401098,1853.1650662422103,1853.1650662422103,,,,,,,1112.7610498562071,f,1,1112.7615825648722,1113.267274144836,1113.2672860113144,1113.2684915813752,0.8254024002492315,None,1854.0143523452489,,,,TS,001,2,26,M,2024-02-09_10h36.30.013,eye_track_exp,2023.1.3,120.12740792155184,
180,0,180,12,180,180,12,0,270,180,j,present,resp,freq_bottom,,,,,0,111,111,497,,,,,,,,,,,0.8259877263264801,,,,,,,,,,,,,,,,,,,,,,,1113.2690133857086,1114.2012227604187,1114.2012384754848,1115.0334855984252,1115.0334990684814,1856.3040653592802,1856.3040653592802,,,,,,,1116.5164711530724,j,1,1116.5170016167276,1116.5177177747341,1116.5177280376342,1116.5182989114592,1.446195292677885,None,,,,,TS,001,2,26,M,2024-02-09_10h36.30.013,eye_track_exp,2023.1.3,120.12740792155184,
168,0,0,0,168,0,0,0,0,0,f,abs,resp,freq_bottom,,,,,0,112,112,927,,,,,,,,,,,1.0138552208811358,,,,,,,,,,,,,,,,,,,,,,,1116.5187822299167,1118.3809825893104,1118.380997983661,1119.3965363353173,1119.3965504468051,1860.6670112221605,1860.6670112221605,,,,,,,1120.4632894455372,f,1,1120.4637900826388,1120.463830813524,1120.4638397935619,1120.4643045105126,1.0191726915270465,None,,,,,TS,001,2,26,M,2024-02-09_10h36.30.013,eye_track_exp,2023.1.3,120.12740792155184,
0,-168,180,180,0,270,0,-168,0,0,f,present,resp,freq_bottom,,,,,0,113,113,599,,,,,,,,,,,0.853001107161022,,,,,,,,,,,,,,,,,,,,,,,1120.4647919982735,1120.5790527150666,1120.5790661851229,1121.436549459001,1121.436563570489,1862.7069723899117,1862.7069723899117,,,,,,,1122.7202070411836,f,1,1122.7207400705638,1122.7207814428807,1122.720790422918,1122.7212519327127,1.2344822446514172,None,,,,,TS,001,2,26,M,2024-02-09_10h36.30.013,eye_track_exp,2023.1.3,120.12740792155184,
0,180,180,0,12,90,180,168,180,0,None,present,inhibit,freq_bottom,,,,,0,114,114,159,,,,,,,,,,,0.9177209329841309,,,,,,,,,,,,,,,,,,,,,,,1122.7217506455204,1122.7226569878967,1122.7226669300812,1123.6509504247397,1123.6509638947964,1864.9217755330533,1864.9217755330533,1866.4121612801941,1866.4121612801941,1866.4121612801941,1866.4121612801941,1867.9025508759223,1867.9025508759223,1126.6823953095982,None,1,1126.6827615668499,1126.6828022977352,1126.6828202578108,1126.6833914523513,,,,,,,TS,001,2,26,M,2024-02-09_10h36.30.013,eye_track_exp,2023.1.3,120.12740792155184,
180,168,180,0,0,180,180,90,180,168,f,present,resp,freq_bottom,,,,,0,115,115,636,,,,,,,,,,,0.8844393183454999,,,,,,,,,,,,,,,,,,,,,,,1126.683892089453,1126.6846371118659,1126.6846470540509,1127.5725973508247,1127.5726114623126,1868.8434137998165,1868.8434137998165,,,,,,,1128.8555249842289,f,1,1128.856054806453,1128.8560958580538,1128.8561048380916,1128.8565807800896,1.2420460021173767,None,,,,,TS,001,2,26,M,2024-02-09_10h36.30.013,eye_track_exp,2023.1.3,120.12740792155184,
180,180,0,168,0,180,0,168,0,0,f,abs,resp,freq_bottom,,,,,0,116,116,943,,,,,,,,,,,0.7134495180697618,,,,,,,,,,,,,,,,,,,,,,,1128.8570653814095,1129.030069976944,1129.0300840884315,1129.7460009166052,1129.7460147073775,1871.0165598309445,1871.0165598309445,,,,,,,1131.095513925954,f,1,1131.0960623496849,1131.096104684148,1131.0961136641859,1131.0965681182365,1.3086361887956173,None,,,,,TS,001,2,26,M,2024-02-09_10h36.30.013,eye_track_exp,2023.1.3,120.12740792155184,
0,0,168,180,180,180,180,0,0,168,f,abs,resp,freq_bottom,,,,,0,117,117,785,,,,,,,,,,,1.0652166092197366,,,,,,,,,,,,,,,,,,,,,,,1131.097062661741,1131.2780043277367,1131.278018118509,1132.3437622573506,1132.3437770102696,1873.6143747312003,1873.6143747312003,,,,,,,1133.2612604060196,f,1,1133.2617850967936,1133.2618280726883,1133.2618376941573,1133.2623258233493,0.8709626215047592,None,,,,,TS,001,2,26,M,2024-02-09_10h36.30.013,eye_track_exp,2023.1.3,120.12740792155184,
180,180,180,0,0,-168,180,180,168,180,f,abs,resp,freq_bottom,,,,,0,118,118,956,,,,,,,,,,,0.8972750838037091,,,,,,,,,,,,,,,,,,,,,,,1133.2628242154415,1133.9422997299257,1133.9423144828447,1134.8417470406766,1134.8417611521645,1876.112245339761,1876.112245339761,,,,,,,1135.9746958573483,f,1,1135.9752202274067,1135.9752603168608,1135.9752689761826,1135.975817079198,1.09283946862638,None,,,,,TS,001,2,26,M,2024-02-09_10h36.30.013,eye_track_exp,2023.1.3,120.12740792155184,
0,180,180,0,180,180,0,168,180,168,f,abs,resp,freq_bottom,,,,,0,119,119,844,,,,,,,,,,,0.7998129594538149,,,,,,,,,,,,,,,,,,,,,,,1135.9763074533994,1136.0658765943977,1136.06589038517,1136.8644315780462,1136.8644453688185,1878.1355347468125,1878.1355347468125,,,,,,,1137.882015133288,f,1,1137.8825090353612,1137.8825497662465,1137.8825587462843,1137.8830266703912,0.9740435120809252,None,,,,,TS,001,2,26,M,2024-02-09_10h36.30.013,eye_track_exp,2023.1.3,120.12740792155184,
180,-12,180,180,180,180,270,180,180,-12,j,present,resp,freq_bottom,,,,,0,120,120,445,,,,,,,,,,,0.8537851661438085,,,,,,,,,,,,,,,,,,,,,,,1137.8835019709582,1137.972965917229,1137.9729793872857,1138.8296400255676,1138.829654457771,1880.100527031998,1880.100527031998,,,,,,,1139.9962966965973,j,1,1139.9968194630774,1139.9968601939627,1139.996869174,1139.9973152894445,1.1209267815331714,None,,,,,TS,001,2,26,M,2024-02-09_10h36.30.013,eye_track_exp,2023.1.3,120.12740792155184,
168,180,0,180,180,180,168,180,0,180,f,abs,resp,freq_bottom,,,,,0,121,121,794,,,,,,,,,,,0.9293322699743384,,,,,,,,,,,,,,,,,,,,,,,1139.9977966836082,1140.1293776481089,1140.1293917595967,1141.0610475791264,1141.0610613698987,1882.3319480556133,1882.3319480556133,,,,,,,1142.3948128095108,f,1,1142.395325954522,1142.3953663646917,1142.3953753447295,1142.3958249880457,1.2892251958826364,None,,,,,TS,001,2,26,M,2024-02-09_10h36.30.013,eye_track_exp,2023.1.3,120.12740792155184,
12,0,0,0,0,0,0,0,-168,0,None,abs,inhibit,freq_bottom,,,,,0,122,122,335,,,,,,,,,,,0.8810625826996852,,,,,,,,,,,,,,,,,,,,,,,1142.3963127965217,1142.585603011135,1142.5856164811917,1143.4675264197522,1143.4675408519556,1884.738258841248,1884.738258841248,1886.2286692834923,1886.2286692834923,1886.2286692834923,1886.2286692834923,1887.7190556720643,1887.7190556720643,1146.498926404422,None,1,1146.499323129659,1146.4993641812598,1146.4993738027288,1146.4999302443503,,,,,,,TS,001,2,26,M,2024-02-09_10h36.30.013,eye_track_exp,2023.1.3,120.12740792155184,
180,0,0,0,168,180,180,-168,180,0,f,abs,resp,freq_bottom,,,,,0,123,123,926,,,,,,,,,,,0.8700248826850003,,,,,,,,,,,,,,,,,,,,,,,1146.5004215806985,1151.0365971814872,1151.0366122551218,1151.9103057799052,1151.910319891393,1893.1810795737174,1893.1810795737174,,,,,,,1152.9115581744481,f,1,1152.912072602322,1152.9121139746385,1152.9121229546763,1152.9125725979925,0.967367816200067,None,,,,,TS,001,2,26,M,2024-02-09_10h36.30.013,eye_track_exp,2023.1.3,120.12740792155184,
180,12,0,180,180,168,0,0,90,0,None,present,inhibit,freq_bottom,,,,,0,124,124,52,,,,,,,,,,,0.9558973460731381,,,,,,,,,,,,,,,,,,,,,,,1152.9130597650374,1153.5338019843962,1153.5338164165996,1154.4912247392344,1154.4912385300063,1895.762247729093,1895.762247729093,1897.252639249115,1897.252639249115,1897.252639249115,1897.252639249115,1898.7430423148999,1898.7430423148999,1157.5226564747518,None,1,1157.5230368434914,1157.5230772536606,1157.523086554414,1176.7728775280011,,,,,,,TS,001,2,26,M,2024-02-09_10h36.30.013,eye_track_exp,2023.1.3,120.12740792155184,
180,180,0,180,-168,0,0,270,0,-168,f,present,resp,freq_bottom,,,,,0,125,125,718,,,,,,,,,,,1.0139200925091238,,,,,,,,,,,,,,,,,,,,,,,1176.7734525711294,1176.7742248543714,1176.7742357587026,1177.7886506435002,1177.7886647549876,1919.0591306617935,1919.0591306617935,1920.5494994110059,1920.5494994110059,1920.5494994110059,1920.5494994110059,1922.0399137018376,1922.0399137018376,1180.819571799731,None,0,1180.819950244177,1181.3261928135967,1181.326204680075,1181.327283567461,,,1922.0732402253093,,,,TS,001,2,26,M,2024-02-09_10h36.30.013,eye_track_exp,2023.1.3,120.12740792155184,
180,12,180,0,180,180,180,180,-168,180,None,abs,inhibit,freq_bottom,,,,,0,126,126,336,,,,,,,,,,,1.0736750532187354,,,,,,,,,,,,,,,,,,,,,,,1181.327815313979,1181.3286065194434,1181.328617103059,1182.401183825541,1182.4011976163133,1923.671878081877,1923.671878081877,1925.162289486268,1925.162289486268,1925.162289486268,1925.162289486268,1926.6526726676839,1926.6526726676839,1185.4323480842213,None,1,1185.4327233215108,1185.433452628858,1185.4334635331898,1185.434026068408,,,,,,,TS,001,2,26,M,2024-02-09_10h36.30.013,eye_track_exp,2023.1.3,120.12740792155184,
0,180,-168,0,180,0,180,-168,180,90,f,present,resp,freq_bottom,,,,,0,127,127,534,,,,,,,,,,,0.9581565886940899,,,,,,,,,,,,,,,,,,,,,,,1185.4345218947751,1185.4355318283006,1185.435541770485,1186.3895578838801,1186.389571674652,1927.6601479076353,1927.6601479076353,,,,,,,1187.6560337675078,f,1,1187.6565366496188,1187.6565773805037,1187.656586681257,1187.6572662776816,1.2226892101459725,None,,,,,TS,001,2,26,M,2024-02-09_10h36.30.013,eye_track_exp,2023.1.3,120.12740792155184,
180,180,180,168,180,180,270,0,168,180,f,present,resp,freq_bottom,,,,,0,128,128,484,,,,,,,,,,,0.8382538197512859,,,,,,,,,,,,,,,,,,,,,,,1187.65777813983,1187.6586668428467,1187.6586771057468,1188.495800068441,1188.4958141799289,1929.7667059970936,1929.7667059970936,,,,,,,1189.912596651665,f,1,1189.9131537347175,1189.9131944656028,1189.9132037663562,1189.9136720111792,1.37233801049274,None,,,,,TS,001,2,26,M,2024-02-09_10h36.30.013,eye_track_exp,2023.1.3,120.12740792155184,
180,180,12,180,180,90,180,168,0,0,None,present,inhibit,freq_bottom,,,,,0,129,129,33,,,,,,,,,,,1.0110034405804116,,,,,,,,,,,,,,,,,,,,,,,1189.9141527639113,1190.0865852027582,1190.0865986728145,1191.1016504988575,1191.1016646103449,1932.3728277529349,1932.3728277529349,1933.8632381951793,1933.8632381951793,1933.8632381951793,1933.8632381951793,1935.3536261873292,1935.3536261873292,1194.1332336121532,None,1,1194.133610773736,1194.133651825337,1194.1336611260904,1194.1342175677119,,,,,,,TS,001,2,26,M,2024-02-09_10h36.30.013,eye_track_exp,2023.1.3,120.12740792155184,
0,0,-168,180,180,180,180,0,0,-168,f,abs,resp,freq_bottom,,,,,0,130,130,813,,,,,,,,,,,0.7373079304338624,,,,,,,,,,,,,,,,,,,,,,,1194.134709224776,1194.1354500778857,1194.1354603407863,1194.8735158483232,1194.873529959811,1936.1446270349807,1936.1446270349807,,,,,,,1196.2404180592407,f,1,1196.2409369771335,1196.2409934230845,1196.2410020824068,1196.2414818729922,1.3301388890615726,None,,,,,TS,001,2,26,M,2024-02-09_10h36.30.013,eye_track_exp,2023.1.3,120.12740792155184,
168,180,180,168,180,180,180,0,0,270,f,present,resp,freq_bottom,,,,,0,131,131,485,,,,,,,,,,,0.8656926558716123,,,,,,,,,,,,,,,,,,,,,,,1196.241981547947,1196.4564126609553,1196.4564264517276,1197.3220254346738,1197.3220392254461,1938.5925631817813,1938.5925631817813,,,,,,,1198.388164053743,f,1,1198.3886701430106,1198.3887105531799,1198.3887195332177,1198.389182005159,1.0257595491773372,None,,,,,TS,001,2,26,M,2024-02-09_10h36.30.013,eye_track_exp,2023.1.3,120.12740792155184,
0,0,-168,180,180,-168,0,0,0,0,f,abs,resp,freq_bottom,,,,,0,132,132,815,,,,,,,,,,,0.9488710561604192,,,,,,,,,,,,,,,,,,,,,,,1198.3896678893416,1198.446863994443,1198.4468765023526,1199.3949991452928,1199.395012936065,1940.6657838434367,1940.6657838434367,,,,,,,1200.6456191687885,f,1,1200.6461380866813,1200.6461791382822,1200.64618811832,1200.646671436777,1.2087493051992624,None,,,,,TS,001,2,26,M,2024-02-09_10h36.30.013,eye_track_exp,2023.1.3,120.12740792155184,
168,0,180,180,180,168,180,0,90,0,f,present,resp,freq_bottom,,,,,0,133,133,438,,,,,,,,,,,0.7370468639962977,,,,,,,,,,,,,,,,,,,,,,,1200.6471897132387,1201.1939996029541,1201.1940146765887,1201.9344120496712,1201.934426161159,1943.2053003389642,1943.2053003389642,,,,,,,1202.6862506322109,f,1,1202.6868394661115,1202.6868818005746,1202.6868907806124,1202.6873750612167,0.7176740194497597,None,,,,,TS,001,2,26,M,2024-02-09_10h36.30.013,eye_track_exp,2023.1.3,120.12740792155184,
-12,180,180,0,0,0,-12,0,270,0,j,present,resp,freq_bottom,,,,,0,134,134,634,,,,,,,,,,,0.8123508661050433,,,,,,,,,,,,,,,,,,,,,,,1202.6878622282616,1202.9008934175363,1202.9009081704553,1203.715913300302,1203.7159274117898,1944.9871290402552,1944.9871290402552,,,,,,,1204.683034495853,j,1,1204.6835287186418,1204.6835707323894,1204.6835800331428,1204.684041863653,0.9189076841996666,None,,,,,TS,001,2,26,M,2024-02-09_10h36.30.013,eye_track_exp,2023.1.3,120.12740792155184,
0,180,180,0,168,0,0,0,168,0,f,abs,resp,freq_bottom,,,,,0,135,135,905,,,,,,,,,,,0.9154433328243956,,,,,,,,,,,,,,,,,,,,,,,1204.684540255745,1204.7494556653937,1204.7494675318721,1205.6650317652798,1205.6650465181988,1946.9354765048538,1946.9354765048538,1948.4258866263826,1948.4258866263826,1948.4258866263826,1948.4258866263826,,,1207.322901629781,f,1,1207.3233907211197,1207.3234298484267,1207.3234388284645,1207.3239125254531,1.6106852088971664,None,,,,,TS,001,2,26,M,2024-02-09_10h36.30.013,eye_track_exp,2023.1.3,120.12740792155184,
12,180,180,180,180,0,180,168,180,0,None,abs,inhibit,freq_bottom,,,,,0,136,136,385,,,,,,,,,,,0.9711395321274209,,,,,,,,,,,,,,,,,,,,,,,1207.324390071029,1207.4142443282244,1207.4142584397123,1208.3869475793508,1208.3869616908387,1949.6581591500008,1949.6581591500008,1951.1485651022263,1951.1485651022263,1951.1485651022263,1951.1485651022263,1952.6389582258266,1952.6389582258266,1211.418849163269,None,1,1211.419241398487,1211.4192814879411,1211.4192907886945,1211.4197622406737,,,,,,,TS,001,2,26,M,2024-02-09_10h36.30.013,eye_track_exp,2023.1.3,120.12740792155184,
0,180,0,0,-168,180,12,180,270,180,None,present,inhibit,freq_bottom,,,,,0,137,137,327,,,,,,,,,,,0.7383691722284056,,,,,,,,,,,,,,,,,,,,,,,1211.4202641606375,1211.58495356198,1211.5849667113212,1212.3253871759289,1212.3254012874168,1953.5964832889517,1953.5964832889517,1955.0868796197083,1955.0868796197083,1955.0868796197083,1955.0868796197083,1956.57728877909,1956.57728877909,1215.356560414647,None,1,1215.3569427076804,1215.3569844007125,1215.3569940221814,1215.35755142595,,,,,,,TS,001,2,26,M,2024-02-09_10h36.30.013,eye_track_exp,2023.1.3,120.12740792155184,
180,0,180,180,180,90,180,12,180,-12,j,present,resp,freq_bottom,,,,,0,138,138,436,,,,,,,,,,,0.7625260589462661,,,,,,,,,,,,,,,,,,,,,,,1215.3580398758577,1223.9491662516075,1223.9491816459577,1224.715087136834,1224.7151012483214,1965.9859712568236,1965.9859712568236,1967.476379133343,1967.476379133343,1967.476379133343,1967.476379133343,,,1227.4889935205824,j,1,1227.4895127591903,1227.4895534900757,1227.4895624701135,1227.4899126915834,2.735785151906157,None,,,,,TS,001,2,26,M,2024-02-09_10h36.30.013,eye_track_exp,2023.1.3,120.12740792155184,
180,-168,0,180,180,180,168,180,0,180,f,abs,resp,freq_bottom,,,,,0,139,139,810,,,,,,,,,,,1.0957115170106935,,,,,,,,,,,,,,,,,,,,,,,1227.4903956893254,1227.5297616088637,1227.5297737960577,1228.6280308028122,1228.6280445935845,1969.8993190244983,1969.8993190244983,,,,,,,1229.5788234033894,f,1,1229.5793250026381,1229.579366054239,1229.5793750342768,1229.5798625220373,0.9018520268880366,None,,,,,TS,001,2,26,M,2024-02-09_10h36.30.013,eye_track_exp,2023.1.3,120.12740792155184,
0,0,0,180,12,90,0,180,0,-12,j,present,resp,freq_bottom,,,,,0,140,140,569,,,,,,,,,,,0.8293934464996034,,,,,,,,,,,,,,,,,,,,,,,1229.5803448783477,1229.6199978383765,1229.620010025571,1230.4520855656478,1230.4520996771357,1971.7227769355427,1971.7227769355427,1973.2131690969964,1973.2131690969964,1973.2131690969964,1973.2131690969964,,,1232.3763081589736,j,1,1232.376814568957,1232.3768552998422,1232.3768646005951,1232.3773235446647,1.8781716674818654,None,,,,,TS,001,2,26,M,2024-02-09_10h36.30.013,eye_track_exp,2023.1.3,120.12740792155184,
180,180,180,0,12,0,0,0,-168,180,None,abs,inhibit,freq_bottom,,,,,0,141,141,339,,,,,,,,,,,1.0556379815327734,,,,,,,,,,,,,,,,,,,,,,,1232.3778155224445,1232.3785682420325,1232.378578504933,1233.4328785478765,1233.432893300796,1974.7035769735157,1974.7035769735157,1976.1939797185846,1976.1939797185846,1976.1939797185846,1976.1939797185846,1977.684358089266,1977.684358089266,1236.4637782161603,None,1,1236.4641662820754,1236.4642073336763,1236.4642166344297,1236.464659863433,,,,,,,TS,001,2,26,M,2024-02-09_10h36.30.013,eye_track_exp,2023.1.3,120.12740792155184,
180,0,180,-168,180,180,180,0,180,-168,f,abs,resp,freq_bottom,,,,,0,142,142,882,,,,,,,,,,,0.7039888830349501,,,,,,,,,,,,,,,,,,,,,,,1236.465152161928,1236.4809650461657,1236.4809762712125,1237.187677977131,1237.1876917679033,1978.4587275863873,1978.4587275863873,,,,,,,1238.5541164332444,f,1,1238.5546334268433,1238.5546747991598,1238.5546837791976,1238.5554474031173,1.3178686296953401,None,,,,,TS,001,2,26,M,2024-02-09_10h36.30.013,eye_track_exp,2023.1.3,120.12740792155184,
180,180,-12,180,0,0,180,-12,180,90,j,present,resp,freq_bottom,,,,,0,143,143,612,,,,,,,,,,,1.0301610307048064,,,,,,,,,,,,,,,,,,,,,,,1238.5559451537783,1238.6291978869972,1238.6292107156223,1239.6606915206316,1239.6607056321195,1980.9315836585124,1980.9315836585124,,,,,,,1240.9612620416692,j,1,1240.961770696662,1240.961812389694,1240.9618300290535,1240.9624140522196,1.2616539144280523,None,,,,,TS,001,2,26,M,2024-02-09_10h36.30.013,eye_track_exp,2023.1.3,120.12740792155184,
