ori10,ori11,ori12,ori13,ori14,ori16,ori17,ori18,ori19,ori20,corrAns,distractor,respon,dist_freq,practice_trials.thisRepN,practice_trials.thisTrialN,practice_trials.thisN,practice_trials.thisIndex,trials.thisRepN,trials.thisTrialN,trials.thisN,trials.thisIndex,key_resp.keys,key_resp.rt,fixdur,int14_2.started,int14_2.stopped,per15_2.started,per15_2.stopped,response_pract.keys,response_pract.corr,response_pract.rt,key_resp_2.keys,key_resp_2.rt,int14.started,int14.stopped,per15.started,per15.stopped,response.keys,response.corr,response.rt,text_7.started,text_7.stopped,participant,session,1=top 2=bottom,age,gender,date,expName,psychopyVersion,frameRate,
,,,,,,,,,,,,,,,,,,,,,,space,90.5216406476327,,,,,,,,,,,,,,,,,,,,001,001,2,32,m,2021_Nov_08_0830,eye_tracking_exp,2021.2.3,84.66273456539263,
180,0,180,0,12,0,12,180,180,180,j,abs,resp,pract,0,0,0,7,,,,,,,0.9646338811518056,285.2178941957404,None,285.2178941957404,None,j,1,2.5930149511568743,,,,,,,,,,,,001,001,2,32,m,2021_Nov_08_0830,eye_tracking_exp,2021.2.3,84.66273456539263,
0,180,0,12,0,180,180,180,0,12,j,abs,resp,pract,0,1,1,4,,,,,,,1.0789712804152383,288.9382507140963,None,288.9382507140963,None,j,1,1.1287019519950263,,,,,,,,,,,,001,001,2,32,m,2021_Nov_08_0830,eye_tracking_exp,2021.2.3,84.66273456539263,
180,180,180,-168,180,180,12,180,0,180,None,abs,inhibit,pract,0,2,2,22,,,,,,,0.8127667392355922,292.10227626369306,None,292.10227626369306,None,None,1,,,,,,,,,,,,,001,001,2,32,m,2021_Nov_08_0830,eye_tracking_exp,2021.2.3,84.66273456539263,
0,180,0,-168,180,0,180,0,12,180,None,abs,inhibit,pract,0,3,3,24,,,,,,,0.8115836408029725,296.2447353987966,None,296.2447353987966,None,None,1,,,,,,,,,,,,,001,001,2,32,m,2021_Nov_08_0830,eye_tracking_exp,2021.2.3,84.66273456539263,
90,0,180,168,180,180,0,168,0,0,f,present,resp,pract,0,4,4,46,,,,,,,0.979583646953816,300.2359495177832,None,300.2359495177832,None,f,1,1.4631793887285767,,,,,,,,,,,,001,001,2,32,m,2021_Nov_08_0830,eye_tracking_exp,2021.2.3,84.66273456539263,
0,180,180,180,168,0,0,0,0,12,None,abs,inhibit,pract,0,5,5,31,,,,,,,1.0884614072597505,302.95305694749277,None,302.95305694749277,None,None,1,,,,,,,,,,,,,001,001,2,32,m,2021_Nov_08_0830,eye_tracking_exp,2021.2.3,84.66273456539263,
180,270,180,12,180,0,12,180,0,180,j,present,resp,pract,0,6,6,33,,,,,,,0.8710662146622793,306.8372295331412,None,306.8372295331412,None,j,1,1.0689439553702869,,,,,,,,,,,,001,001,2,32,m,2021_Nov_08_0830,eye_tracking_exp,2021.2.3,84.66273456539263,
180,270,180,12,180,180,180,180,12,180,j,present,resp,pract,0,7,7,35,,,,,,,1.0917141495697182,309.24913452718124,None,309.24913452718124,None,j,1,1.8733879986925785,,,,,,,,,,,,001,001,2,32,m,2021_Nov_08_0830,eye_tracking_exp,2021.2.3,84.66273456539263,
0,0,0,0,168,0,0,12,0,0,None,abs,inhibit,pract,0,8,8,29,,,,,,,0.7181506148936442,312.191781351185,None,312.191781351185,None,None,1,,,,,,,,,,,,,001,001,2,32,m,2021_Nov_08_0830,eye_tracking_exp,2021.2.3,84.66273456539263,
0,270,0,0,12,0,180,180,180,12,j,present,resp,pract,0,9,9,42,,,,,,,0.8876742265310887,316.0979673877707,None,316.0979673877707,None,j,1,1.1365158834134945,,,,,,,,,,,,001,001,2,32,m,2021_Nov_08_0830,eye_tracking_exp,2021.2.3,84.66273456539263,
0,0,168,0,0,0,0,0,168,0,f,abs,resp,pract,0,10,10,11,,,,,,,0.9133138590125875,318.4043754031554,None,318.4043754031554,None,f,1,1.693155340522253,,,,,,,,,,,,001,001,2,32,m,2021_Nov_08_0830,eye_tracking_exp,2021.2.3,84.66273456539263,
90,0,0,12,0,12,180,180,180,0,j,present,resp,pract,0,11,11,32,,,,,,,0.7818114242655299,321.2169497142861,None,321.2169497142861,None,j,1,1.1205040703018767,,,,,,,,,,,,001,001,2,32,m,2021_Nov_08_0830,eye_tracking_exp,2021.2.3,84.66273456539263,
12,0,0,12,0,0,180,0,180,180,j,abs,resp,pract,0,12,12,6,,,,,,,0.8144186931011331,323.44112505882254,None,323.44112505882254,None,j,1,0.9771722934963236,,,,,,,,,,,,001,001,2,32,m,2021_Nov_08_0830,eye_tracking_exp,2021.2.3,84.66273456539263,
0,0,180,0,0,0,168,0,180,168,f,abs,resp,pract,0,13,13,15,,,,,,,1.064617203155632,325.5594725996241,None,325.5594725996241,None,f,1,1.4979133054530394,,,,,,,,,,,,001,001,2,32,m,2021_Nov_08_0830,eye_tracking_exp,2021.2.3,84.66273456539263,
0,180,0,12,0,180,180,12,0,0,j,abs,resp,pract,0,14,14,2,,,,,,,0.8817593188215248,327.9951423649586,None,327.9951423649586,None,j,1,0.9823855051288319,,,,,,,,,,,,001,001,2,32,m,2021_Nov_08_0830,eye_tracking_exp,2021.2.3,84.66273456539263,
180,0,180,0,168,180,0,180,12,180,None,abs,inhibit,pract,0,15,15,30,,,,,,,0.845940974646333,330.0425466407521,None,330.0425466407521,None,None,1,,,,,,,,,,,,,001,001,2,32,m,2021_Nov_08_0830,eye_tracking_exp,2021.2.3,84.66273456539263,
0,168,180,90,0,180,0,168,0,0,f,present,resp,pract,0,16,16,48,,,,,,,1.0662564182274756,334.12622455838937,None,334.12622455838937,None,f,1,1.7943935499738473,,,,,,,,,,,,001,001,2,32,m,2021_Nov_08_0830,eye_tracking_exp,2021.2.3,84.66273456539263,
180,12,180,-168,180,180,0,180,180,180,None,abs,inhibit,pract,0,17,17,26,,,,,,,0.7446021468984407,336.7274236785636,None,336.7274236785636,None,None,1,,,,,,,,,,,,,001,001,2,32,m,2021_Nov_08_0830,eye_tracking_exp,2021.2.3,84.66273456539263,
180,180,90,180,12,180,12,0,0,180,j,present,resp,pract,0,18,18,39,,,,,,,0.8190657056053549,340.55164508505914,None,340.55164508505914,None,j,1,1.0651077729467033,,,,,,,,,,,,001,001,2,32,m,2021_Nov_08_0830,eye_tracking_exp,2021.2.3,84.66273456539263,
180,168,180,0,180,0,180,0,0,168,f,abs,resp,pract,0,19,19,20,,,,,,,0.8541337745106656,342.51717407768183,None,342.51717407768183,None,f,1,1.019061208109406,,,,,,,,,,,,001,001,2,32,m,2021_Nov_08_0830,eye_tracking_exp,2021.2.3,84.66273456539263,
180,180,168,0,270,0,0,168,0,180,f,present,resp,pract,0,20,20,47,,,,,,,0.7414514100517151,344.32813320176797,None,344.32813320176797,None,f,1,1.4166390010534542,,,,,,,,,,,,001,001,2,32,m,2021_Nov_08_0830,eye_tracking_exp,2021.2.3,84.66273456539263,
0,180,180,180,12,0,180,12,0,0,j,abs,resp,pract,0,21,21,8,,,,,,,0.7408795120591053,346.5518986371276,None,346.5518986371276,None,j,1,1.0968878080759623,,,,,,,,,,,,001,001,2,32,m,2021_Nov_08_0830,eye_tracking_exp,2021.2.3,84.66273456539263,
0,180,0,180,168,180,12,180,0,180,None,abs,inhibit,pract,0,22,22,28,,,,,,,0.765344880599901,348.55360860434985,None,348.55360860434985,None,None,1,,,,,,,,,,,,,001,001,2,32,m,2021_Nov_08_0830,eye_tracking_exp,2021.2.3,84.66273456539263,
180,0,180,0,12,180,180,180,12,180,j,abs,resp,pract,0,23,23,9,,,,,,,0.8693140235127741,352.424631798629,None,352.424631798629,None,j,1,0.9032543194016398,,,,,,,,,,,,001,001,2,32,m,2021_Nov_08_0830,eye_tracking_exp,2021.2.3,84.66273456539263,
180,12,180,12,180,90,180,180,0,180,j,present,resp,pract,0,24,24,37,,,,,,,0.8979872777942143,354.5427514444168,None,354.5427514444168,None,j,1,1.2810734637298538,,,,,,,,,,,,001,001,2,32,m,2021_Nov_08_0830,eye_tracking_exp,2021.2.3,84.66273456539263,
0,0,180,0,168,0,0,0,180,168,f,abs,resp,pract,0,25,25,17,,,,,,,0.9189056019690215,357.26124495876616,None,357.26124495876616,None,f,1,1.4267119606611232,,,,,,,,,,,,001,001,2,32,m,2021_Nov_08_0830,eye_tracking_exp,2021.2.3,84.66273456539263,
0,270,0,0,12,0,0,12,0,0,j,present,resp,pract,0,26,26,40,,,,,,,0.9674753037132877,359.72096806179684,None,359.72096806179684,None,j,1,1.0470002312520137,,,,,,,,,,,,001,001,2,32,m,2021_Nov_08_0830,eye_tracking_exp,2021.2.3,84.66273456539263,
0,180,0,0,180,168,180,0,0,168,f,abs,resp,pract,0,27,27,16,,,,,,,0.9362885868354474,361.8626746905836,None,361.8626746905836,None,f,1,0.9373371506364947,,,,,,,,,,,,001,001,2,32,m,2021_Nov_08_0830,eye_tracking_exp,2021.2.3,84.66273456539263,
180,0,90,180,12,0,180,180,12,180,j,present,resp,pract,0,28,28,41,,,,,,,0.9107714705078724,363.8288309227273,None,363.8288309227273,None,j,1,1.0352254543097388,,,,,,,,,,,,001,001,2,32,m,2021_Nov_08_0830,eye_tracking_exp,2021.2.3,84.66273456539263,
12,0,0,-168,0,0,180,180,180,180,None,abs,inhibit,pract,0,29,29,27,,,,,,,0.7894056591004373,365.78109521815895,None,365.78109521815895,None,None,1,,,,,,,,,,,,,001,001,2,32,m,2021_Nov_08_0830,eye_tracking_exp,2021.2.3,84.66273456539263,
168,0,270,180,180,180,180,168,180,180,f,present,resp,pract,0,30,30,49,,,,,,,0.7335113479451117,369.53573559831807,None,369.53573559831807,None,f,1,1.0874342399495163,,,,,,,,,,,,001,001,2,32,m,2021_Nov_08_0830,eye_tracking_exp,2021.2.3,84.66273456539263,
180,168,0,180,0,180,180,180,168,180,f,abs,resp,pract,0,31,31,12,,,,,,,1.0436032733775102,378.51306532678495,None,378.51306532678495,None,f,1,1.438820581159689,,,,,,,,,,,,001,001,2,32,m,2021_Nov_08_0830,eye_tracking_exp,2021.2.3,84.66273456539263,
90,0,180,180,180,168,0,168,0,0,f,present,resp,pract,0,32,32,44,,,,,,,0.7816853341002143,380.8075802409289,None,380.8075802409289,None,f,1,1.0307306402041831,,,,,,,,,,,,001,001,2,32,m,2021_Nov_08_0830,eye_tracking_exp,2021.2.3,84.66273456539263,
0,180,0,12,0,12,0,180,180,180,j,abs,resp,pract,0,33,33,0,,,,,,,1.005378326149318,382.9139399003118,None,382.9139399003118,None,j,1,0.9243021595457321,,,,,,,,,,,,001,001,2,32,m,2021_Nov_08_0830,eye_tracking_exp,2021.2.3,84.66273456539263,
90,0,0,12,0,180,180,180,0,12,j,present,resp,pract,0,34,34,36,,,,,,,1.0376201314714149,385.1846918542474,None,385.1846918542474,None,j,1,1.4537638534122834,,,,,,,,,,,,001,001,2,32,m,2021_Nov_08_0830,eye_tracking_exp,2021.2.3,84.66273456539263,
180,180,0,168,180,180,180,0,0,168,f,abs,resp,pract,0,35,35,18,,,,,,,1.066877118909948,387.88606698181593,None,387.88606698181593,None,f,1,1.0403239638160358,,,,,,,,,,,,001,001,2,32,m,2021_Nov_08_0830,eye_tracking_exp,2021.2.3,84.66273456539263,
12,0,0,12,0,0,90,180,180,0,j,present,resp,pract,0,36,36,38,,,,,,,1.0629139965224508,390.2630376322584,None,390.2630376322584,None,j,1,1.127416684487116,,,,,,,,,,,,001,001,2,32,m,2021_Nov_08_0830,eye_tracking_exp,2021.2.3,84.66273456539263,
0,0,0,-168,0,12,0,0,0,0,None,abs,inhibit,pract,0,37,37,21,,,,,,,0.8936292451037913,392.6042746463929,None,392.6042746463929,None,None,1,,,,,,,,,,,,,001,001,2,32,m,2021_Nov_08_0830,eye_tracking_exp,2021.2.3,84.66273456539263,
168,0,180,0,0,180,180,0,168,0,f,abs,resp,pract,0,38,38,13,,,,,,,1.0208888645678518,396.6292069645924,None,396.6292069645924,None,f,1,0.9843674371293218,,,,,,,,,,,,001,001,2,32,m,2021_Nov_08_0830,eye_tracking_exp,2021.2.3,84.66273456539263,
0,0,0,-168,180,180,180,180,0,12,None,abs,inhibit,pract,0,39,39,25,,,,,,,0.7934005104392052,398.511868500653,None,398.511868500653,None,None,1,,,,,,,,,,,,,001,001,2,32,m,2021_Nov_08_0830,eye_tracking_exp,2021.2.3,84.66273456539263,
180,12,180,12,0,180,0,180,180,180,j,abs,resp,pract,0,40,40,5,,,,,,,0.991667471373711,402.52413347826064,None,402.52413347826064,None,j,1,1.0895040096304456,,,,,,,,,,,,001,001,2,32,m,2021_Nov_08_0830,eye_tracking_exp,2021.2.3,84.66273456539263,
0,180,0,0,180,0,180,168,0,168,f,abs,resp,pract,0,41,41,14,,,,,,,0.8612659886687617,404.54794533779636,None,404.54794533779636,None,f,1,0.841673766362419,,,,,,,,,,,,001,001,2,32,m,2021_Nov_08_0830,eye_tracking_exp,2021.2.3,84.66273456539263,
180,0,180,12,0,180,180,0,12,180,j,abs,resp,pract,0,42,42,3,,,,,,,0.8256844271290861,406.5482574483185,None,406.5482574483185,None,j,1,0.8893946803932522,,,,,,,,,,,,001,001,2,32,m,2021_Nov_08_0830,eye_tracking_exp,2021.2.3,84.66273456539263,
0,0,168,0,0,0,0,0,180,168,f,abs,resp,pract,0,43,43,19,,,,,,,0.8749144030111143,408.5016696705545,None,408.5016696705545,None,f,1,0.7280081852404692,,,,,,,,,,,,001,001,2,32,m,2021_Nov_08_0830,eye_tracking_exp,2021.2.3,84.66273456539263,
180,270,0,0,0,0,0,168,0,168,f,present,resp,pract,0,44,44,43,,,,,,,0.8762437684204178,410.2077451705122,None,410.2077451705122,None,f,1,1.0210446493483687,,,,,,,,,,,,001,001,2,32,m,2021_Nov_08_0830,eye_tracking_exp,2021.2.3,84.66273456539263,
180,0,180,12,180,180,12,180,180,180,j,abs,resp,pract,0,45,45,1,,,,,,,0.9481892460426904,412.2201441684988,None,412.2201441684988,None,j,1,0.8006916022411588,,,,,,,,,,,,001,001,2,32,m,2021_Nov_08_0830,eye_tracking_exp,2021.2.3,84.66273456539263,
180,270,0,0,168,0,0,168,180,0,f,present,resp,pract,0,46,46,45,,,,,,,1.0070282640985184,414.3637095754241,None,414.3637095754241,None,f,1,0.8170574827051951,,,,,,,,,,,,001,001,2,32,m,2021_Nov_08_0830,eye_tracking_exp,2021.2.3,84.66273456539263,
90,0,0,12,0,0,0,12,0,0,j,present,resp,pract,0,47,47,34,,,,,,,0.940867306146358,416.4694516544123,None,416.4694516544123,None,j,1,0.8234382412424566,,,,,,,,,,,,001,001,2,32,m,2021_Nov_08_0830,eye_tracking_exp,2021.2.3,84.66273456539263,
180,180,0,168,180,180,180,180,168,180,f,abs,resp,pract,0,48,48,10,,,,,,,0.9626018393394429,418.3508487504562,None,418.3508487504562,None,f,1,0.9259798290640902,,,,,,,,,,,,001,001,2,32,m,2021_Nov_08_0830,eye_tracking_exp,2021.2.3,84.66273456539263,
0,0,0,-168,0,0,0,12,0,0,None,abs,inhibit,pract,0,49,49,23,,,,,,,0.9533975897032145,420.2805384600756,None,420.2805384600756,None,None,1,,,,,,,,,,,,,001,001,2,32,m,2021_Nov_08_0830,eye_tracking_exp,2021.2.3,84.66273456539263,
,,,,,,,,,,,,,,,,,,,,,,,,,,,,,,,,space,15.29240180792317,,,,,,,,,,001,001,2,32,m,2021_Nov_08_0830,eye_tracking_exp,2021.2.3,84.66273456539263,
168,180,180,-168,180,180,0,180,0,180,f,abs,resp,freq_bottom,,,,,0,0,0,365,,,0.8444545475898725,,,,,,,,,,440.6815760313609,None,440.6815760313609,None,f,1,1.5065887102080069,None,None,001,001,2,32,m,2021_Nov_08_0830,eye_tracking_exp,2021.2.3,84.66273456539263,
180,180,12,180,180,180,0,12,0,180,j,abs,resp,freq_bottom,,,,,0,1,1,32,,,0.7673084291778092,,,,,,,,,,443.2941638652685,None,443.2941638652685,None,j,1,1.0851311419958165,None,None,001,001,2,32,m,2021_Nov_08_0830,eye_tracking_exp,2021.2.3,84.66273456539263,
180,0,0,168,180,168,0,270,180,180,f,present,resp,freq_bottom,,,,,0,2,2,783,,,0.7663699376103742,,,,,,,,,,445.54159114185677,None,445.54159114185677,None,f,1,1.190684264323636,None,None,001,001,2,32,m,2021_Nov_08_0830,eye_tracking_exp,2021.2.3,84.66273456539263,
180,12,180,180,180,0,180,0,180,-12,j,abs,resp,freq_bottom,,,,,0,3,3,147,,,0.7568611093430874,,,,,,,,,,447.8600742726453,None,447.8600742726453,None,None,0,,450.8489907269368,None,001,001,2,32,m,2021_Nov_08_0830,eye_tracking_exp,2021.2.3,84.66273456539263,
0,12,0,0,180,180,180,270,180,12,j,present,resp,freq_bottom,,,,,0,4,4,527,,,0.9771507292792416,,,,,,,,,,452.9548381507723,None,452.9548381507723,None,j,1,2.112508728415378,None,None,001,001,2,32,m,2021_Nov_08_0830,eye_tracking_exp,2021.2.3,84.66273456539263,
180,0,0,180,180,168,180,90,180,168,f,present,resp,freq_bottom,,,,,0,5,5,727,,,1.0581631791307795,,,,,,,,,,456.5565440732355,None,456.5565440732355,None,f,1,0.9748061093735032,None,None,001,001,2,32,m,2021_Nov_08_0830,eye_tracking_exp,2021.2.3,84.66273456539263,
180,180,180,0,12,0,0,0,0,168,None,abs,inhibit,freq_bottom,,,,,0,6,6,500,,,0.9028232070863474,,,,,,,,,,459.07436772716846,None,459.07436772716846,None,None,1,,None,None,001,001,2,32,m,2021_Nov_08_0830,eye_tracking_exp,2021.2.3,84.66273456539263,
180,168,0,180,0,0,180,0,180,-168,f,abs,resp,freq_bottom,,,,,0,7,7,357,,,0.7000467456669694,,,,,,,,,,462.78201766473126,None,462.78201766473126,None,f,1,1.244499181576657,None,None,001,001,2,32,m,2021_Nov_08_0830,eye_tracking_exp,2021.2.3,84.66273456539263,
180,180,-168,0,0,0,270,0,168,180,f,present,resp,freq_bottom,,,,,0,8,8,856,,,1.0166604422198535,,,,,,,,,,465.37030615506706,None,465.37030615506706,None,f,1,1.184538645144812,None,None,001,001,2,32,m,2021_Nov_08_0830,eye_tracking_exp,2021.2.3,84.66273456539263,
180,168,0,0,0,0,12,0,90,180,None,present,inhibit,freq_bottom,,,,,0,9,9,950,,,0.7027212191585127,,,,,,,,,,467.5252291854126,None,467.5252291854126,None,None,1,,None,None,001,001,2,32,m,2021_Nov_08_0830,eye_tracking_exp,2021.2.3,84.66273456539263,
0,0,168,0,168,180,270,0,0,0,f,present,resp,freq_bottom,,,,,0,10,10,742,,,0.8463436964723884,,,,,,,,,,471.3840710138975,None,471.3840710138975,None,f,1,2.5305662841312824,None,None,001,001,2,32,m,2021_Nov_08_0830,eye_tracking_exp,2021.2.3,84.66273456539263,
0,0,-12,180,180,180,180,-12,0,90,j,present,resp,freq_bottom,,,,,0,11,11,606,,,0.8291901856210725,,,,,,,,,,475.0906385256069,None,475.0906385256069,None,j,1,1.2230320749767998,None,None,001,001,2,32,m,2021_Nov_08_0830,eye_tracking_exp,2021.2.3,84.66273456539263,
12,180,180,168,180,270,180,0,0,0,None,present,inhibit,freq_bottom,,,,,0,12,12,960,,,0.8068207944845707,,,,,,,,,,477.479517369675,None,477.479517369675,None,None,1,,None,None,001,001,2,32,m,2021_Nov_08_0830,eye_tracking_exp,2021.2.3,84.66273456539263,
0,180,-168,0,180,0,180,-168,180,90,f,present,resp,freq_bottom,,,,,0,13,13,836,,,0.8595914897247184,,,,,,,,,,481.76365898574954,None,481.76365898574954,None,f,1,1.0942562998245648,None,None,001,001,2,32,m,2021_Nov_08_0830,eye_tracking_exp,2021.2.3,84.66273456539263,
180,0,180,-12,180,90,180,180,-168,0,None,present,inhibit,freq_bottom,,,,,0,14,14,997,,,1.0566313957823374,,,,,,,,,,484.17691565379164,None,484.17691565379164,None,None,1,,None,None,001,001,2,32,m,2021_Nov_08_0830,eye_tracking_exp,2021.2.3,84.66273456539263,
180,180,180,180,180,-168,180,0,180,-168,f,abs,resp,freq_bottom,,,,,0,15,15,293,,,0.959264267095798,,,,,,,,,,488.15397190824206,None,488.15397190824206,None,f,1,0.7361324160949607,None,None,001,001,2,32,m,2021_Nov_08_0830,eye_tracking_exp,2021.2.3,84.66273456539263,
180,180,-168,0,0,0,90,0,-168,180,f,present,resp,freq_bottom,,,,,0,16,16,786,,,0.9003549780105679,,,,,,,,,,490.1543944950224,None,490.1543944950224,None,f,1,1.006539358109194,None,None,001,001,2,32,m,2021_Nov_08_0830,eye_tracking_exp,2021.2.3,84.66273456539263,
0,180,0,180,168,0,0,270,0,168,f,present,resp,freq_bottom,,,,,0,17,17,759,,,0.9317020907821958,,,,,,,,,,492.22540809054476,None,492.22540809054476,None,f,1,0.935454526529611,None,None,001,001,2,32,m,2021_Nov_08_0830,eye_tracking_exp,2021.2.3,84.66273456539263,
-168,0,180,180,180,-168,180,180,270,0,f,present,resp,freq_bottom,,,,,0,18,18,850,,,0.9969011355568076,,,,,,,,,,494.554877572082,None,494.554877572082,None,f,1,0.7340593260892092,None,None,001,001,2,32,m,2021_Nov_08_0830,eye_tracking_exp,2021.2.3,84.66273456539263,
180,0,180,0,180,90,180,-168,0,-168,f,present,resp,freq_bottom,,,,,0,19,19,795,,,1.0546561370787622,,,,,,,,,,496.6852468012446,None,496.6852468012446,None,f,1,1.3077398969676324,None,None,001,001,2,32,m,2021_Nov_08_0830,eye_tracking_exp,2021.2.3,84.66273456539263,
0,0,0,12,0,12,0,180,0,90,j,present,resp,freq_bottom,,,,,0,20,20,545,,,1.0788054484145428,,,,,,,,,,499.4847462773878,None,499.4847462773878,None,j,1,0.8123112294651946,None,None,001,001,2,32,m,2021_Nov_08_0830,eye_tracking_exp,2021.2.3,84.66273456539263,
180,0,180,0,180,-12,180,270,0,-12,j,present,resp,freq_bottom,,,,,0,21,21,587,,,1.0631857674730163,,,,,,,,,,501.40294947461894,None,501.40294947461894,None,j,1,0.7500632911605862,None,None,001,001,2,32,m,2021_Nov_08_0830,eye_tracking_exp,2021.2.3,84.66273456539263,
0,180,180,180,12,0,90,0,-168,0,None,present,inhibit,freq_bottom,,,,,0,22,22,928,,,0.9768440768956556,,,,,,,,,,503.49747760969217,None,503.49747760969217,None,None,1,,None,None,001,001,2,32,m,2021_Nov_08_0830,eye_tracking_exp,2021.2.3,84.66273456539263,
180,90,0,180,180,168,0,-168,180,180,f,present,resp,freq_bottom,,,,,0,23,23,909,,,0.7996509822983728,,,,,,,,,,507.6867243457375,None,507.6867243457375,None,f,1,2.0504195620012524,None,None,001,001,2,32,m,2021_Nov_08_0830,eye_tracking_exp,2021.2.3,84.66273456539263,
-168,0,180,180,180,90,180,180,12,180,None,present,inhibit,freq_bottom,,,,,0,24,24,941,,,0.9273707357767494,,,,,,,,,,510.9596357181215,None,510.9596357181215,None,None,1,,None,None,001,001,2,32,m,2021_Nov_08_0830,eye_tracking_exp,2021.2.3,84.66273456539263,
180,180,-168,0,0,0,0,180,-168,180,f,abs,resp,freq_bottom,,,,,0,25,25,311,,,0.9092251572546843,,,,,,,,,,514.8766921959391,None,514.8766921959391,None,f,1,1.0835868891608698,None,None,001,001,2,32,m,2021_Nov_08_0830,eye_tracking_exp,2021.2.3,84.66273456539263,
180,180,168,0,168,180,180,0,0,180,f,abs,resp,freq_bottom,,,,,0,26,26,238,,,0.7545834935793823,,,,,,,,,,517.0545468979262,None,517.0545468979262,None,f,1,1.0509052349509602,None,None,001,001,2,32,m,2021_Nov_08_0830,eye_tracking_exp,2021.2.3,84.66273456539263,
0,0,0,12,180,12,0,180,180,180,j,abs,resp,freq_bottom,,,,,0,27,27,69,,,0.8609517339833963,,,,,,,,,,519.4778505666739,None,519.4778505666739,None,j,1,1.0111093322921079,None,None,001,001,2,32,m,2021_Nov_08_0830,eye_tracking_exp,2021.2.3,84.66273456539263,
180,180,180,0,180,-12,0,90,180,-12,j,present,resp,freq_bottom,,,,,0,28,28,639,,,1.0959893928578517,,,,,,,,,,523.572318332207,None,523.572318332207,None,j,1,0.9150369443839281,None,None,001,001,2,32,m,2021_Nov_08_0830,eye_tracking_exp,2021.2.3,84.66273456539263,
90,180,180,180,0,-168,0,0,168,0,f,present,resp,freq_bottom,,,,,0,29,29,860,,,0.9189156268921195,,,,,,,,,,525.7725906592023,None,525.7725906592023,None,f,1,1.4507960868224927,None,None,001,001,2,32,m,2021_Nov_08_0830,eye_tracking_exp,2021.2.3,84.66273456539263,
0,0,180,-168,0,0,270,180,180,-168,f,present,resp,freq_bottom,,,,,0,30,30,821,,,0.784502477335294,,,,,,,,,,528.0671626225615,None,528.0671626225615,None,f,1,1.108351681886461,None,None,001,001,2,32,m,2021_Nov_08_0830,eye_tracking_exp,2021.2.3,84.66273456539263,
0,180,-168,0,0,0,0,180,12,0,None,abs,inhibit,freq_bottom,,,,,0,31,31,451,,,1.0264367700375352,,,,,,,,,,530.5144894442351,None,530.5144894442351,None,None,1,,None,None,001,001,2,32,m,2021_Nov_08_0830,eye_tracking_exp,2021.2.3,84.66273456539263,
0,180,-168,0,0,0,12,180,180,180,None,abs,inhibit,freq_bottom,,,,,0,32,32,453,,,0.9696468147110593,,,,,,,,,,534.5152624761956,None,534.5152624761956,None,None,1,,None,None,001,001,2,32,m,2021_Nov_08_0830,eye_tracking_exp,2021.2.3,84.66273456539263,
0,-168,0,0,0,180,0,-168,0,0,f,abs,resp,freq_bottom,,,,,0,33,33,331,,,0.9643726528617639,,,,,,,,,,538.4819822579959,None,538.4819822579959,None,f,1,0.9657856926969544,None,None,001,001,2,32,m,2021_Nov_08_0830,eye_tracking_exp,2021.2.3,84.66273456539263,
-168,0,0,0,0,0,270,0,168,0,f,present,resp,freq_bottom,,,,,0,34,34,854,,,0.9306901216615954,,,,,,,,,,540.4250794387685,None,540.4250794387685,None,f,1,1.885601360343344,None,None,001,001,2,32,m,2021_Nov_08_0830,eye_tracking_exp,2021.2.3,84.66273456539263,
180,-168,180,180,180,180,0,180,0,-168,f,abs,resp,freq_bottom,,,,,0,35,35,287,,,1.0575430191532056,,,,,,,,,,543.6710128710879,None,543.6710128710879,None,f,1,0.9116164062438656,None,None,001,001,2,32,m,2021_Nov_08_0830,eye_tracking_exp,2021.2.3,84.66273456539263,
0,-168,180,180,180,168,0,90,180,180,f,present,resp,freq_bottom,,,,,0,36,36,881,,,0.9370073729861005,,,,,,,,,,545.659389923539,None,545.659389923539,None,f,1,1.4673216447199593,None,None,001,001,2,32,m,2021_Nov_08_0830,eye_tracking_exp,2021.2.3,84.66273456539263,
180,180,0,12,0,180,0,168,180,180,None,abs,inhibit,freq_bottom,,,,,0,37,37,473,,,0.7578474804717878,,,,,,,,,,548.2126067295737,None,548.2126067295737,None,None,1,,None,None,001,001,2,32,m,2021_Nov_08_0830,eye_tracking_exp,2021.2.3,84.66273456539263,
0,0,0,0,0,0,168,0,0,-168,f,abs,resp,freq_bottom,,,,,0,38,38,362,,,1.0973901106092674,,,,,,,,,,552.780330637934,None,552.780330637934,None,f,1,1.4334926674011967,None,None,001,001,2,32,m,2021_Nov_08_0830,eye_tracking_exp,2021.2.3,84.66273456539263,
180,-12,180,0,0,180,180,-12,180,0,j,abs,resp,freq_bottom,,,,,0,39,39,95,,,1.0967273849790806,,,,,,,,,,555.3676483860656,None,555.3676483860656,None,j,1,0.7981932088255235,None,None,001,001,2,32,m,2021_Nov_08_0830,eye_tracking_exp,2021.2.3,84.66273456539263,
12,0,12,0,0,0,0,0,270,0,j,present,resp,freq_bottom,,,,,0,40,40,518,,,0.8958956498821594,,,,,,,,,,557.6270427165812,None,557.6270427165812,None,j,1,1.0988039372775802,None,None,001,001,2,32,m,2021_Nov_08_0830,eye_tracking_exp,2021.2.3,84.66273456539263,
180,12,180,0,180,0,180,0,180,168,None,abs,inhibit,freq_bottom,,,,,0,41,41,427,,,1.0985794498053751,,,,,,,,,,559.9583057771538,None,559.9583057771538,None,None,1,,None,None,001,001,2,32,m,2021_Nov_08_0830,eye_tracking_exp,2021.2.3,84.66273456539263,
180,0,180,90,180,-168,0,168,180,0,f,present,resp,freq_bottom,,,,,0,42,42,917,,,0.7061780527318334,,,,,,,,,,573.7354911620503,None,573.7354911620503,None,f,1,1.6935984529463894,None,None,001,001,2,32,m,2021_Nov_08_0830,eye_tracking_exp,2021.2.3,84.66273456539263,
0,-168,0,180,-168,90,0,180,0,0,f,present,resp,freq_bottom,,,,,0,43,43,827,,,0.7068843784235119,,,,,,,,,,576.2542765027563,None,576.2542765027563,None,f,1,0.790841104388619,None,None,001,001,2,32,m,2021_Nov_08_0830,eye_tracking_exp,2021.2.3,84.66273456539263,
180,0,0,180,180,180,270,180,168,180,f,present,resp,freq_bottom,,,,,0,44,44,719,,,1.0132595613839284,,,,,,,,,,578.4665279575868,None,578.4665279575868,None,None,0,,581.4441048993203,None,001,001,2,32,m,2021_Nov_08_0830,eye_tracking_exp,2021.2.3,84.66273456539263,
180,180,180,168,0,0,0,12,0,180,None,abs,inhibit,freq_bottom,,,,,0,45,45,459,,,0.9501166237267729,,,,,,,,,,583.714720719943,None,583.714720719943,None,None,1,,None,None,001,001,2,32,m,2021_Nov_08_0830,eye_tracking_exp,2021.2.3,84.66273456539263,
168,0,168,0,0,0,0,0,0,0,f,abs,resp,freq_bottom,,,,,0,46,46,224,,,0.7466138235303004,,,,,,,,,,587.4690788725022,None,587.4690788725022,None,f,1,1.1272319536944906,None,None,001,001,2,32,m,2021_Nov_08_0830,eye_tracking_exp,2021.2.3,84.66273456539263,
0,0,-168,0,-168,180,270,0,0,0,f,present,resp,freq_bottom,,,,,0,47,47,812,,,0.7870700343953063,,,,,,,,,,589.6821613140517,None,589.6821613140517,None,f,1,0.7861301673294747,None,None,001,001,2,32,m,2021_Nov_08_0830,eye_tracking_exp,2021.2.3,84.66273456539263,
0,-12,0,180,-12,0,0,180,90,0,j,present,resp,freq_bottom,,,,,0,48,48,617,,,0.7074277882851279,,,,,,,,,,591.5763549415035,None,591.5763549415035,None,j,1,0.7959867021361333,None,None,001,001,2,32,m,2021_Nov_08_0830,eye_tracking_exp,2021.2.3,84.66273456539263,
12,180,180,12,180,180,180,90,180,180,j,present,resp,freq_bottom,,,,,0,49,49,519,,,0.7552319387155222,,,,,,,,,,593.3885486226841,None,593.3885486226841,None,j,1,0.7757942983748762,None,None,001,001,2,32,m,2021_Nov_08_0830,eye_tracking_exp,2021.2.3,84.66273456539263,
180,180,270,0,0,0,168,0,0,168,f,present,resp,freq_bottom,,,,,0,50,50,726,,,0.7905666361778583,,,,,,,,,,595.3656510598325,None,595.3656510598325,None,f,1,0.7668004442959955,None,None,001,001,2,32,m,2021_Nov_08_0830,eye_tracking_exp,2021.2.3,84.66273456539263,
0,-12,0,180,0,90,180,0,12,180,j,present,resp,freq_bottom,,,,,0,51,51,645,,,1.0570550752274483,,,,,,,,,,597.5208466586516,None,597.5208466586516,None,j,1,0.9796145432399044,None,None,001,001,2,32,m,2021_Nov_08_0830,eye_tracking_exp,2021.2.3,84.66273456539263,
-168,0,0,0,0,0,0,-168,0,0,f,abs,resp,freq_bottom,,,,,0,52,52,298,,,0.8900807875802208,,,,,,,,,,599.6606386674753,None,599.6606386674753,None,f,1,0.6948290860204906,None,None,001,001,2,32,m,2021_Nov_08_0830,eye_tracking_exp,2021.2.3,84.66273456539263,
180,0,12,180,180,270,180,12,180,180,j,present,resp,freq_bottom,,,,,0,53,53,536,,,0.9561297833256934,,,,,,,,,,601.837495762813,None,601.837495762813,None,j,1,1.1099683781694694,None,None,001,001,2,32,m,2021_Nov_08_0830,eye_tracking_exp,2021.2.3,84.66273456539263,
180,0,180,-168,180,180,180,0,-168,180,f,abs,resp,freq_bottom,,,,,0,54,54,318,,,0.9333252140698541,,,,,,,,,,604.2143894420919,None,604.2143894420919,None,f,1,0.7491139801429654,None,None,001,001,2,32,m,2021_Nov_08_0830,eye_tracking_exp,2021.2.3,84.66273456539263,
180,180,-168,0,168,90,180,0,180,0,f,present,resp,freq_bottom,,,,,0,55,55,896,,,1.0785379948691545,,,,,,,,,,606.3675333820918,None,606.3675333820918,None,f,1,1.0759848548279933,None,None,001,001,2,32,m,2021_Nov_08_0830,eye_tracking_exp,2021.2.3,84.66273456539263,
270,180,180,0,180,180,12,180,-168,180,None,present,inhibit,freq_bottom,,,,,0,56,56,929,,,0.7730522587190616,,,,,,,,,,608.7563476307521,None,608.7563476307521,None,None,1,,None,None,001,001,2,32,m,2021_Nov_08_0830,eye_tracking_exp,2021.2.3,84.66273456539263,
0,180,0,168,180,180,168,0,270,180,f,present,resp,freq_bottom,,,,,0,57,57,754,,,1.0222540449482571,,,,,,,,,,612.7700098613643,None,612.7700098613643,None,f,1,1.0729207988219969,None,None,001,001,2,32,m,2021_Nov_08_0830,eye_tracking_exp,2021.2.3,84.66273456539263,
180,12,180,0,180,180,180,12,180,180,j,abs,resp,freq_bottom,,,,,0,58,58,25,,,0.7201704840518632,,,,,,,,,,615.0174241585014,None,615.0174241585014,None,j,1,0.7452850420643244,None,None,001,001,2,32,m,2021_Nov_08_0830,eye_tracking_exp,2021.2.3,84.66273456539263,
12,180,180,0,12,180,0,0,180,180,j,abs,resp,freq_bottom,,,,,0,59,59,44,,,0.8437786770556546,,,,,,,,,,616.9472430589367,None,616.9472430589367,None,j,1,0.6554162280933724,None,None,001,001,2,32,m,2021_Nov_08_0830,eye_tracking_exp,2021.2.3,84.66273456539263,
180,12,180,180,180,-12,0,0,180,180,j,abs,resp,freq_bottom,,,,,0,60,60,207,,,0.9814001974037769,,,,,,,,,,618.7476571336119,None,618.7476571336119,None,j,1,0.8550622211103018,None,None,001,001,2,32,m,2021_Nov_08_0830,eye_tracking_exp,2021.2.3,84.66273456539263,
0,180,180,0,12,180,270,0,12,180,j,present,resp,freq_bottom,,,,,0,61,61,550,,,0.8930547586219733,,,,,,,,,,620.7361941653444,None,620.7361941653444,None,j,1,0.8825572262855985,None,None,001,001,2,32,m,2021_Nov_08_0830,eye_tracking_exp,2021.2.3,84.66273456539263,
180,180,168,180,180,0,180,168,180,90,f,present,resp,freq_bottom,,,,,0,62,62,766,,,0.8686529445923963,,,,,,,,,,622.8188337268925,None,622.8188337268925,None,f,1,1.023949027920935,None,None,001,001,2,32,m,2021_Nov_08_0830,eye_tracking_exp,2021.2.3,84.66273456539263,
0,-168,180,180,180,90,0,0,168,0,f,present,resp,freq_bottom,,,,,0,63,63,878,,,0.7112239212141,,,,,,,,,,624.8547131556397,None,624.8547131556397,None,f,1,1.0841332334985054,None,None,001,001,2,32,m,2021_Nov_08_0830,eye_tracking_exp,2021.2.3,84.66273456539263,
180,180,180,180,180,168,180,90,180,-168,f,present,resp,freq_bottom,,,,,0,64,64,867,,,0.8369275665857303,,,,,,,,,,627.1139915766382,None,627.1139915766382,None,f,1,1.128891814198596,None,None,001,001,2,32,m,2021_Nov_08_0830,eye_tracking_exp,2021.2.3,84.66273456539263,
180,180,0,-168,0,-168,0,180,0,180,f,abs,resp,freq_bottom,,,,,0,65,65,321,,,1.0011360263965903,,,,,,,,,,629.6438197136131,None,629.6438197136131,None,f,1,0.9669988186046794,None,None,001,001,2,32,m,2021_Nov_08_0830,eye_tracking_exp,2021.2.3,84.66273456539263,
-168,180,0,0,0,0,-168,0,0,270,f,present,resp,freq_bottom,,,,,0,66,66,842,,,1.0727776829766127,,,,,,,,,,632.1029035032143,None,632.1029035032143,None,f,1,1.06700156541865,None,None,001,001,2,32,m,2021_Nov_08_0830,eye_tracking_exp,2021.2.3,84.66273456539263,
-168,180,180,0,0,180,-168,180,0,90,f,present,resp,freq_bottom,,,,,0,67,67,803,,,0.7204500989088314,,,,,,,,,,634.1975212870545,None,634.1975212870545,None,f,1,0.8124144613786939,None,None,001,001,2,32,m,2021_Nov_08_0830,eye_tracking_exp,2021.2.3,84.66273456539263,
168,180,180,180,180,180,168,180,270,180,f,present,resp,freq_bottom,,,,,0,68,68,733,,,0.7183686170583258,,,,,,,,,,636.0330553416629,None,636.0330553416629,None,f,1,0.7529969489598898,None,None,001,001,2,32,m,2021_Nov_08_0830,eye_tracking_exp,2021.2.3,84.66273456539263,
0,12,0,0,12,0,0,0,270,0,j,present,resp,freq_bottom,,,,,0,69,69,526,,,0.9198907784437019,,,,,,,,,,638.2218085567183,None,638.2218085567183,None,j,1,0.8682580970255458,None,None,001,001,2,32,m,2021_Nov_08_0830,eye_tracking_exp,2021.2.3,84.66273456539263,
180,180,180,12,180,270,180,180,-168,180,None,present,inhibit,freq_bottom,,,,,0,70,70,927,,,0.8562875838760654,,,,,,,,,,640.2119755660324,None,640.2119755660324,None,f,0,1.1500926911264742,641.3759576495604,None,001,001,2,32,m,2021_Nov_08_0830,eye_tracking_exp,2021.2.3,84.66273456539263,
180,0,0,0,168,180,180,-168,180,0,f,abs,resp,freq_bottom,,,,,0,71,71,404,,,0.7408265796876904,,,,,,,,,,643.7170693968992,None,643.7170693968992,None,f,1,1.085020665737602,None,None,001,001,2,32,m,2021_Nov_08_0830,eye_tracking_exp,2021.2.3,84.66273456539263,
-168,180,0,0,180,0,180,-168,180,90,f,present,resp,freq_bottom,,,,,0,72,72,834,,,0.8009279668629683,,,,,,,,,,645.6704333235032,None,645.6704333235032,None,f,1,1.0667941960484768,None,None,001,001,2,32,m,2021_Nov_08_0830,eye_tracking_exp,2021.2.3,84.66273456539263,
0,0,0,-12,0,12,0,180,0,0,j,abs,resp,freq_bottom,,,,,0,73,73,181,,,1.0370322179903906,,,,,,,,,,647.9412432321974,None,647.9412432321974,None,j,1,0.9558784474768345,None,None,001,001,2,32,m,2021_Nov_08_0830,eye_tracking_exp,2021.2.3,84.66273456539263,
180,180,180,0,270,0,-12,0,0,-12,j,present,resp,freq_bottom,,,,,0,74,74,586,,,0.7840769301207828,,,,,,,,,,649.8237668238589,None,649.8237668238589,None,j,1,1.0573756422552378,None,None,001,001,2,32,m,2021_Nov_08_0830,eye_tracking_exp,2021.2.3,84.66273456539263,
12,0,0,0,0,-12,0,0,0,0,j,abs,resp,freq_bottom,,,,,0,75,75,160,,,0.7645514641160178,,,,,,,,,,651.7886085092678,None,651.7886085092678,None,j,1,0.7248436139504975,None,None,001,001,2,32,m,2021_Nov_08_0830,eye_tracking_exp,2021.2.3,84.66273456539263,
0,180,168,180,180,270,180,-168,0,180,f,present,resp,freq_bottom,,,,,0,76,76,906,,,0.9211746032647543,,,,,,,,,,653.8122996297234,None,653.8122996297234,None,f,1,1.5649231930781298,None,None,001,001,2,32,m,2021_Nov_08_0830,eye_tracking_exp,2021.2.3,84.66273456539263,
180,180,168,180,180,180,180,-168,0,0,f,abs,resp,freq_bottom,,,,,0,77,77,382,,,0.7709547557754685,,,,,,,,,,656.3893473116991,None,656.3893473116991,None,f,1,1.0364180545739146,None,None,001,001,2,32,m,2021_Nov_08_0830,eye_tracking_exp,2021.2.3,84.66273456539263,
180,180,12,0,-168,180,270,0,180,180,None,present,inhibit,freq_bottom,,,,,0,78,78,966,,,1.0072673913038164,,,,,,,,,,658.4957416835678,None,658.4957416835678,None,None,1,,None,None,001,001,2,32,m,2021_Nov_08_0830,eye_tracking_exp,2021.2.3,84.66273456539263,
0,0,270,0,0,-168,0,0,-168,0,f,present,resp,freq_bottom,,,,,0,79,79,790,,,0.9344896375749777,,,,,,,,,,662.4978531082315,None,662.4978531082315,None,f,1,1.006459066620664,None,None,001,001,2,32,m,2021_Nov_08_0830,eye_tracking_exp,2021.2.3,84.66273456539263,
0,0,180,0,0,0,168,0,-168,180,f,abs,resp,freq_bottom,,,,,0,80,80,406,,,0.7259800130183027,,,,,,,,,,664.5568130195365,None,664.5568130195365,None,f,1,1.2356188222329365,None,None,001,001,2,32,m,2021_Nov_08_0830,eye_tracking_exp,2021.2.3,84.66273456539263,
0,180,0,180,180,-12,0,180,0,-12,j,abs,resp,freq_bottom,,,,,0,81,81,83,,,0.8772080342300599,,,,,,,,,,666.9826706216766,None,666.9826706216766,None,j,1,0.793761782736965,None,None,001,001,2,32,m,2021_Nov_08_0830,eye_tracking_exp,2021.2.3,84.66273456539263,
180,-12,180,180,180,180,270,180,180,-12,j,present,resp,freq_bottom,,,,,0,82,82,597,,,0.7390893551125115,,,,,,,,,,668.8874304278781,None,668.8874304278781,None,j,1,1.2409817503246359,None,None,001,001,2,32,m,2021_Nov_08_0830,eye_tracking_exp,2021.2.3,84.66273456539263,
0,168,0,0,168,0,0,90,0,0,f,present,resp,freq_bottom,,,,,0,83,83,736,,,0.8478654114318203,,,,,,,,,,682.6527139579509,None,682.6527139579509,None,f,1,1.3629249009322848,None,None,001,001,2,32,m,2021_Nov_08_0830,eye_tracking_exp,2021.2.3,84.66273456539263,
180,180,0,12,0,180,0,12,180,180,j,abs,resp,freq_bottom,,,,,0,84,84,53,,,1.0023339233373227,,,,,,,,,,685.0649579269584,None,685.0649579269584,None,j,1,0.9826571680591769,None,None,001,001,2,32,m,2021_Nov_08_0830,eye_tracking_exp,2021.2.3,84.66273456539263,
180,-12,0,180,0,-12,0,0,90,180,j,present,resp,freq_bottom,,,,,0,85,85,641,,,0.7792848243498554,,,,,,,,,,687.1953525113277,None,687.1953525113277,None,j,1,0.9964171973263092,None,None,001,001,2,32,m,2021_Nov_08_0830,eye_tracking_exp,2021.2.3,84.66273456539263,
0,180,168,180,180,0,180,-168,0,180,f,abs,resp,freq_bottom,,,,,0,86,86,402,,,1.0926392930955768,,,,,,,,,,689.3246836862486,None,689.3246836862486,None,f,1,1.0590629708999586,None,None,001,001,2,32,m,2021_Nov_08_0830,eye_tracking_exp,2021.2.3,84.66273456539263,
180,0,12,0,0,12,180,180,90,0,j,present,resp,freq_bottom,,,,,0,87,87,572,,,0.8385666155036464,,,,,,,,,,691.5968238377582,None,691.5968238377582,None,j,1,0.8660090298103569,None,None,001,001,2,32,m,2021_Nov_08_0830,eye_tracking_exp,2021.2.3,84.66273456539263,
180,-12,0,0,12,0,0,180,180,180,j,abs,resp,freq_bottom,,,,,0,88,88,162,,,0.810143401017447,,,,,,,,,,694.8443821162482,None,694.8443821162482,None,j,1,1.0584725567982787,None,None,001,001,2,32,m,2021_Nov_08_0830,eye_tracking_exp,2021.2.3,84.66273456539263,
0,0,0,0,0,-12,0,0,-168,0,None,abs,inhibit,freq_bottom,,,,,0,89,89,496,,,1.0615742336940044,,,,,,,,,,697.3733729277023,None,697.3733729277023,None,None,1,,None,None,001,001,2,32,m,2021_Nov_08_0830,eye_tracking_exp,2021.2.3,84.66273456539263,
0,-12,180,0,180,-12,0,180,0,180,j,abs,resp,freq_bottom,,,,,0,90,90,97,,,0.7966588992520264,,,,,,,,,,701.1877384030868,None,701.1877384030868,None,j,1,0.8592138343808529,None,None,001,001,2,32,m,2021_Nov_08_0830,eye_tracking_exp,2021.2.3,84.66273456539263,
168,180,0,180,180,180,-168,180,270,180,f,present,resp,freq_bottom,,,,,0,91,91,873,,,0.7170990762600333,,,,,,,,,,703.2116495705161,None,703.2116495705161,None,f,1,1.1552844715720312,None,None,001,001,2,32,m,2021_Nov_08_0830,eye_tracking_exp,2021.2.3,84.66273456539263,
-12,0,180,0,0,0,12,0,0,0,j,abs,resp,freq_bottom,,,,,0,92,92,198,,,0.9943607728471987,,,,,,,,,,705.6943233615934,None,705.6943233615934,None,j,1,1.02461882796797,None,None,001,001,2,32,m,2021_Nov_08_0830,eye_tracking_exp,2021.2.3,84.66273456539263,
0,0,180,0,-168,180,270,0,12,180,None,present,inhibit,freq_bottom,,,,,0,93,93,970,,,0.8324936680398497,,,,,,,,,,707.6124867149281,None,707.6124867149281,None,None,1,,None,None,001,001,2,32,m,2021_Nov_08_0830,eye_tracking_exp,2021.2.3,84.66273456539263,
180,12,180,180,180,180,0,180,12,180,j,abs,resp,freq_bottom,,,,,0,94,94,1,,,1.0915672442635687,,,,,,,,,,711.7202620400258,None,711.7202620400258,None,j,1,0.9017683231729734,None,None,001,001,2,32,m,2021_Nov_08_0830,eye_tracking_exp,2021.2.3,84.66273456539263,
180,0,180,0,12,180,180,0,-12,0,j,abs,resp,freq_bottom,,,,,0,95,95,186,,,1.0566929086445915,,,,,,,,,,714.0850766798806,None,714.0850766798806,None,j,1,1.1610153520105086,None,None,001,001,2,32,m,2021_Nov_08_0830,eye_tracking_exp,2021.2.3,84.66273456539263,
-168,180,180,180,180,180,12,180,180,180,None,abs,inhibit,freq_bottom,,,,,0,96,96,439,,,0.7235753387325149,,,,,,,,,,716.2971497427202,None,716.2971497427202,None,None,1,,None,None,001,001,2,32,m,2021_Nov_08_0830,eye_tracking_exp,2021.2.3,84.66273456539263,
180,180,180,180,0,0,0,-12,0,12,j,abs,resp,freq_bottom,,,,,0,97,97,189,,,0.9753818584049387,,,,,,,,,,720.27462345254,None,720.27462345254,None,j,1,1.1478119299029004,None,None,001,001,2,32,m,2021_Nov_08_0830,eye_tracking_exp,2021.2.3,84.66273456539263,
180,180,180,168,0,180,0,168,0,270,f,present,resp,freq_bottom,,,,,0,98,98,767,,,0.7754918380042966,,,,,,,,,,722.5339725059005,None,722.5339725059005,None,f,1,1.3832627952851908,None,None,001,001,2,32,m,2021_Nov_08_0830,eye_tracking_exp,2021.2.3,84.66273456539263,
12,180,180,12,180,180,0,180,0,180,j,abs,resp,freq_bottom,,,,,0,99,99,15,,,1.0340243463019914,,,,,,,,,,725.0773590378785,None,725.0773590378785,None,j,1,0.7919051175322238,None,None,001,001,2,32,m,2021_Nov_08_0830,eye_tracking_exp,2021.2.3,84.66273456539263,
180,168,180,180,180,0,180,0,180,168,f,abs,resp,freq_bottom,,,,,0,100,100,233,,,0.774934304505457,,,,,,,,,,726.9940768425765,None,726.9940768425765,None,f,1,0.9233984275308558,None,None,001,001,2,32,m,2021_Nov_08_0830,eye_tracking_exp,2021.2.3,84.66273456539263,
0,180,0,-168,180,90,180,0,0,-168,f,present,resp,freq_bottom,,,,,0,101,101,793,,,1.066658069810758,,,,,,,,,,729.0533008706193,None,729.0533008706193,None,f,1,0.9280000957221546,None,None,001,001,2,32,m,2021_Nov_08_0830,eye_tracking_exp,2021.2.3,84.66273456539263,
0,12,0,0,0,180,0,-12,0,90,j,present,resp,freq_bottom,,,,,0,102,102,695,,,0.7304722960788406,,,,,,,,,,730.8420473242861,None,730.8420473242861,None,j,1,1.2192810136050412,None,None,001,001,2,32,m,2021_Nov_08_0830,eye_tracking_exp,2021.2.3,84.66273456539263,
-168,0,0,0,0,0,90,0,-168,0,f,present,resp,freq_bottom,,,,,0,103,103,784,,,0.7010776775049218,,,,,,,,,,733.0423534582239,None,733.0423534582239,None,f,1,1.3710141174535693,None,None,001,001,2,32,m,2021_Nov_08_0830,eye_tracking_exp,2021.2.3,84.66273456539263,
0,12,180,180,180,0,90,180,12,0,j,present,resp,freq_bottom,,,,,0,104,104,528,,,1.0746369106537959,,,,,,,,,,735.6665726914159,None,735.6665726914159,None,j,1,0.9555433965294924,None,None,001,001,2,32,m,2021_Nov_08_0830,eye_tracking_exp,2021.2.3,84.66273456539263,
0,0,0,180,180,180,-168,180,180,-168,f,abs,resp,freq_bottom,,,,,0,105,105,337,,,0.7648317701868548,,,,,,,,,,737.9849688900667,None,737.9849688900667,None,f,1,0.8286396808146037,None,None,001,001,2,32,m,2021_Nov_08_0830,eye_tracking_exp,2021.2.3,84.66273456539263,
180,-12,180,0,180,90,180,180,-168,0,None,present,inhibit,freq_bottom,,,,,0,106,106,995,,,0.9147928828698888,,,,,,,,,,739.9160827171365,None,739.9160827171365,None,None,1,,None,None,001,001,2,32,m,2021_Nov_08_0830,eye_tracking_exp,2021.2.3,84.66273456539263,
180,0,180,0,180,-12,0,-12,180,0,j,abs,resp,freq_bottom,,,,,0,107,107,133,,,0.9648594737940539,,,,,,,,,,743.8921890568738,None,743.8921890568738,None,j,1,0.8244436959323593,None,None,001,001,2,32,m,2021_Nov_08_0830,eye_tracking_exp,2021.2.3,84.66273456539263,
0,180,180,180,0,12,0,-12,0,0,j,abs,resp,freq_bottom,,,,,0,108,108,195,,,0.9858155437554013,,,,,,,,,,745.7985824628297,None,745.7985824628297,None,j,1,0.7580021875269267,None,None,001,001,2,32,m,2021_Nov_08_0830,eye_tracking_exp,2021.2.3,84.66273456539263,
180,180,180,12,180,180,0,180,0,12,j,abs,resp,freq_bottom,,,,,0,109,109,9,,,0.8883818372221607,,,,,,,,,,747.7635071563564,None,747.7635071563564,None,j,1,0.6647025725940239,None,None,001,001,2,32,m,2021_Nov_08_0830,eye_tracking_exp,2021.2.3,84.66273456539263,
-168,0,12,0,0,0,0,0,0,0,None,abs,inhibit,freq_bottom,,,,,0,110,110,434,,,0.9689869799416615,,,,,,,,,,749.7049058401192,None,749.7049058401192,None,f,0,0.7396975392834975,750.4698694116294,None,001,001,2,32,m,2021_Nov_08_0830,eye_tracking_exp,2021.2.3,84.66273456539263,
180,0,180,12,180,90,180,180,180,-12,j,present,resp,freq_bottom,,,,,0,111,111,653,,,0.7649317380375136,,,,,,,,,,753.5877249406794,None,753.5877249406794,None,j,1,1.063996067866583,None,None,001,001,2,32,m,2021_Nov_08_0830,eye_tracking_exp,2021.2.3,84.66273456539263,
168,0,0,0,-168,0,0,0,0,0,f,abs,resp,freq_bottom,,,,,0,112,112,366,,,0.7760014559513599,,,,,,,,,,755.7645219683247,None,755.7645219683247,None,f,1,0.7431983689118624,None,None,001,001,2,32,m,2021_Nov_08_0830,eye_tracking_exp,2021.2.3,84.66273456539263,
-12,180,180,0,12,180,0,0,180,180,j,abs,resp,freq_bottom,,,,,0,113,113,184,,,0.8191525311804468,,,,,,,,,,757.4838633728643,None,757.4838633728643,None,j,1,1.2334772127990163,None,None,001,001,2,32,m,2021_Nov_08_0830,eye_tracking_exp,2021.2.3,84.66273456539263,
0,0,0,-168,0,180,0,-168,0,0,f,abs,resp,freq_bottom,,,,,0,114,114,333,,,0.8618661989142207,,,,,,,,,,760.0833329057159,None,760.0833329057159,None,f,1,1.208455245832738,None,None,001,001,2,32,m,2021_Nov_08_0830,eye_tracking_exp,2021.2.3,84.66273456539263,
0,0,180,180,180,90,180,168,180,168,f,present,resp,freq_bottom,,,,,0,115,115,725,,,1.0561556048903993,,,,,,,,,,762.542595087308,None,762.542595087308,None,f,1,2.7966338636056207,None,None,001,001,2,32,m,2021_Nov_08_0830,eye_tracking_exp,2021.2.3,84.66273456539263,
0,0,0,180,180,180,168,180,180,-168,f,abs,resp,freq_bottom,,,,,0,116,116,407,,,0.7811659065525937,,,,,,,,,,766.5571634647167,None,766.5571634647167,None,f,1,0.86271073998887,None,None,001,001,2,32,m,2021_Nov_08_0830,eye_tracking_exp,2021.2.3,84.66273456539263,
180,180,0,180,180,12,0,12,0,270,j,present,resp,freq_bottom,,,,,0,117,117,559,,,0.9569798202706052,,,,,,,,,,768.6853986306378,None,768.6853986306378,None,j,1,1.5975191225411436,None,None,001,001,2,32,m,2021_Nov_08_0830,eye_tracking_exp,2021.2.3,84.66273456539263,
180,168,180,180,180,180,180,270,180,-168,f,present,resp,freq_bottom,,,,,0,118,118,861,,,0.8725991301440809,,,,,,,,,,771.6739570935567,None,771.6739570935567,None,f,1,2.033046113913315,None,None,001,001,2,32,m,2021_Nov_08_0830,eye_tracking_exp,2021.2.3,84.66273456539263,
0,12,0,0,12,0,0,0,0,0,j,abs,resp,freq_bottom,,,,,0,119,119,22,,,0.9095193683208926,,,,,,,,,,774.8752855856555,None,774.8752855856555,None,j,1,0.943671424627837,None,None,001,001,2,32,m,2021_Nov_08_0830,eye_tracking_exp,2021.2.3,84.66273456539263,
168,0,180,0,180,90,180,180,-168,180,f,present,resp,freq_bottom,,,,,0,120,120,871,,,0.8076369806680148,,,,,,,,,,777.004743234763,None,777.004743234763,None,f,1,1.2942424751997805,None,None,001,001,2,32,m,2021_Nov_08_0830,eye_tracking_exp,2021.2.3,84.66273456539263,
0,0,168,0,0,0,168,0,270,0,f,present,resp,freq_bottom,,,,,0,121,121,774,,,0.8388887131547906,,,,,,,,,,779.3250217556731,None,779.3250217556731,None,f,1,1.470198253304261,None,None,001,001,2,32,m,2021_Nov_08_0830,eye_tracking_exp,2021.2.3,84.66273456539263,
0,12,0,180,-168,0,0,180,0,0,None,abs,inhibit,freq_bottom,,,,,0,122,122,463,,,0.858529084741354,,,,,,,,,,782.0311204979039,None,782.0311204979039,None,None,1,,None,None,001,001,2,32,m,2021_Nov_08_0830,eye_tracking_exp,2021.2.3,84.66273456539263,
180,180,0,180,180,12,0,12,180,270,j,present,resp,freq_bottom,,,,,0,123,123,567,,,1.0382050162642436,,,,,,,,,,786.3503947715149,None,786.3503947715149,None,j,1,1.0837686014765495,None,None,001,001,2,32,m,2021_Nov_08_0830,eye_tracking_exp,2021.2.3,84.66273456539263,
180,168,180,0,180,180,180,180,168,180,f,abs,resp,freq_bottom,,,,,0,124,124,211,,,0.7646075017157563,,,,,,,,,,788.36251305114,None,788.36251305114,None,f,1,0.7997139175397479,None,None,001,001,2,32,m,2021_Nov_08_0830,eye_tracking_exp,2021.2.3,84.66273456539263,
180,180,180,168,180,90,180,0,0,168,f,present,resp,freq_bottom,,,,,0,125,125,723,,,0.8072501812466432,,,,,,,,,,797.1393395391208,None,797.1393395391208,None,f,1,1.2069592886298324,None,None,001,001,2,32,m,2021_Nov_08_0830,eye_tracking_exp,2021.2.3,84.66273456539263,
180,180,0,0,180,180,-168,180,180,12,None,abs,inhibit,freq_bottom,,,,,0,126,126,477,,,0.7150810071381508,,,,,,,,,,799.5412114174496,None,799.5412114174496,None,None,1,,None,None,001,001,2,32,m,2021_Nov_08_0830,eye_tracking_exp,2021.2.3,84.66273456539263,
180,-12,180,0,180,12,0,0,180,0,j,abs,resp,freq_bottom,,,,,0,127,127,167,,,0.7792265473584639,,,,,,,,,,803.3411742298131,None,803.3411742298131,None,j,1,1.2761898697863217,None,None,001,001,2,32,m,2021_Nov_08_0830,eye_tracking_exp,2021.2.3,84.66273456539263,
0,180,180,0,0,0,-168,0,12,180,None,abs,inhibit,freq_bottom,,,,,0,128,128,476,,,0.7100649609351399,,,,,,,,,,805.5894174007351,None,805.5894174007351,None,None,1,,None,None,001,001,2,32,m,2021_Nov_08_0830,eye_tracking_exp,2021.2.3,84.66273456539263,
180,12,0,12,0,0,0,180,270,180,j,present,resp,freq_bottom,,,,,0,129,129,539,,,0.7399653321162205,,,,,,,,,,809.9426262983602,None,809.9426262983602,None,j,1,1.18652933072849,None,None,001,001,2,32,m,2021_Nov_08_0830,eye_tracking_exp,2021.2.3,84.66273456539263,
180,0,168,180,180,168,0,180,180,180,f,abs,resp,freq_bottom,,,,,0,130,130,244,,,0.7551619502596092,,,,,,,,,,812.3546124894317,None,812.3546124894317,None,f,1,1.174925701432585,None,None,001,001,2,32,m,2021_Nov_08_0830,eye_tracking_exp,2021.2.3,84.66273456539263,
-12,0,0,0,0,-12,0,90,0,0,j,present,resp,freq_bottom,,,,,0,131,131,594,,,0.9861685154713267,,,,,,,,,,814.7556714919035,None,814.7556714919035,None,j,1,0.8538397379238631,None,None,001,001,2,32,m,2021_Nov_08_0830,eye_tracking_exp,2021.2.3,84.66273456539263,
0,12,180,0,0,270,180,12,180,180,j,present,resp,freq_bottom,,,,,0,132,132,529,,,0.8817713640070713,,,,,,,,,,817.0964919562116,None,817.0964919562116,None,j,1,1.440081700851806,None,None,001,001,2,32,m,2021_Nov_08_0830,eye_tracking_exp,2021.2.3,84.66273456539263,
168,0,0,0,0,168,180,180,0,0,f,abs,resp,freq_bottom,,,,,0,133,133,276,,,0.723078295893121,,,,,,,,,,819.7436491998471,None,819.7436491998471,None,f,1,1.3381881800428346,None,None,001,001,2,32,m,2021_Nov_08_0830,eye_tracking_exp,2021.2.3,84.66273456539263,
0,168,0,0,0,0,168,0,0,0,f,abs,resp,freq_bottom,,,,,0,134,134,236,,,1.0620558913837772,,,,,,,,,,822.5678437418974,None,822.5678437418974,None,f,1,0.9288383267860354,None,None,001,001,2,32,m,2021_Nov_08_0830,eye_tracking_exp,2021.2.3,84.66273456539263,
0,0,270,0,0,0,-168,0,0,-168,f,present,resp,freq_bottom,,,,,0,135,135,796,,,0.7226296016360839,,,,,,,,,,824.5215647543307,None,824.5215647543307,None,f,1,0.7351701256261549,None,None,001,001,2,32,m,2021_Nov_08_0830,eye_tracking_exp,2021.2.3,84.66273456539263,
-168,0,180,0,180,180,180,180,-168,180,f,abs,resp,freq_bottom,,,,,0,136,136,297,,,0.8442241713527765,,,,,,,,,,826.5570867954007,None,826.5570867954007,None,f,1,1.2595604762798303,None,None,001,001,2,32,m,2021_Nov_08_0830,eye_tracking_exp,2021.2.3,84.66273456539263,
12,0,180,0,180,180,-12,180,90,180,j,present,resp,freq_bottom,,,,,0,137,137,663,,,0.7640530535535885,,,,,,,,,,828.8882040635342,None,828.8882040635342,None,j,1,0.8338794550445527,None,None,001,001,2,32,m,2021_Nov_08_0830,eye_tracking_exp,2021.2.3,84.66273456539263,
0,0,0,0,0,168,0,0,168,0,f,abs,resp,freq_bottom,,,,,0,138,138,216,,,1.0401837340399473,,,,,,,,,,831.0869958275593,None,831.0869958275593,None,f,1,1.0018290247453479,None,None,001,001,2,32,m,2021_Nov_08_0830,eye_tracking_exp,2021.2.3,84.66273456539263,
180,0,180,0,180,12,180,90,0,168,None,present,inhibit,freq_bottom,,,,,0,139,139,937,,,0.9896171278291503,,,,,,,,,,833.4756772632315,None,833.4756772632315,None,None,1,,None,None,001,001,2,32,m,2021_Nov_08_0830,eye_tracking_exp,2021.2.3,84.66273456539263,
180,180,168,0,270,0,0,180,-168,180,f,present,resp,freq_bottom,,,,,0,140,140,885,,,0.9287435167155245,,,,,,,,,,837.442223482604,None,837.442223482604,None,f,1,1.574162751185213,None,None,001,001,2,32,m,2021_Nov_08_0830,eye_tracking_exp,2021.2.3,84.66273456539263,
180,0,180,-168,180,180,180,0,180,-168,f,abs,resp,freq_bottom,,,,,0,141,141,289,,,1.0287910965267664,,,,,,,,,,840.3509024793468,None,840.3509024793468,None,f,1,0.9530914876597762,None,None,001,001,2,32,m,2021_Nov_08_0830,eye_tracking_exp,2021.2.3,84.66273456539263,
180,180,180,12,0,270,0,168,0,180,None,present,inhibit,freq_bottom,,,,,0,142,142,977,,,1.0752922740971802,,,,,,,,,,842.6578960792701,None,842.6578960792701,None,None,1,,None,None,001,001,2,32,m,2021_Nov_08_0830,eye_tracking_exp,2021.2.3,84.66273456539263,
0,180,0,0,-168,180,12,180,270,180,None,present,inhibit,freq_bottom,,,,,0,143,143,972,,,0.7127338797514402,,,,,,,,,,846.3870940186164,None,846.3870940186164,None,None,1,,None,None,001,001,2,32,m,2021_Nov_08_0830,eye_tracking_exp,2021.2.3,84.66273456539263,
168,0,0,0,0,-168,0,90,180,180,f,present,resp,freq_bottom,,,,,0,144,144,874,,,0.8044988027054238,,,,,,,,,,850.2008995665167,None,850.2008995665167,None,f,1,0.990469892086594,None,None,001,001,2,32,m,2021_Nov_08_0830,eye_tracking_exp,2021.2.3,84.66273456539263,
180,0,-12,0,0,270,0,180,-12,0,j,present,resp,freq_bottom,,,,,0,145,145,605,,,0.9549497654377663,,,,,,,,,,852.3769003199284,None,852.3769003199284,None,j,1,0.9582120320480954,None,None,001,001,2,32,m,2021_Nov_08_0830,eye_tracking_exp,2021.2.3,84.66273456539263,
0,-168,0,0,0,0,-168,0,0,0,f,abs,resp,freq_bottom,,,,,0,146,146,306,,,1.0600545837640696,,,,,,,,,,854.5070416540773,None,854.5070416540773,None,f,1,0.8131947376843982,None,None,001,001,2,32,m,2021_Nov_08_0830,eye_tracking_exp,2021.2.3,84.66273456539263,
180,0,180,180,180,12,0,0,180,12,j,abs,resp,freq_bottom,,,,,0,147,147,65,,,0.8236736609405128,,,,,,,,,,856.271777934269,None,856.271777934269,None,j,1,0.71134558848712,None,None,001,001,2,32,m,2021_Nov_08_0830,eye_tracking_exp,2021.2.3,84.66273456539263,
-168,180,180,0,-168,180,90,0,180,180,f,present,resp,freq_bottom,,,,,0,148,148,828,,,0.7221841467044954,,,,,,,,,,857.7664501714346,None,857.7664501714346,None,f,1,1.088753918095108,None,None,001,001,2,32,m,2021_Nov_08_0830,eye_tracking_exp,2021.2.3,84.66273456539263,
180,168,0,180,180,180,168,0,0,90,f,present,resp,freq_bottom,,,,,0,149,149,773,,,0.8001702738653529,,,,,,,,,,859.9083194961315,None,859.9083194961315,None,f,1,0.7708778030321355,None,None,001,001,2,32,m,2021_Nov_08_0830,eye_tracking_exp,2021.2.3,84.66273456539263,
0,0,-12,0,0,0,0,0,12,0,j,abs,resp,freq_bottom,,,,,0,150,150,142,,,0.7365105336038431,,,,,,,,,,861.5317074407574,None,861.5317074407574,None,j,1,0.8915045958190149,None,None,001,001,2,32,m,2021_Nov_08_0830,eye_tracking_exp,2021.2.3,84.66273456539263,
180,0,-168,0,0,0,-168,180,270,0,f,present,resp,freq_bottom,,,,,0,151,151,817,,,0.9796439102882046,,,,,,,,,,863.5672285762842,None,863.5672285762842,None,f,1,0.8550272067770948,None,None,001,001,2,32,m,2021_Nov_08_0830,eye_tracking_exp,2021.2.3,84.66273456539263,
180,0,180,0,-12,180,0,0,-12,0,j,abs,resp,freq_bottom,,,,,0,152,152,116,,,0.8474535922709239,,,,,,,,,,865.3443777394566,None,865.3443777394566,None,j,1,0.8866222092663065,None,None,001,001,2,32,m,2021_Nov_08_0830,eye_tracking_exp,2021.2.3,84.66273456539263,
180,180,180,0,0,-12,180,180,-12,0,j,abs,resp,freq_bottom,,,,,0,153,153,134,,,0.8459722007180951,,,,,,,,,,867.1212498064403,None,867.1212498064403,None,j,1,0.7887915585031351,None,None,001,001,2,32,m,2021_Nov_08_0830,eye_tracking_exp,2021.2.3,84.66273456539263,
0,180,180,180,-12,0,12,0,90,0,j,present,resp,freq_bottom,,,,,0,154,154,706,,,0.9716011059651672,,,,,,,,,,869.1688140615149,None,869.1688140615149,None,j,1,0.8854745843088949,None,None,001,001,2,32,m,2021_Nov_08_0830,eye_tracking_exp,2021.2.3,84.66273456539263,
0,-168,0,180,180,0,180,0,180,-168,f,abs,resp,freq_bottom,,,,,0,155,155,303,,,0.9590833450824143,,,,,,,,,,871.1571684753883,None,871.1571684753883,None,f,1,0.8651919280857783,None,None,001,001,2,32,m,2021_Nov_08_0830,eye_tracking_exp,2021.2.3,84.66273456539263,
180,0,180,90,0,180,-12,0,-12,180,j,present,resp,freq_bottom,,,,,0,156,156,579,,,1.070699462475084,,,,,,,,,,873.1580537946936,None,873.1580537946936,None,j,1,0.9443849925912673,None,None,001,001,2,32,m,2021_Nov_08_0830,eye_tracking_exp,2021.2.3,84.66273456539263,
180,0,180,168,180,270,180,180,168,0,f,present,resp,freq_bottom,,,,,0,157,157,717,,,0.837967815064941,,,,,,,,,,875.4065447825776,None,875.4065447825776,None,f,1,0.8719023043115612,None,None,001,001,2,32,m,2021_Nov_08_0830,eye_tracking_exp,2021.2.3,84.66273456539263,
180,-12,180,180,180,180,180,90,180,-12,j,present,resp,freq_bottom,,,,,0,158,158,581,,,0.9528205216862666,,,,,,,,,,877.5488729157794,None,877.5488729157794,None,j,1,0.8247736154687573,None,None,001,001,2,32,m,2021_Nov_08_0830,eye_tracking_exp,2021.2.3,84.66273456539263,
0,-168,0,0,-168,0,180,180,0,0,f,abs,resp,freq_bottom,,,,,0,159,159,302,,,1.006448967812922,,,,,,,,,,879.6896208762698,None,879.6896208762698,None,f,1,0.8279080019885896,None,None,001,001,2,32,m,2021_Nov_08_0830,eye_tracking_exp,2021.2.3,84.66273456539263,
-168,0,0,0,0,-168,0,0,0,0,f,abs,resp,freq_bottom,,,,,0,160,160,300,,,1.0744488169306539,,,,,,,,,,881.8671583363241,None,881.8671583363241,None,f,1,0.8743505910090335,None,None,001,001,2,32,m,2021_Nov_08_0830,eye_tracking_exp,2021.2.3,84.66273456539263,
180,180,180,0,12,0,0,0,-168,180,None,abs,inhibit,freq_bottom,,,,,0,161,161,424,,,0.9902799834104123,,,,,,,,,,883.8791404826363,None,883.8791404826363,None,None,1,,None,None,001,001,2,32,m,2021_Nov_08_0830,eye_tracking_exp,2021.2.3,84.66273456539263,
0,12,0,180,0,0,0,0,12,0,j,abs,resp,freq_bottom,,,,,0,162,162,24,,,0.8470577468572271,,,,,,,,,,887.7403258566667,None,887.7403258566667,None,j,1,0.7934714052496474,None,None,001,001,2,32,m,2021_Nov_08_0830,eye_tracking_exp,2021.2.3,84.66273456539263,
0,180,180,180,180,-12,180,180,12,0,j,abs,resp,freq_bottom,,,,,0,163,163,204,,,0.808787165292734,,,,,,,,,,889.4346818178112,None,889.4346818178112,None,j,1,0.7469554672377399,None,None,001,001,2,32,m,2021_Nov_08_0830,eye_tracking_exp,2021.2.3,84.66273456539263,
0,0,0,-168,0,0,0,168,0,0,f,abs,resp,freq_bottom,,,,,0,164,164,389,,,0.8122531853944274,,,,,,,,,,891.376539008231,None,891.376539008231,None,f,1,1.0138265652901737,None,None,001,001,2,32,m,2021_Nov_08_0830,eye_tracking_exp,2021.2.3,84.66273456539263,
180,0,180,0,-168,0,180,0,-168,0,f,abs,resp,freq_bottom,,,,,0,165,165,326,,,1.0001012683464274,,,,,,,,,,893.5771152958607,None,893.5771152958607,None,f,1,0.9076836325564273,None,None,001,001,2,32,m,2021_Nov_08_0830,eye_tracking_exp,2021.2.3,84.66273456539263,
0,0,0,0,-12,0,0,0,-168,0,None,abs,inhibit,freq_bottom,,,,,0,166,166,494,,,1.0467156322049478,,,,,,,,,,895.6600126353449,None,895.6600126353449,None,None,1,,None,None,001,001,2,32,m,2021_Nov_08_0830,eye_tracking_exp,2021.2.3,84.66273456539263,
180,180,12,0,180,0,12,180,270,180,j,present,resp,freq_bottom,,,,,0,167,167,537,,,0.9293032713107764,,,,,,,,,,914.119931637533,None,914.119931637533,None,j,1,2.1720086452562555,None,None,001,001,2,32,m,2021_Nov_08_0830,eye_tracking_exp,2021.2.3,84.66273456539263,
0,180,0,0,12,180,180,0,12,180,j,abs,resp,freq_bottom,,,,,0,168,168,46,,,1.0351571690573915,,,,,,,,,,917.3681859768201,None,917.3681859768201,None,j,1,0.6678840473553009,None,None,001,001,2,32,m,2021_Nov_08_0830,eye_tracking_exp,2021.2.3,84.66273456539263,
12,0,0,0,0,12,0,0,180,0,j,abs,resp,freq_bottom,,,,,0,169,169,20,,,1.0715920365941327,,,,,,,,,,919.8396135262785,None,919.8396135262785,None,j,1,0.7404077869221055,None,None,001,001,2,32,m,2021_Nov_08_0830,eye_tracking_exp,2021.2.3,84.66273456539263,
180,180,180,180,12,0,-168,0,90,0,None,present,inhibit,freq_bottom,,,,,0,170,170,986,,,0.8625795612791116,,,,,,,,,,922.0867637066779,None,922.0867637066779,None,None,1,,None,None,001,001,2,32,m,2021_Nov_08_0830,eye_tracking_exp,2021.2.3,84.66273456539263,
180,180,180,180,-12,0,0,0,-12,0,j,abs,resp,freq_bottom,,,,,0,171,171,74,,,0.771663987517337,,,,,,,,,,926.182437051926,None,926.182437051926,None,j,1,0.7978228416970978,None,None,001,001,2,32,m,2021_Nov_08_0830,eye_tracking_exp,2021.2.3,84.66273456539263,
0,180,180,180,0,0,0,12,0,12,j,abs,resp,freq_bottom,,,,,0,172,172,49,,,0.8894221411592187,,,,,,,,,,928.195908212944,None,928.195908212944,None,j,1,1.1519765226241816,None,None,001,001,2,32,m,2021_Nov_08_0830,eye_tracking_exp,2021.2.3,84.66273456539263,
0,0,0,168,0,0,0,180,0,168,f,abs,resp,freq_bottom,,,,,0,173,173,247,,,0.8175854693591738,,,,,,,,,,930.6773181677002,None,930.6773181677002,None,f,1,1.1025679781007511,None,None,001,001,2,32,m,2021_Nov_08_0830,eye_tracking_exp,2021.2.3,84.66273456539263,
180,168,180,168,180,0,180,0,180,180,f,abs,resp,freq_bottom,,,,,0,174,174,231,,,1.0738586758143116,,,,,,,,,,932.9252181377867,None,932.9252181377867,None,f,1,0.950012942964122,None,None,001,001,2,32,m,2021_Nov_08_0830,eye_tracking_exp,2021.2.3,84.66273456539263,
180,12,0,0,0,270,0,168,180,180,None,present,inhibit,freq_bottom,,,,,0,175,175,975,,,0.9180947823682781,,,,,,,,,,935.325678576269,None,935.325678576269,None,None,1,,None,None,001,001,2,32,m,2021_Nov_08_0830,eye_tracking_exp,2021.2.3,84.66273456539263,
12,180,180,0,-168,180,180,0,180,180,None,abs,inhibit,freq_bottom,,,,,0,176,176,464,,,1.0949030414557677,,,,,,,,,,939.8089735699134,None,939.8089735699134,None,None,1,,None,None,001,001,2,32,m,2021_Nov_08_0830,eye_tracking_exp,2021.2.3,84.66273456539263,
0,180,180,180,168,0,90,0,168,0,f,present,resp,freq_bottom,,,,,0,177,177,718,,,0.8424386177222216,,,,,,,,,,943.6591641414591,None,943.6591641414591,None,f,1,2.5032704984384964,None,None,001,001,2,32,m,2021_Nov_08_0830,eye_tracking_exp,2021.2.3,84.66273456539263,
0,180,0,0,0,0,-12,0,-12,0,j,abs,resp,freq_bottom,,,,,0,178,178,126,,,0.7211324099010781,,,,,,,,,,947.2471441434452,None,947.2471441434452,None,j,1,2.371317776240403,None,None,001,001,2,32,m,2021_Nov_08_0830,eye_tracking_exp,2021.2.3,84.66273456539263,
180,-168,0,180,0,180,0,-168,0,90,f,present,resp,freq_bottom,,,,,0,179,179,809,,,0.831924410306767,,,,,,,,,,950.8249352763071,None,950.8249352763071,None,f,1,1.0655339818997618,None,None,001,001,2,32,m,2021_Nov_08_0830,eye_tracking_exp,2021.2.3,84.66273456539263,
180,90,180,-168,180,180,168,0,180,0,f,present,resp,freq_bottom,,,,,0,180,180,894,,,0.9534446753762866,,,,,,,,,,953.1434854172851,None,953.1434854172851,None,f,1,1.2110544563799976,None,None,001,001,2,32,m,2021_Nov_08_0830,eye_tracking_exp,2021.2.3,84.66273456539263,
180,0,168,0,-168,180,180,0,0,180,f,abs,resp,freq_bottom,,,,,0,181,181,378,,,0.7251839542234739,,,,,,,,,,955.3671925960382,None,955.3671925960382,None,f,1,1.7545593126567383,None,None,001,001,2,32,m,2021_Nov_08_0830,eye_tracking_exp,2021.2.3,84.66273456539263,
180,0,180,-12,180,180,180,180,12,0,j,abs,resp,freq_bottom,,,,,0,182,182,143,,,1.0818785166824565,,,,,,,,,,958.6285803287667,None,958.6285803287667,None,j,1,1.1970589859067786,None,None,001,001,2,32,m,2021_Nov_08_0830,eye_tracking_exp,2021.2.3,84.66273456539263,
0,180,0,-168,180,180,168,0,180,180,f,abs,resp,freq_bottom,,,,,0,183,183,390,,,1.0161674491761732,,,,,,,,,,961.1805610684685,None,961.1805610684685,None,f,1,2.117136355509274,None,None,001,001,2,32,m,2021_Nov_08_0830,eye_tracking_exp,2021.2.3,84.66273456539263,
180,180,168,0,168,180,270,0,180,180,f,present,resp,freq_bottom,,,,,0,184,184,756,,,0.9244975919199978,,,,,,,,,,964.4994815765747,None,964.4994815765747,None,f,1,1.0542509148615409,None,None,001,001,2,32,m,2021_Nov_08_0830,eye_tracking_exp,2021.2.3,84.66273456539263,
168,180,180,-168,180,180,0,0,180,0,f,abs,resp,freq_bottom,,,,,0,185,185,386,,,0.8321557405900127,,,,,,,,,,966.6643773530916,None,966.6643773530916,None,f,1,0.7609044531657219,None,None,001,001,2,32,m,2021_Nov_08_0830,eye_tracking_exp,2021.2.3,84.66273456539263,
180,180,0,12,180,180,0,180,12,0,j,abs,resp,freq_bottom,,,,,0,186,186,3,,,0.9535999059690446,,,,,,,,,,968.6188321572843,None,968.6188321572843,None,j,1,1.062900964409664,None,None,001,001,2,32,m,2021_Nov_08_0830,eye_tracking_exp,2021.2.3,84.66273456539263,
0,0,0,0,0,-12,0,0,12,0,j,abs,resp,freq_bottom,,,,,0,187,187,146,,,0.9351274878316211,,,,,,,,,,970.9592891969612,None,970.9592891969612,None,j,1,1.0277480830770855,None,None,001,001,2,32,m,2021_Nov_08_0830,eye_tracking_exp,2021.2.3,84.66273456539263,
12,180,0,0,-168,180,270,0,180,180,None,present,inhibit,freq_bottom,,,,,0,188,188,968,,,0.9353163767470327,,,,,,,,,,973.2549007238006,None,973.2549007238006,None,j,0,0.7139849447787583,973.9951985086311,None,001,001,2,32,m,2021_Nov_08_0830,eye_tracking_exp,2021.2.3,84.66273456539263,
180,0,180,0,-168,180,12,180,180,0,None,abs,inhibit,freq_bottom,,,,,0,189,189,468,,,1.0953521805750248,,,,,,,,,,976.1598615605706,None,976.1598615605706,None,None,1,,None,None,001,001,2,32,m,2021_Nov_08_0830,eye_tracking_exp,2021.2.3,84.66273456539263,
180,180,12,0,0,0,180,0,12,0,j,abs,resp,freq_bottom,,,,,0,190,190,2,,,0.7661352347050367,,,,,,,,,,980.244005832905,None,980.244005832905,None,j,1,1.2449914951755545,None,None,001,001,2,32,m,2021_Nov_08_0830,eye_tracking_exp,2021.2.3,84.66273456539263,
180,180,168,0,0,-168,180,0,180,180,f,abs,resp,freq_bottom,,,,,0,191,191,418,,,0.9881938190479875,,,,,,,,,,982.5498943683972,None,982.5498943683972,None,f,1,1.3070619470329348,None,None,001,001,2,32,m,2021_Nov_08_0830,eye_tracking_exp,2021.2.3,84.66273456539263,
0,-12,0,180,180,180,-12,180,0,180,j,abs,resp,freq_bottom,,,,,0,192,192,129,,,0.8266997615415296,,,,,,,,,,985.1620698783465,None,985.1620698783465,None,j,1,0.9670108925126897,None,None,001,001,2,32,m,2021_Nov_08_0830,eye_tracking_exp,2021.2.3,84.66273456539263,
0,180,180,180,180,270,0,168,0,168,f,present,resp,freq_bottom,,,,,0,193,193,763,,,0.8337460853487125,,,,,,,,,,987.0334178607511,None,987.0334178607511,None,f,1,1.5269927092069793,None,None,001,001,2,32,m,2021_Nov_08_0830,eye_tracking_exp,2021.2.3,84.66273456539263,
90,0,168,180,180,180,180,-168,0,0,f,present,resp,freq_bottom,,,,,0,194,194,886,,,0.7488620217590336,,,,,,,,,,989.5877641808804,None,989.5877641808804,None,f,1,1.4043139557536506,None,None,001,001,2,32,m,2021_Nov_08_0830,eye_tracking_exp,2021.2.3,84.66273456539263,
0,0,0,-168,0,168,0,180,0,0,f,abs,resp,freq_bottom,,,,,0,195,195,391,,,0.8861962585037022,,,,,,,,,,992.1766735719359,None,992.1766735719359,None,f,1,1.391141020263376,None,None,001,001,2,32,m,2021_Nov_08_0830,eye_tracking_exp,2021.2.3,84.66273456539263,
0,-12,180,0,180,180,0,12,180,180,j,abs,resp,freq_bottom,,,,,0,196,196,165,,,0.8733496502867307,,,,,,,,,,994.601217532884,None,994.601217532884,None,j,1,1.0949152333539587,None,None,001,001,2,32,m,2021_Nov_08_0830,eye_tracking_exp,2021.2.3,84.66273456539263,
180,-168,0,180,180,180,-168,0,180,0,f,abs,resp,freq_bottom,,,,,0,197,197,339,,,0.8806884249437358,,,,,,,,,,996.8838604751265,None,996.8838604751265,None,f,1,0.9246130626768263,None,None,001,001,2,32,m,2021_Nov_08_0830,eye_tracking_exp,2021.2.3,84.66273456539263,
12,0,0,0,0,0,0,0,-168,0,None,abs,inhibit,freq_bottom,,,,,0,198,198,420,,,0.7399697554777269,,,,,,,,,,998.8491404433964,None,998.8491404433964,None,None,1,,None,None,001,001,2,32,m,2021_Nov_08_0830,eye_tracking_exp,2021.2.3,84.66273456539263,
180,0,-12,180,180,-12,0,90,180,180,j,present,resp,freq_bottom,,,,,0,199,199,608,,,1.0383424895088151,,,,,,,,,,1003.4874158184496,None,1003.4874158184496,None,j,1,1.0078641676657298,None,None,001,001,2,32,m,2021_Nov_08_0830,eye_tracking_exp,2021.2.3,84.66273456539263,
-168,0,-168,0,0,0,0,0,180,0,f,abs,resp,freq_bottom,,,,,0,200,200,309,,,1.0842087452097278,,,,,,,,,,1005.9101094529944,None,1005.9101094529944,None,f,1,1.0811588262592977,None,None,001,001,2,32,m,2021_Nov_08_0830,eye_tracking_exp,2021.2.3,84.66273456539263,
180,-168,180,0,180,90,180,180,168,0,f,present,resp,freq_bottom,,,,,0,201,201,855,,,0.8562653136535974,,,,,,,,,,1008.1106812129085,None,1008.1106812129085,None,f,1,1.8086588722915167,None,None,001,001,2,32,m,2021_Nov_08_0830,eye_tracking_exp,2021.2.3,84.66273456539263,
180,180,180,168,180,180,12,0,180,180,None,abs,inhibit,freq_bottom,,,,,0,202,202,460,,,0.8164033931822997,,,,,,,,,,1010.9937891817183,None,1010.9937891817183,None,None,1,,None,None,001,001,2,32,m,2021_Nov_08_0830,eye_tracking_exp,2021.2.3,84.66273456539263,
0,0,0,0,12,0,180,180,180,168,None,abs,inhibit,freq_bottom,,,,,0,203,203,430,,,0.9323720113418533,,,,,,,,,,1014.94751562741,None,1014.94751562741,None,None,1,,None,None,001,001,2,32,m,2021_Nov_08_0830,eye_tracking_exp,2021.2.3,84.66273456539263,
0,180,12,0,0,12,0,180,0,180,j,abs,resp,freq_bottom,,,,,0,204,204,68,,,1.0915644548870564,,,,,,,,,,1019.3502450550557,None,1019.3502450550557,None,j,1,0.9362758541221865,None,None,001,001,2,32,m,2021_Nov_08_0830,eye_tracking_exp,2021.2.3,84.66273456539263,
0,0,0,-168,180,90,180,0,-168,180,f,present,resp,freq_bottom,,,,,0,205,205,822,,,1.0922773961860446,,,,,,,,,,1021.7035387718845,None,1021.7035387718845,None,f,1,1.4309770686670618,None,None,001,001,2,32,m,2021_Nov_08_0830,eye_tracking_exp,2021.2.3,84.66273456539263,
180,-168,180,-168,0,180,180,90,180,180,f,present,resp,freq_bottom,,,,,0,206,206,805,,,0.8235147304648051,,,,,,,,,,1024.4114446762972,None,1024.4114446762972,None,f,1,1.1390646853953967,None,None,001,001,2,32,m,2021_Nov_08_0830,eye_tracking_exp,2021.2.3,84.66273456539263,
180,180,180,12,0,180,-168,180,270,0,None,present,inhibit,freq_bottom,,,,,0,207,207,985,,,0.9414748010861489,,,,,,,,,,1026.8456486691987,None,1026.8456486691987,None,None,1,,None,None,001,001,2,32,m,2021_Nov_08_0830,eye_tracking_exp,2021.2.3,84.66273456539263,
-168,180,180,0,168,180,180,0,180,180,f,abs,resp,freq_bottom,,,,,0,208,208,394,,,0.8439542743055205,,,,,,,,,,1030.6941193125479,None,1030.6941193125479,None,f,1,1.0645342623163287,None,None,001,001,2,32,m,2021_Nov_08_0830,eye_tracking_exp,2021.2.3,84.66273456539263,
180,180,180,168,180,180,180,0,168,180,f,abs,resp,freq_bottom,,,,,0,209,209,248,,,0.7629440668280588,,,,,,,,,,1039.4355861535216,None,1039.4355861535216,None,f,1,0.8661874218016692,None,None,001,001,2,32,m,2021_Nov_08_0830,eye_tracking_exp,2021.2.3,84.66273456539263,
180,168,180,0,180,168,0,90,180,0,f,present,resp,freq_bottom,,,,,0,210,210,741,,,0.798558412048481,,,,,,,,,,1041.4241859695755,None,1041.4241859695755,None,f,1,1.021635365297925,None,None,001,001,2,32,m,2021_Nov_08_0830,eye_tracking_exp,2021.2.3,84.66273456539263,
0,-168,0,180,168,0,270,180,0,0,f,present,resp,freq_bottom,,,,,0,211,211,897,,,0.8249458773531876,,,,,,,,,,1043.9311500487936,None,1043.9311500487936,None,f,1,1.1869485971840277,None,None,001,001,2,32,m,2021_Nov_08_0830,eye_tracking_exp,2021.2.3,84.66273456539263,
-12,180,0,-12,180,180,180,0,180,180,j,abs,resp,freq_bottom,,,,,0,212,212,85,,,0.8727084986106741,,,,,,,,,,1046.2611722134704,None,1046.2611722134704,None,j,1,1.3847195122868925,None,None,001,001,2,32,m,2021_Nov_08_0830,eye_tracking_exp,2021.2.3,84.66273456539263,
180,0,180,12,180,180,12,0,180,0,j,abs,resp,freq_bottom,,,,,0,213,213,40,,,0.7878329297404623,,,,,,,,,,1048.474916305179,None,1048.474916305179,None,j,1,1.0429799217311029,None,None,001,001,2,32,m,2021_Nov_08_0830,eye_tracking_exp,2021.2.3,84.66273456539263,
12,0,180,-12,0,90,0,180,0,180,j,present,resp,freq_bottom,,,,,0,214,214,659,,,0.9237599000618959,,,,,,,,,,1050.8621325721135,None,1050.8621325721135,None,j,1,1.0868688792068042,None,None,001,001,2,32,m,2021_Nov_08_0830,eye_tracking_exp,2021.2.3,84.66273456539263,
0,0,0,180,12,0,0,12,0,0,j,abs,resp,freq_bottom,,,,,0,215,215,47,,,0.774139640810958,,,,,,,,,,1052.7684363293026,None,1052.7684363293026,None,j,1,1.4205572860512348,None,None,001,001,2,32,m,2021_Nov_08_0830,eye_tracking_exp,2021.2.3,84.66273456539263,
0,180,180,180,180,0,12,0,0,12,j,abs,resp,freq_bottom,,,,,0,216,216,12,,,0.9419408633098666,,,,,,,,,,1055.5239242978043,None,1055.5239242978043,None,j,1,1.0334327808175203,None,None,001,001,2,32,m,2021_Nov_08_0830,eye_tracking_exp,2021.2.3,84.66273456539263,
180,0,180,0,180,180,180,12,180,12,j,abs,resp,freq_bottom,,,,,0,217,217,11,,,0.9890780290037402,,,,,,,,,,1058.0760293987585,None,1058.0760293987585,None,j,1,1.1370251004839247,None,None,001,001,2,32,m,2021_Nov_08_0830,eye_tracking_exp,2021.2.3,84.66273456539263,
-168,0,180,180,180,0,0,-168,180,180,f,abs,resp,freq_bottom,,,,,0,218,218,330,,,0.7227980682510923,,,,,,,,,,1060.2401225622405,None,1060.2401225622405,None,f,1,2.1249765476775337,None,None,001,001,2,32,m,2021_Nov_08_0830,eye_tracking_exp,2021.2.3,84.66273456539263,
90,0,12,0,0,0,12,0,0,0,j,present,resp,freq_bottom,,,,,0,219,219,564,,,0.8749665567282603,,,,,,,,,,1063.523670745736,None,1063.523670745736,None,j,1,1.2574315444492186,None,None,001,001,2,32,m,2021_Nov_08_0830,eye_tracking_exp,2021.2.3,84.66273456539263,
0,0,168,0,0,0,0,0,0,168,f,abs,resp,freq_bottom,,,,,0,220,220,218,,,1.0135695142944237,,,,,,,,,,1067.2321118261214,None,1067.2321118261214,None,f,1,1.0362939951689896,None,None,001,001,2,32,m,2021_Nov_08_0830,eye_tracking_exp,2021.2.3,84.66273456539263,
0,180,0,-12,0,180,90,0,-12,180,j,present,resp,freq_bottom,,,,,0,221,221,612,,,1.0263138275608912,,,,,,,,,,1069.3362954654324,None,1069.3362954654324,None,j,1,1.3959002529547888,None,None,001,001,2,32,m,2021_Nov_08_0830,eye_tracking_exp,2021.2.3,84.66273456539263,
180,0,180,168,180,270,180,0,12,0,None,present,inhibit,freq_bottom,,,,,0,222,222,962,,,1.0434940336823382,,,,,,,,,,1072.066483465236,None,1072.066483465236,None,None,1,,None,None,001,001,2,32,m,2021_Nov_08_0830,eye_tracking_exp,2021.2.3,84.66273456539263,
168,0,0,0,0,0,90,0,168,0,f,present,resp,freq_bottom,,,,,0,223,223,714,,,0.8829799927822661,,,,,,,,,,1075.9506328086115,None,1075.9506328086115,None,f,1,1.614500772314159,None,None,001,001,2,32,m,2021_Nov_08_0830,eye_tracking_exp,2021.2.3,84.66273456539263,
12,0,0,180,180,12,180,180,90,0,j,present,resp,freq_bottom,,,,,0,224,224,570,,,0.9726516928699307,,,,,,,,,,1078.788651673489,None,1078.788651673489,None,j,1,1.015767144155916,None,None,001,001,2,32,m,2021_Nov_08_0830,eye_tracking_exp,2021.2.3,84.66273456539263,
12,180,0,0,180,270,180,12,180,180,j,present,resp,freq_bottom,,,,,0,225,225,554,,,1.001149406235993,,,,,,,,,,1080.9869142984955,None,1080.9869142984955,None,j,1,0.9926715692129164,None,None,001,001,2,32,m,2021_Nov_08_0830,eye_tracking_exp,2021.2.3,84.66273456539263,
168,0,0,0,0,-168,180,180,0,0,f,abs,resp,freq_bottom,,,,,0,226,226,416,,,0.7968690491644203,,,,,,,,,,1082.8831598866138,None,1082.8831598866138,None,f,1,0.9042437761634119,None,None,001,001,2,32,m,2021_Nov_08_0830,eye_tracking_exp,2021.2.3,84.66273456539263,
168,0,168,0,0,0,0,0,270,0,f,present,resp,freq_bottom,,,,,0,227,227,728,,,1.0709379186877919,,,,,,,,,,1084.9063345456545,None,1084.9063345456545,None,f,1,1.4411088885756271,None,None,001,001,2,32,m,2021_Nov_08_0830,eye_tracking_exp,2021.2.3,84.66273456539263,
180,180,180,168,180,180,168,0,180,0,f,abs,resp,freq_bottom,,,,,0,228,228,250,,,0.7232678888340046,,,,,,,,,,1087.2724525638794,None,1087.2724525638794,None,f,1,0.8195027509257216,None,None,001,001,2,32,m,2021_Nov_08_0830,eye_tracking_exp,2021.2.3,84.66273456539263,
-168,0,0,0,0,0,0,12,0,0,None,abs,inhibit,freq_bottom,,,,,0,229,229,438,,,1.0753218591533356,,,,,,,,,,1089.5194675165087,None,1089.5194675165087,None,None,1,,None,None,001,001,2,32,m,2021_Nov_08_0830,eye_tracking_exp,2021.2.3,84.66273456539263,
0,12,180,0,180,180,270,180,12,180,j,present,resp,freq_bottom,,,,,0,230,230,505,,,1.0472714852800813,,,,,,,,,,1093.5811120612605,None,1093.5811120612605,None,j,1,1.1178435846711636,None,None,001,001,2,32,m,2021_Nov_08_0830,eye_tracking_exp,2021.2.3,84.66273456539263,
180,-168,180,0,0,-168,0,0,180,180,f,abs,resp,freq_bottom,,,,,0,231,231,347,,,0.745812115109854,,,,,,,,,,1095.6155278305089,None,1095.6155278305089,None,f,1,0.9560689133757023,None,None,001,001,2,32,m,2021_Nov_08_0830,eye_tracking_exp,2021.2.3,84.66273456539263,
180,0,180,-12,180,90,180,180,12,0,j,present,resp,freq_bottom,,,,,0,232,232,647,,,0.9756851880579198,,,,,,,,,,1097.6042704205254,None,1097.6042704205254,None,j,1,1.2223722359037765,None,None,001,001,2,32,m,2021_Nov_08_0830,eye_tracking_exp,2021.2.3,84.66273456539263,
0,180,180,180,180,90,0,-168,0,168,f,present,resp,freq_bottom,,,,,0,233,233,903,,,0.8218542026605553,,,,,,,,,,1099.9346605375483,None,1099.9346605375483,None,f,1,1.2120535722681325,None,None,001,001,2,32,m,2021_Nov_08_0830,eye_tracking_exp,2021.2.3,84.66273456539263,
-168,0,0,0,0,-168,0,0,270,0,f,present,resp,freq_bottom,,,,,0,234,234,804,,,0.7767182714147228,,,,,,,,,,1102.5001703930268,None,1102.5001703930268,None,f,1,1.0785128293184698,None,None,001,001,2,32,m,2021_Nov_08_0830,eye_tracking_exp,2021.2.3,84.66273456539263,
180,0,180,0,168,180,-168,180,180,0,f,abs,resp,freq_bottom,,,,,0,235,235,398,,,0.7230357643454944,,,,,,,,,,1104.418692039582,None,1104.418692039582,None,f,1,2.440131807569969,None,None,001,001,2,32,m,2021_Nov_08_0830,eye_tracking_exp,2021.2.3,84.66273456539263,
0,180,0,0,-168,90,180,0,-168,180,f,present,resp,freq_bottom,,,,,0,236,236,830,,,0.854836119430639,,,,,,,,,,1108.0214429587838,None,1108.0214429587838,None,f,1,1.061522727810143,None,None,001,001,2,32,m,2021_Nov_08_0830,eye_tracking_exp,2021.2.3,84.66273456539263,
180,180,-12,0,-12,180,90,0,180,180,j,present,resp,freq_bottom,,,,,0,237,237,602,,,1.0788231792227478,,,,,,,,,,1110.2791575068466,None,1110.2791575068466,None,j,1,1.2517824647377438,None,None,001,001,2,32,m,2021_Nov_08_0830,eye_tracking_exp,2021.2.3,84.66273456539263,
180,180,180,0,12,0,-168,0,0,180,None,abs,inhibit,freq_bottom,,,,,0,238,238,482,,,0.8221092403931246,,,,,,,,,,1112.6204153484725,None,1112.6204153484725,None,None,1,,None,None,001,001,2,32,m,2021_Nov_08_0830,eye_tracking_exp,2021.2.3,84.66273456539263,
0,0,12,0,0,0,270,0,0,-12,j,present,resp,freq_bottom,,,,,0,239,239,652,,,0.8976577036610918,,,,,,,,,,1116.5395518587932,None,1116.5395518587932,None,j,1,1.2303096230318715,None,None,001,001,2,32,m,2021_Nov_08_0830,eye_tracking_exp,2021.2.3,84.66273456539263,
180,-12,0,-12,0,0,0,180,0,180,j,abs,resp,freq_bottom,,,,,0,240,240,105,,,0.7072681478428591,,,,,,,,,,1118.7639554001914,None,1118.7639554001914,None,j,1,0.7664303790154463,None,None,001,001,2,32,m,2021_Nov_08_0830,eye_tracking_exp,2021.2.3,84.66273456539263,
180,168,0,180,180,180,168,0,180,0,f,abs,resp,freq_bottom,,,,,0,241,241,269,,,1.0689871602161476,,,,,,,,,,1120.6466640244932,None,1120.6466640244932,None,f,1,0.9153789378285637,None,None,001,001,2,32,m,2021_Nov_08_0830,eye_tracking_exp,2021.2.3,84.66273456539263,
0,0,-168,180,180,180,180,-168,0,0,f,abs,resp,freq_bottom,,,,,0,242,242,312,,,0.7941251604350984,,,,,,,,,,1122.623411488746,None,1122.623411488746,None,f,1,1.082599243485447,None,None,001,001,2,32,m,2021_Nov_08_0830,eye_tracking_exp,2021.2.3,84.66273456539263,
0,180,180,180,0,270,0,-168,0,-168,f,present,resp,freq_bottom,,,,,0,243,243,833,,,1.0897437322193073,,,,,,,,,,1125.0959960204398,None,1125.0959960204398,None,f,1,1.5229570054536907,None,None,001,001,2,32,m,2021_Nov_08_0830,eye_tracking_exp,2021.2.3,84.66273456539263,
180,0,180,0,12,0,12,180,180,180,j,abs,resp,freq_bottom,,,,,0,244,244,48,,,1.0423889112344327,,,,,,,,,,1127.7311439514704,None,1127.7311439514704,None,j,1,0.8219769965251089,None,None,001,001,2,32,m,2021_Nov_08_0830,eye_tracking_exp,2021.2.3,84.66273456539263,
0,-12,0,0,12,270,180,180,180,180,j,present,resp,freq_bottom,,,,,0,245,245,666,,,1.023133427931576,,,,,,,,,,1129.721836175783,None,1129.721836175783,None,j,1,0.959361468090492,None,None,001,001,2,32,m,2021_Nov_08_0830,eye_tracking_exp,2021.2.3,84.66273456539263,
0,0,12,0,0,0,0,0,0,-12,j,abs,resp,freq_bottom,,,,,0,246,246,148,,,0.7259747449211318,,,,,,,,,,1131.6611886339854,None,1131.6611886339854,None,j,1,1.0838890387092306,None,None,001,001,2,32,m,2021_Nov_08_0830,eye_tracking_exp,2021.2.3,84.66273456539263,
0,180,-168,0,0,0,12,180,90,180,None,present,inhibit,freq_bottom,,,,,0,247,247,957,,,0.765341370116919,,,,,,,,,,1133.779521686097,None,1133.779521686097,None,j,0,0.7735826602749967,1134.5698416718258,None,001,001,2,32,m,2021_Nov_08_0830,eye_tracking_exp,2021.2.3,84.66273456539263,
0,0,270,-168,0,168,0,180,0,0,f,present,resp,freq_bottom,,,,,0,248,248,895,,,1.092401721410788,,,,,,,,,,1137.0269033836828,None,1137.0269033836828,None,f,1,1.542378792036061,None,None,001,001,2,32,m,2021_Nov_08_0830,eye_tracking_exp,2021.2.3,84.66273456539263,
180,180,12,0,-168,180,180,0,180,180,None,abs,inhibit,freq_bottom,,,,,0,249,249,462,,,1.0287076787053833,,,,,,,,,,1139.8410856375128,None,1139.8410856375128,None,None,1,,None,None,001,001,2,32,m,2021_Nov_08_0830,eye_tracking_exp,2021.2.3,84.66273456539263,
180,180,0,0,168,270,0,168,180,180,f,present,resp,freq_bottom,,,,,0,250,250,761,,,1.033264967678249,,,,,,,,,,1143.8896182200103,None,1143.8896182200103,None,f,1,1.1906933197544731,None,None,001,001,2,32,m,2021_Nov_08_0830,eye_tracking_exp,2021.2.3,84.66273456539263,
180,0,180,0,180,180,-12,180,-168,0,None,abs,inhibit,freq_bottom,,,,,0,251,251,495,,,1.0378797879689399,,,,,,,,,,1155.6421308757297,None,1155.6421308757297,None,None,1,,None,None,001,001,2,32,m,2021_Nov_08_0830,eye_tracking_exp,2021.2.3,84.66273456539263,
180,180,180,-12,0,270,0,-12,0,180,j,present,resp,freq_bottom,,,,,0,252,252,613,,,0.8354196329854239,,,,,,,,,,1159.4793797271238,None,1159.4793797271238,None,j,1,2.1601167514065764,None,None,001,001,2,32,m,2021_Nov_08_0830,eye_tracking_exp,2021.2.3,84.66273456539263,
0,168,0,0,0,0,0,0,168,0,f,abs,resp,freq_bottom,,,,,0,253,253,234,,,0.9459306030302566,,,,,,,,,,1162.6334298139202,None,1162.6334298139202,None,f,1,1.2621068634796302,None,None,001,001,2,32,m,2021_Nov_08_0830,eye_tracking_exp,2021.2.3,84.66273456539263,
0,180,0,180,180,-168,0,-168,180,180,f,abs,resp,freq_bottom,,,,,0,254,254,343,,,1.0976234891445973,,,,,,,,,,1165.305401353304,None,1165.305401353304,None,f,1,1.1501690585948836,None,None,001,001,2,32,m,2021_Nov_08_0830,eye_tracking_exp,2021.2.3,84.66273456539263,
0,-168,0,180,-168,0,0,0,0,0,f,abs,resp,freq_bottom,,,,,0,255,255,323,,,0.771050912385137,,,,,,,,,,1167.6586286636386,None,1167.6586286636386,None,f,1,0.9570610867669984,None,None,001,001,2,32,m,2021_Nov_08_0830,eye_tracking_exp,2021.2.3,84.66273456539263,
12,0,0,0,0,-12,180,0,0,0,j,abs,resp,freq_bottom,,,,,0,256,256,206,,,1.0591323043907146,,,,,,,,,,1169.9885482000975,None,1169.9885482000975,None,j,1,1.0750898763965324,None,None,001,001,2,32,m,2021_Nov_08_0830,eye_tracking_exp,2021.2.3,84.66273456539263,
0,168,0,0,0,0,0,-168,0,0,f,abs,resp,freq_bottom,,,,,0,257,257,401,,,0.9520665989893289,,,,,,,,,,1172.272028166013,None,1172.272028166013,None,f,1,1.575660821322117,None,None,001,001,2,32,m,2021_Nov_08_0830,eye_tracking_exp,2021.2.3,84.66273456539263,
180,180,168,0,0,-168,180,90,0,0,f,present,resp,freq_bottom,,,,,0,258,258,922,,,0.750456500741649,,,,,,,,,,1174.7779351745842,None,1174.7779351745842,None,f,1,1.116779873375208,None,None,001,001,2,32,m,2021_Nov_08_0830,eye_tracking_exp,2021.2.3,84.66273456539263,
180,180,12,180,180,270,180,-12,180,180,j,present,resp,freq_bottom,,,,,0,259,259,676,,,0.7379285625415936,,,,,,,,,,1176.9547955902465,None,1176.9547955902465,None,j,1,1.484827302100939,None,None,001,001,2,32,m,2021_Nov_08_0830,eye_tracking_exp,2021.2.3,84.66273456539263,
180,180,0,-168,180,180,-168,0,270,180,f,present,resp,freq_bottom,,,,,0,260,260,824,,,1.015582110578517,,,,,,,,,,1179.8734639347842,None,1179.8734639347842,None,f,1,1.1900325751382752,None,None,001,001,2,32,m,2021_Nov_08_0830,eye_tracking_exp,2021.2.3,84.66273456539263,
0,0,180,180,180,90,0,12,0,12,j,present,resp,freq_bottom,,,,,0,261,261,553,,,0.9442560479563364,,,,,,,,,,1182.3798834807506,None,1182.3798834807506,None,j,1,1.0829361055191384,None,None,001,001,2,32,m,2021_Nov_08_0830,eye_tracking_exp,2021.2.3,84.66273456539263,
0,180,180,180,180,12,0,0,-168,0,None,abs,inhibit,freq_bottom,,,,,0,262,262,426,,,0.7463009215287006,,,,,,,,,,1184.9337326577177,None,1184.9337326577177,None,None,1,,None,None,001,001,2,32,m,2021_Nov_08_0830,eye_tracking_exp,2021.2.3,84.66273456539263,
0,0,0,0,0,-168,0,0,-168,0,f,abs,resp,freq_bottom,,,,,0,263,263,286,,,0.9514294576478433,,,,,,,,,,1189.6527510852181,None,1189.6527510852181,None,f,1,1.0256200567903306,None,None,001,001,2,32,m,2021_Nov_08_0830,eye_tracking_exp,2021.2.3,84.66273456539263,
180,180,180,180,-168,0,168,0,0,0,f,abs,resp,freq_bottom,,,,,0,264,264,412,,,0.8243460128109681,,,,,,,,,,1191.664834048662,None,1191.664834048662,None,f,1,1.1251114735994179,None,None,001,001,2,32,m,2021_Nov_08_0830,eye_tracking_exp,2021.2.3,84.66273456539263,
168,180,0,180,180,0,180,168,0,180,f,abs,resp,freq_bottom,,,,,0,265,265,260,,,0.8493000535344657,,,,,,,,,,1193.7010720724772,None,1193.7010720724772,None,f,1,1.0089653080765402,None,None,001,001,2,32,m,2021_Nov_08_0830,eye_tracking_exp,2021.2.3,84.66273456539263,
180,180,-12,180,0,0,180,-12,180,90,j,present,resp,freq_bottom,,,,,0,266,266,626,,,1.0884702189543431,,,,,,,,,,1195.8897455997396,None,1195.8897455997396,None,j,1,1.5242649115396034,None,None,001,001,2,32,m,2021_Nov_08_0830,eye_tracking_exp,2021.2.3,84.66273456539263,
0,0,0,0,168,0,0,0,0,-168,f,abs,resp,freq_bottom,,,,,0,267,267,360,,,1.083248590049677,,,,,,,,,,1198.7615907253069,None,1198.7615907253069,None,f,1,1.0850879777742648,None,None,001,001,2,32,m,2021_Nov_08_0830,eye_tracking_exp,2021.2.3,84.66273456539263,
180,0,180,12,180,180,0,180,0,168,None,abs,inhibit,freq_bottom,,,,,0,268,268,429,,,1.0609446055851584,,,,,,,,,,1201.1632211254753,None,1201.1632211254753,None,None,1,,None,None,001,001,2,32,m,2021_Nov_08_0830,eye_tracking_exp,2021.2.3,84.66273456539263,
168,180,0,180,180,180,168,180,0,180,f,abs,resp,freq_bottom,,,,,0,269,269,229,,,0.9392509586710756,,,,,,,,,,1205.1276335834543,None,1205.1276335834543,None,f,1,1.3586987312803558,None,None,001,001,2,32,m,2021_Nov_08_0830,eye_tracking_exp,2021.2.3,84.66273456539263,
180,-168,0,180,180,180,270,180,180,168,f,present,resp,freq_bottom,,,,,0,270,270,877,,,0.7384891197106874,,,,,,,,,,1207.2817307584921,None,1207.2817307584921,None,f,1,1.0754173811517376,None,None,001,001,2,32,m,2021_Nov_08_0830,eye_tracking_exp,2021.2.3,84.66273456539263,
180,0,180,0,180,-168,0,168,180,0,f,abs,resp,freq_bottom,,,,,0,271,271,413,,,0.9482431666617587,,,,,,,,,,1209.564135241051,None,1209.564135241051,None,f,1,1.0971398509057053,None,None,001,001,2,32,m,2021_Nov_08_0830,eye_tracking_exp,2021.2.3,84.66273456539263,
0,0,0,-12,0,270,0,-12,0,0,j,present,resp,freq_bottom,,,,,0,272,272,627,,,0.9861989176264156,,,,,,,,,,1211.9413784599672,None,1211.9413784599672,None,j,1,1.1199350873869207,None,None,001,001,2,32,m,2021_Nov_08_0830,eye_tracking_exp,2021.2.3,84.66273456539263,
180,0,180,-12,180,180,12,180,180,0,j,abs,resp,freq_bottom,,,,,0,273,273,201,,,0.7435158889595189,,,,,,,,,,1214.013945363755,None,1214.013945363755,None,j,1,1.0153828920331307,None,None,001,001,2,32,m,2021_Nov_08_0830,eye_tracking_exp,2021.2.3,84.66273456539263,
180,180,180,180,90,168,0,0,168,0,f,present,resp,freq_bottom,,,,,0,274,274,720,,,0.9912271270758337,,,,,,,,,,1216.3306919647237,None,1216.3306919647237,None,f,1,1.114815750389198,None,None,001,001,2,32,m,2021_Nov_08_0830,eye_tracking_exp,2021.2.3,84.66273456539263,
-12,180,0,180,0,180,0,180,-12,180,j,abs,resp,freq_bottom,,,,,0,275,275,87,,,0.8534719651478362,,,,,,,,,,1218.6609009731267,None,1218.6609009731267,None,j,1,0.9284954277984525,None,None,001,001,2,32,m,2021_Nov_08_0830,eye_tracking_exp,2021.2.3,84.66273456539263,
0,-12,180,0,0,90,180,180,-12,180,j,present,resp,freq_bottom,,,,,0,276,276,575,,,0.8416925491861981,,,,,,,,,,1221.2851648797784,None,1221.2851648797784,None,j,1,1.1992274597862433,None,None,001,001,2,32,m,2021_Nov_08_0830,eye_tracking_exp,2021.2.3,84.66273456539263,
0,-12,0,0,0,0,0,0,12,0,j,abs,resp,freq_bottom,,,,,0,277,277,164,,,0.7414582078583829,,,,,,,,,,1223.780254270466,None,1223.780254270466,None,j,1,0.9601535164563302,None,None,001,001,2,32,m,2021_Nov_08_0830,eye_tracking_exp,2021.2.3,84.66273456539263,
180,0,168,0,0,168,180,0,90,180,f,present,resp,freq_bottom,,,,,0,278,278,782,,,0.9971394816071583,,,,,,,,,,1226.3100766723344,None,1226.3100766723344,None,f,1,1.1184382246408404,None,None,001,001,2,32,m,2021_Nov_08_0830,eye_tracking_exp,2021.2.3,84.66273456539263,
12,0,180,0,0,0,-168,0,0,0,None,abs,inhibit,freq_bottom,,,,,0,279,279,478,,,0.9387138370926402,,,,,,,,,,1228.5461309312698,None,1228.5461309312698,None,f,0,0.8663697378121924,1229.4288389518763,None,001,001,2,32,m,2021_Nov_08_0830,eye_tracking_exp,2021.2.3,84.66273456539263,
0,270,0,180,180,180,12,180,180,12,j,present,resp,freq_bottom,,,,,0,280,280,561,,,0.8181172952557825,,,,,,,,,,1231.3582600170423,None,1231.3582600170423,None,j,1,1.0943341765312198,None,None,001,001,2,32,m,2021_Nov_08_0830,eye_tracking_exp,2021.2.3,84.66273456539263,
180,180,0,12,0,180,0,-12,180,180,j,abs,resp,freq_bottom,,,,,0,281,281,193,,,0.8190122908194305,,,,,,,,,,1233.5720101457048,None,1233.5720101457048,None,j,1,1.4565272691086193,None,None,001,001,2,32,m,2021_Nov_08_0830,eye_tracking_exp,2021.2.3,84.66273456539263,
0,0,0,180,168,0,0,168,0,0,f,abs,resp,freq_bottom,,,,,0,282,282,257,,,1.0879615998507086,,,,,,,,,,1236.4658726462296,None,1236.4658726462296,None,f,1,1.2987686814665267,None,None,001,001,2,32,m,2021_Nov_08_0830,eye_tracking_exp,2021.2.3,84.66273456539263,
0,180,0,180,180,180,168,0,168,180,f,abs,resp,freq_bottom,,,,,0,283,283,215,,,0.7189539334671065,,,,,,,,,,1239.1836987753134,None,1239.1836987753134,None,f,1,1.0119397153155205,None,None,001,001,2,32,m,2021_Nov_08_0830,eye_tracking_exp,2021.2.3,84.66273456539263,
12,0,0,0,0,0,0,-12,0,0,j,abs,resp,freq_bottom,,,,,0,284,284,158,,,0.9096082155136525,,,,,,,,,,1241.4670752074674,None,1241.4670752074674,None,j,1,1.49667482433847,None,None,001,001,2,32,m,2021_Nov_08_0830,eye_tracking_exp,2021.2.3,84.66273456539263,
180,168,0,0,12,0,180,180,180,180,None,abs,inhibit,freq_bottom,,,,,0,285,285,442,,,0.7861526766515097,,,,,,,,,,1243.7970807705208,None,1243.7970807705208,None,None,1,,None,None,001,001,2,32,m,2021_Nov_08_0830,eye_tracking_exp,2021.2.3,84.66273456539263,
168,180,0,-168,180,90,180,0,180,180,f,present,resp,freq_bottom,,,,,0,286,286,890,,,0.8842817410169945,,,,,,,,,,1248.2806398809032,None,1248.2806398809032,None,f,1,1.2431936902728467,None,None,001,001,2,32,m,2021_Nov_08_0830,eye_tracking_exp,2021.2.3,84.66273456539263,
180,180,168,0,-168,180,180,90,0,0,f,present,resp,freq_bottom,,,,,0,287,287,882,,,0.737341856103081,,,,,,,,,,1250.799979112139,None,1250.799979112139,None,f,1,1.7316735218657868,None,None,001,001,2,32,m,2021_Nov_08_0830,eye_tracking_exp,2021.2.3,84.66273456539263,
0,0,0,180,168,0,0,180,0,168,f,abs,resp,freq_bottom,,,,,0,288,288,255,,,0.8908750930117683,,,,,,,,,,1253.7297098730457,None,1253.7297098730457,None,f,1,1.4091498577602124,None,None,001,001,2,32,m,2021_Nov_08_0830,eye_tracking_exp,2021.2.3,84.66273456539263,
180,-168,180,180,180,180,0,180,180,168,f,abs,resp,freq_bottom,,,,,0,289,289,373,,,1.0742731304160387,,,,,,,,,,1256.5535135223242,None,1256.5535135223242,None,f,1,2.0894095313003618,None,None,001,001,2,32,m,2021_Nov_08_0830,eye_tracking_exp,2021.2.3,84.66273456539263,
180,180,0,180,12,0,0,12,0,90,j,present,resp,freq_bottom,,,,,0,290,290,551,,,0.8304362592544685,,,,,,,,,,1259.755093755405,None,1259.755093755405,None,j,1,1.5599273117902612,None,None,001,001,2,32,m,2021_Nov_08_0830,eye_tracking_exp,2021.2.3,84.66273456539263,
180,0,180,0,-168,180,180,-168,180,0,f,abs,resp,freq_bottom,,,,,0,291,291,334,,,0.7112301171569331,,,,,,,,,,1262.6620307890691,None,1262.6620307890691,None,f,1,1.244972176922829,None,None,001,001,2,32,m,2021_Nov_08_0830,eye_tracking_exp,2021.2.3,84.66273456539263,
0,12,180,180,180,180,0,180,0,12,j,abs,resp,freq_bottom,,,,,0,292,292,7,,,0.7032612296454119,,,,,,,,,,1265.709470984739,None,1265.709470984739,None,j,1,1.0455353643621947,None,None,001,001,2,32,m,2021_Nov_08_0830,eye_tracking_exp,2021.2.3,84.66273456539263,
0,180,0,0,0,0,168,0,168,180,f,abs,resp,freq_bottom,,,,,0,293,293,266,,,0.8107536974680247,,,,,,,,,,1326.9228139208537,None,1326.9228139208537,None,f,1,1.8770968013866423,None,None,001,001,2,32,m,2021_Nov_08_0830,eye_tracking_exp,2021.2.3,84.66273456539263,
0,0,0,0,168,0,168,0,0,0,f,abs,resp,freq_bottom,,,,,0,294,294,272,,,0.9662607972961634,,,,,,,,,,1330.077941000245,None,1330.077941000245,None,f,1,1.5700117416101875,None,None,001,001,2,32,m,2021_Nov_08_0830,eye_tracking_exp,2021.2.3,84.66273456539263,
180,180,180,180,-12,0,270,0,-12,0,j,present,resp,freq_bottom,,,,,0,295,295,578,,,0.8482301468603668,,,,,,,,,,1332.548777531906,None,1332.548777531906,None,j,1,1.738667333082276,None,None,001,001,2,32,m,2021_Nov_08_0830,eye_tracking_exp,2021.2.3,84.66273456539263,
180,0,-168,0,0,-168,180,0,180,270,f,present,resp,freq_bottom,,,,,0,296,296,852,,,0.9026661193373917,,,,,,,,,,1335.3374615030991,None,1335.3374615030991,None,f,1,1.2058074378053334,None,None,001,001,2,32,m,2021_Nov_08_0830,eye_tracking_exp,2021.2.3,84.66273456539263,
180,168,0,12,180,180,270,180,0,0,None,present,inhibit,freq_bottom,,,,,0,297,297,945,,,0.7470118061395843,,,,,,,,,,1337.7388984188917,None,1337.7388984188917,None,None,1,,None,None,001,001,2,32,m,2021_Nov_08_0830,eye_tracking_exp,2021.2.3,84.66273456539263,
-168,0,0,0,-168,0,0,0,0,270,f,present,resp,freq_bottom,,,,,0,298,298,800,,,0.8122782518848577,,,,,,,,,,1341.9741198800218,None,1341.9741198800218,None,f,1,1.0170822945858617,None,None,001,001,2,32,m,2021_Nov_08_0830,eye_tracking_exp,2021.2.3,84.66273456539263,
180,180,180,270,0,0,12,0,0,-12,j,present,resp,freq_bottom,,,,,0,299,299,656,,,0.7717225584151294,,,,,,,,,,1343.821529830552,None,1343.821529830552,None,j,1,1.1216359991778972,None,None,001,001,2,32,m,2021_Nov_08_0830,eye_tracking_exp,2021.2.3,84.66273456539263,
0,0,180,0,-168,180,180,-168,180,90,f,present,resp,freq_bottom,,,,,0,300,300,838,,,0.8418508261558482,,,,,,,,,,1346.2102372251263,None,1346.2102372251263,None,f,1,1.0046968797462341,None,None,001,001,2,32,m,2021_Nov_08_0830,eye_tracking_exp,2021.2.3,84.66273456539263,
180,180,12,0,0,0,12,0,0,180,j,abs,resp,freq_bottom,,,,,0,301,301,60,,,0.7586860560358551,,,,,,,,,,1348.0945230036625,None,1348.0945230036625,None,j,1,0.8956815642957281,None,None,001,001,2,32,m,2021_Nov_08_0830,eye_tracking_exp,2021.2.3,84.66273456539263,
180,12,180,0,180,180,180,180,-168,180,None,abs,inhibit,freq_bottom,,,,,0,302,302,421,,,0.7629542434614461,,,,,,,,,,1350.0933442883927,None,1350.0933442883927,None,j,0,0.8489431645291461,1350.9643004724824,None,001,001,2,32,m,2021_Nov_08_0830,eye_tracking_exp,2021.2.3,84.66273456539263,
180,12,180,180,180,168,0,180,0,180,None,abs,inhibit,freq_bottom,,,,,0,303,303,487,,,1.0767424438231628,,,,,,,,,,1353.9173347813974,None,1353.9173347813974,None,None,1,,None,None,001,001,2,32,m,2021_Nov_08_0830,eye_tracking_exp,2021.2.3,84.66273456539263,
168,180,180,168,180,180,180,0,0,270,f,present,resp,freq_bottom,,,,,0,304,304,750,,,1.056188727436472,,,,,,,,,,1358.0480266857514,None,1358.0480266857514,None,f,1,1.6146492813825262,None,None,001,001,2,32,m,2021_Nov_08_0830,eye_tracking_exp,2021.2.3,84.66273456539263,
0,0,12,180,0,-12,0,0,0,90,j,present,resp,freq_bottom,,,,,0,305,305,678,,,0.9242874932994305,,,,,,,,,,1361.2966206037015,None,1361.2966206037015,None,j,1,1.2927990394971403,None,None,001,001,2,32,m,2021_Nov_08_0830,eye_tracking_exp,2021.2.3,84.66273456539263,
180,180,180,0,-12,0,270,0,0,-12,j,present,resp,freq_bottom,,,,,0,306,306,584,,,1.0555636347893909,,,,,,,,,,1364.0490478365216,None,1364.0490478365216,None,j,1,1.132527871596949,None,None,001,001,2,32,m,2021_Nov_08_0830,eye_tracking_exp,2021.2.3,84.66273456539263,
180,168,180,180,180,168,0,0,180,270,f,present,resp,freq_bottom,,,,,0,307,307,781,,,0.7857101202786667,,,,,,,,,,1366.2608948154336,None,1366.2608948154336,None,f,1,1.0806260650686,None,None,001,001,2,32,m,2021_Nov_08_0830,eye_tracking_exp,2021.2.3,84.66273456539263,
0,0,0,180,-12,0,90,180,0,-12,j,present,resp,freq_bottom,,,,,0,308,308,619,,,1.0549976567630295,,,,,,,,,,1368.7205409473006,None,1368.7205409473006,None,j,1,1.0379441965467322,None,None,001,001,2,32,m,2021_Nov_08_0830,eye_tracking_exp,2021.2.3,84.66273456539263,
0,0,180,12,180,90,180,0,12,180,j,present,resp,freq_bottom,,,,,0,309,309,542,,,0.9668705652429406,,,,,,,,,,1371.0034624949706,None,1371.0034624949706,None,j,1,1.218127955389491,None,None,001,001,2,32,m,2021_Nov_08_0830,eye_tracking_exp,2021.2.3,84.66273456539263,
0,12,0,-12,0,0,0,180,0,180,j,abs,resp,freq_bottom,,,,,0,310,310,175,,,0.873581337306687,,,,,,,,,,1373.6397634842158,None,1373.6397634842158,None,j,1,0.9017994134862874,None,None,001,001,2,32,m,2021_Nov_08_0830,eye_tracking_exp,2021.2.3,84.66273456539263,
180,0,180,12,180,180,180,0,180,-12,j,abs,resp,freq_bottom,,,,,0,311,311,149,,,0.9475795630428786,,,,,,,,,,1375.8060513823268,None,1375.8060513823268,None,j,1,1.1835754491332864,None,None,001,001,2,32,m,2021_Nov_08_0830,eye_tracking_exp,2021.2.3,84.66273456539263,
180,-168,180,180,0,90,180,180,180,-168,f,present,resp,freq_bottom,,,,,0,312,312,807,,,1.0323655338008124,,,,,,,,,,1378.2051006828099,None,1378.2051006828099,None,f,1,0.9755607286244867,None,None,001,001,2,32,m,2021_Nov_08_0830,eye_tracking_exp,2021.2.3,84.66273456539263,
-168,0,-168,0,0,90,0,0,0,180,f,present,resp,freq_bottom,,,,,0,313,313,813,,,0.7165268841586706,,,,,,,,,,1380.0996664884758,None,1380.0996664884758,None,f,1,1.0329872536119638,None,None,001,001,2,32,m,2021_Nov_08_0830,eye_tracking_exp,2021.2.3,84.66273456539263,
12,0,12,0,180,0,90,180,180,180,j,present,resp,freq_bottom,,,,,0,314,314,533,,,0.7911926642802364,,,,,,,,,,1382.0650732327797,None,1382.0650732327797,None,j,1,1.0837145707384934,None,None,001,001,2,32,m,2021_Nov_08_0830,eye_tracking_exp,2021.2.3,84.66273456539263,
0,0,0,0,0,90,0,-12,0,-12,j,present,resp,freq_bottom,,,,,0,315,315,623,,,1.096483112635703,,,,,,,,,,1384.642026738273,None,1384.642026738273,None,j,1,1.1627129434771177,None,None,001,001,2,32,m,2021_Nov_08_0830,eye_tracking_exp,2021.2.3,84.66273456539263,
0,0,-12,0,-12,180,0,0,0,0,j,abs,resp,freq_bottom,,,,,0,316,316,98,,,0.8314922812840767,,,,,,,,,,1386.8662977685306,None,1386.8662977685306,None,j,1,1.0025262929332257,None,None,001,001,2,32,m,2021_Nov_08_0830,eye_tracking_exp,2021.2.3,84.66273456539263,
270,180,0,0,0,0,-12,0,-12,180,j,present,resp,freq_bottom,,,,,0,317,317,630,,,0.9371393569660115,,,,,,,,,,1389.2554691030202,None,1389.2554691030202,None,j,1,0.9333334427394675,None,None,001,001,2,32,m,2021_Nov_08_0830,eye_tracking_exp,2021.2.3,84.66273456539263,
0,0,0,180,-168,0,0,180,0,12,None,abs,inhibit,freq_bottom,,,,,0,318,318,465,,,0.9130575131291014,,,,,,,,,,1391.3735368310038,None,1391.3735368310038,None,None,1,,None,None,001,001,2,32,m,2021_Nov_08_0830,eye_tracking_exp,2021.2.3,84.66273456539263,
90,0,168,180,180,180,0,180,180,-168,f,present,resp,freq_bottom,,,,,0,319,319,884,,,0.8907102833477556,,,,,,,,,,1395.6810725493967,None,1395.6810725493967,None,f,1,2.3308647511373692,None,None,001,001,2,32,m,2021_Nov_08_0830,eye_tracking_exp,2021.2.3,84.66273456539263,
12,0,-168,0,0,270,0,180,0,180,None,present,inhibit,freq_bottom,,,,,0,320,320,953,,,1.0456525143683484,,,,,,,,,,1399.4115735652651,None,1399.4115735652651,None,None,1,,None,None,001,001,2,32,m,2021_Nov_08_0830,eye_tracking_exp,2021.2.3,84.66273456539263,
180,-168,0,180,180,-168,0,0,180,0,f,abs,resp,freq_bottom,,,,,0,321,321,307,,,0.8558811173501585,,,,,,,,,,1403.2617834550636,None,1403.2617834550636,None,f,1,1.0702512577602192,None,None,001,001,2,32,m,2021_Nov_08_0830,eye_tracking_exp,2021.2.3,84.66273456539263,
0,-12,0,180,180,180,90,180,0,12,j,present,resp,freq_bottom,,,,,0,322,322,667,,,0.8730084990012601,,,,,,,,,,1405.3437924567659,None,1405.3437924567659,None,j,1,1.052260531125512,None,None,001,001,2,32,m,2021_Nov_08_0830,eye_tracking_exp,2021.2.3,84.66273456539263,
0,0,0,180,12,0,0,180,0,-12,j,abs,resp,freq_bottom,,,,,0,323,323,185,,,0.7635237954678723,,,,,,,,,,1407.5440472765943,None,1407.5440472765943,None,j,1,0.9791092501893672,None,None,001,001,2,32,m,2021_Nov_08_0830,eye_tracking_exp,2021.2.3,84.66273456539263,
180,180,180,-12,0,0,270,180,180,-12,j,present,resp,freq_bottom,,,,,0,324,324,611,,,1.001293618438416,,,,,,,,,,1409.7205717357663,None,1409.7205717357663,None,j,1,1.0906510308916495,None,None,001,001,2,32,m,2021_Nov_08_0830,eye_tracking_exp,2021.2.3,84.66273456539263,
180,0,180,180,180,90,180,12,180,-12,j,present,resp,freq_bottom,,,,,0,325,325,655,,,0.7506373955242952,,,,,,,,,,1412.2389326786058,None,1412.2389326786058,None,j,1,1.4693355725764832,None,None,001,001,2,32,m,2021_Nov_08_0830,eye_tracking_exp,2021.2.3,84.66273456539263,
0,12,0,0,0,180,0,12,0,0,j,abs,resp,freq_bottom,,,,,0,326,326,51,,,0.9358120243099824,,,,,,,,,,1415.6039124291526,None,1415.6039124291526,None,j,1,0.9508391001197651,None,None,001,001,2,32,m,2021_Nov_08_0830,eye_tracking_exp,2021.2.3,84.66273456539263,
12,0,-168,0,0,0,0,180,180,180,None,abs,inhibit,freq_bottom,,,,,0,327,327,449,,,0.714965277753677,,,,,,,,,,1418.3808267548145,None,1418.3808267548145,None,None,1,,None,None,001,001,2,32,m,2021_Nov_08_0830,eye_tracking_exp,2021.2.3,84.66273456539263,
180,12,180,180,180,270,180,180,-168,180,None,present,inhibit,freq_bottom,,,,,0,328,328,925,,,0.8946414166571561,,,,,,,,,,1422.289911736714,None,1422.289911736714,None,None,1,,None,None,001,001,2,32,m,2021_Nov_08_0830,eye_tracking_exp,2021.2.3,84.66273456539263,
0,0,0,12,0,0,270,180,180,12,j,present,resp,freq_bottom,,,,,0,329,329,541,,,1.004955991347819,,,,,,,,,,1426.6316455921635,None,1426.6316455921635,None,j,1,1.5067683095896882,None,None,001,001,2,32,m,2021_Nov_08_0830,eye_tracking_exp,2021.2.3,84.66273456539263,
0,180,0,180,180,168,0,0,180,12,None,abs,inhibit,freq_bottom,,,,,0,330,330,485,,,0.8747862832423255,,,,,,,,,,1429.2797439969283,None,1429.2797439969283,None,None,1,,None,None,001,001,2,32,m,2021_Nov_08_0830,eye_tracking_exp,2021.2.3,84.66273456539263,
0,0,0,0,0,0,-12,0,0,-12,j,abs,resp,freq_bottom,,,,,0,331,331,82,,,0.7026494949801667,,,,,,,,,,1433.2456026072398,None,1433.2456026072398,None,j,1,0.9408521671068684,None,None,001,001,2,32,m,2021_Nov_08_0830,eye_tracking_exp,2021.2.3,84.66273456539263,
180,180,-168,0,180,180,-168,180,90,0,f,present,resp,freq_bottom,,,,,0,332,332,841,,,0.9813608706345522,,,,,,,,,,1435.5169271662628,None,1435.5169271662628,None,f,1,0.9732941542426943,None,None,001,001,2,32,m,2021_Nov_08_0830,eye_tracking_exp,2021.2.3,84.66273456539263,
180,180,168,0,0,0,168,0,180,0,f,abs,resp,freq_bottom,,,,,0,333,333,243,,,0.8691650480699324,,,,,,,,,,1437.7061156457023,None,1437.7061156457023,None,f,1,0.8964449371298997,None,None,001,001,2,32,m,2021_Nov_08_0830,eye_tracking_exp,2021.2.3,84.66273456539263,
0,0,0,180,180,180,12,180,180,12,j,abs,resp,freq_bottom,,,,,0,334,334,57,,,1.0205611758403625,,,,,,,,,,1439.9655250686026,None,1439.9655250686026,None,j,1,0.860035161973201,None,None,001,001,2,32,m,2021_Nov_08_0830,eye_tracking_exp,2021.2.3,84.66273456539263,
