ori16,ori17,ori18,ori19,ori20,ori10,ori11,ori12,ori13,ori14,corrAns,distractor,respon,dist_freq,practice_trials.thisRepN,practice_trials.thisTrialN,practice_trials.thisN,practice_trials.thisIndex,trials.thisRepN,trials.thisTrialN,trials.thisN,trials.thisIndex,key_resp.keys,key_resp.rt,key_resp_2.keys,key_resp_2.rt,fixdur,int14.started,int14.stopped,per15.started,per15.stopped,response.keys,response.corr,response.rt,text_7.started,text_7.stopped,participant,session,1=top 2=bottom,age,gender,date,expName,psychopyVersion,frameRate,
,,,,,,,,,,,,,,,,,,,,,,space,4.38478464524087,,,,,,,,,,,,,002,001,2,28,f,2021_Nov_06_1955,eye_tracking_exp,2021.2.3,85.06988329469462,
,,,,,,,,,,,,,,,,,,,,,,,,space,7.242509811476339,,,,,,,,,,,002,001,2,28,f,2021_Nov_06_1955,eye_tracking_exp,2021.2.3,85.06988329469462,
-12,0,0,180,90,180,12,0,180,0,j,present,resp,freq_bottom,,,,,0,0,0,711,,,,,0.9285634554802406,126.93508956905134,None,126.93508956905134,None,f,0,2.9139886493139784,129.87909363314247,None,002,001,2,28,f,2021_Nov_06_1955,eye_tracking_exp,2021.2.3,85.06988329469462,
0,-168,180,180,0,180,0,-168,0,0,f,abs,resp,freq_bottom,,,,,0,1,1,313,,,,,0.8374959365497283,131.26533639971603,None,131.26533639971603,None,f,1,1.5117750727076782,None,None,002,001,2,28,f,2021_Nov_06_1955,eye_tracking_exp,2021.2.3,85.06988329469462,
0,12,180,180,180,180,0,180,0,12,j,abs,resp,freq_bottom,,,,,0,2,2,48,,,,,1.043270233706179,134.2895455639009,None,134.2895455639009,None,j,1,1.991679954175197,None,None,002,001,2,28,f,2021_Nov_06_1955,eye_tracking_exp,2021.2.3,85.06988329469462,
90,180,12,180,180,180,-12,0,180,0,j,present,resp,freq_bottom,,,,,0,3,3,669,,,,,1.0355832930428477,137.63121072384092,None,137.63121072384092,None,None,0,,140.60886607852444,None,002,001,2,28,f,2021_Nov_06_1955,eye_tracking_exp,2021.2.3,85.06988329469462,
90,0,12,0,12,180,180,180,180,180,j,present,resp,freq_bottom,,,,,0,4,4,515,,,,,0.9047470492369376,142.126652960731,None,142.126652960731,None,j,1,1.9616991426955792,None,None,002,001,2,28,f,2021_Nov_06_1955,eye_tracking_exp,2021.2.3,85.06988329469462,
0,90,0,-168,180,180,180,-168,0,0,f,present,resp,freq_bottom,,,,,0,5,5,786,,,,,0.9193062719875043,145.33899621451565,None,145.33899621451565,None,f,1,0.9254371634524432,None,None,002,001,2,28,f,2021_Nov_06_1955,eye_tracking_exp,2021.2.3,85.06988329469462,
0,0,0,180,0,-168,0,-168,0,0,f,abs,resp,freq_bottom,,,,,0,6,6,309,,,,,1.007640929271405,147.73900146668166,None,147.73900146668166,None,f,1,1.3093988600667217,None,None,002,001,2,28,f,2021_Nov_06_1955,eye_tracking_exp,2021.2.3,85.06988329469462,
90,180,180,180,-168,180,-168,180,180,0,f,present,resp,freq_bottom,,,,,0,7,7,807,,,,,0.9912603493783317,153.76333801098372,None,153.76333801098372,None,f,1,1.125167069316376,None,None,002,001,2,28,f,2021_Nov_06_1955,eye_tracking_exp,2021.2.3,85.06988329469462,
180,0,0,-12,0,180,0,180,0,-12,j,abs,resp,freq_bottom,,,,,0,8,8,116,,,,,0.8319312598864088,156.30503190690797,None,156.30503190690797,None,j,1,1.2707528804967296,None,None,002,001,2,28,f,2021_Nov_06_1955,eye_tracking_exp,2021.2.3,85.06988329469462,
90,0,0,12,0,12,180,180,180,0,j,present,resp,freq_bottom,,,,,0,9,9,504,,,,,0.7993510803984156,158.6583743822339,None,158.6583743822339,None,j,1,0.9012928967204061,None,None,002,001,2,28,f,2021_Nov_06_1955,eye_tracking_exp,2021.2.3,85.06988329469462,
180,0,168,180,168,0,180,180,0,180,f,abs,resp,freq_bottom,,,,,0,10,10,221,,,,,1.0700752318566695,161.35344419830653,None,161.35344419830653,None,j,0,1.5822220108966576,162.9544259910981,None,002,001,2,28,f,2021_Nov_06_1955,eye_tracking_exp,2021.2.3,85.06988329469462,
0,12,0,90,180,180,168,0,0,0,None,present,inhibit,freq_bottom,,,,,0,11,11,950,,,,,1.0551264131420208,164.5544328128817,None,164.5544328128817,None,None,1,,None,None,002,001,2,28,f,2021_Nov_06_1955,eye_tracking_exp,2021.2.3,85.06988329469462,
180,270,0,180,0,180,0,-168,0,-168,f,present,resp,freq_bottom,,,,,0,12,12,826,,,,,0.8719312137670543,168.43981998956588,None,168.43981998956588,None,f,1,1.776160347450059,None,None,002,001,2,28,f,2021_Nov_06_1955,eye_tracking_exp,2021.2.3,85.06988329469462,
0,0,0,168,0,0,-168,0,0,0,f,abs,resp,freq_bottom,,,,,0,13,13,374,,,,,0.9352834203801794,171.6276893579343,None,171.6276893579343,None,f,1,1.4991801375508658,None,None,002,001,2,28,f,2021_Nov_06_1955,eye_tracking_exp,2021.2.3,85.06988329469462,
-12,0,0,12,0,270,0,0,0,0,j,present,resp,freq_bottom,,,,,0,14,14,650,,,,,1.0236720323071253,174.4987655901059,None,174.4987655901059,None,j,1,1.620131781703094,None,None,002,001,2,28,f,2021_Nov_06_1955,eye_tracking_exp,2021.2.3,85.06988329469462,
180,180,0,0,270,168,180,180,168,180,f,present,resp,freq_bottom,,,,,0,15,15,750,,,,,1.0661947275320898,177.4992096094138,None,177.4992096094138,None,f,1,1.275734589980857,None,None,002,001,2,28,f,2021_Nov_06_1955,eye_tracking_exp,2021.2.3,85.06988329469462,
12,0,12,180,180,0,180,180,0,180,j,abs,resp,freq_bottom,,,,,0,16,16,63,,,,,0.9415079391464625,180.229268810981,None,180.229268810981,None,j,1,1.4897449536510976,None,None,002,001,2,28,f,2021_Nov_06_1955,eye_tracking_exp,2021.2.3,85.06988329469462,
0,-168,180,180,0,180,180,168,0,0,f,abs,resp,freq_bottom,,,,,0,17,17,383,,,,,0.8896130872695852,182.654753406292,None,182.654753406292,None,f,1,1.2723882962745847,None,None,002,001,2,28,f,2021_Nov_06_1955,eye_tracking_exp,2021.2.3,85.06988329469462,
180,180,0,0,180,180,180,-12,0,-12,j,abs,resp,freq_bottom,,,,,0,18,18,112,,,,,0.9778410772275825,185.23236668328173,None,185.23236668328173,None,j,1,0.854430296094506,None,None,002,001,2,28,f,2021_Nov_06_1955,eye_tracking_exp,2021.2.3,85.06988329469462,
0,0,180,0,12,0,0,0,180,-168,None,abs,inhibit,freq_bottom,,,,,0,19,19,465,,,,,0.712008320263164,187.1959187652974,None,187.1959187652974,None,None,1,,None,None,002,001,2,28,f,2021_Nov_06_1955,eye_tracking_exp,2021.2.3,85.06988329469462,
168,0,0,180,168,180,0,180,0,180,f,abs,resp,freq_bottom,,,,,0,20,20,275,,,,,1.0768834248246,191.29212003071007,None,191.29212003071007,None,f,1,1.034150053805206,192.350108469298,None,002,001,2,28,f,2021_Nov_06_1955,eye_tracking_exp,2021.2.3,85.06988329469462,
90,180,180,180,-12,0,0,180,-12,180,j,present,resp,freq_bottom,,,,,0,21,21,583,,,,,0.7791023057359239,193.66925662837457,None,193.66925662837457,None,j,1,1.0569821846220293,None,None,002,001,2,28,f,2021_Nov_06_1955,eye_tracking_exp,2021.2.3,85.06988329469462,
0,-12,0,0,-12,0,0,0,0,0,j,abs,resp,freq_bottom,,,,,0,22,22,82,,,,,1.074491223356542,196.1268736120619,None,196.1268736120619,None,j,1,0.9673923093505437,None,None,002,001,2,28,f,2021_Nov_06_1955,eye_tracking_exp,2021.2.3,85.06988329469462,
180,12,180,180,270,180,12,0,0,180,j,present,resp,freq_bottom,,,,,0,23,23,563,,,,,0.73470011121098,198.35259721110197,None,198.35259721110197,None,f,0,2.565776392999396,200.9401730015161,None,002,001,2,28,f,2021_Nov_06_1955,eye_tracking_exp,2021.2.3,85.06988329469462,
12,180,180,12,0,0,180,180,180,90,j,present,resp,freq_bottom,,,,,0,24,24,568,,,,,0.9984101384251902,202.4813395679157,None,202.4813395679157,None,j,1,1.4280443808311247,None,None,002,001,2,28,f,2021_Nov_06_1955,eye_tracking_exp,2021.2.3,85.06988329469462,
90,180,180,168,0,180,-168,180,0,180,f,present,resp,freq_bottom,,,,,0,25,25,855,,,,,1.045578404175789,205.0109015644557,None,205.0109015644557,None,f,1,1.251442115579266,None,None,002,001,2,28,f,2021_Nov_06_1955,eye_tracking_exp,2021.2.3,85.06988329469462,
0,168,0,0,-168,0,0,0,0,0,f,abs,resp,freq_bottom,,,,,0,26,26,362,,,,,1.0878344495792707,207.7058648279708,None,207.7058648279708,None,f,1,0.9235714371898212,None,None,002,001,2,28,f,2021_Nov_06_1955,eye_tracking_exp,2021.2.3,85.06988329469462,
180,180,0,-168,180,180,0,180,-168,180,f,abs,resp,freq_bottom,,,,,0,27,27,318,,,,,0.8182108014691433,209.50631904976035,None,209.50631904976035,None,f,1,1.0592046959500294,None,None,002,001,2,28,f,2021_Nov_06_1955,eye_tracking_exp,2021.2.3,85.06988329469462,
-12,180,180,90,180,180,0,12,0,0,j,present,resp,freq_bottom,,,,,0,28,28,712,,,,,0.7666869118874049,211.55569182343606,None,211.55569182343606,None,j,1,2.7380299253054545,None,None,002,001,2,28,f,2021_Nov_06_1955,eye_tracking_exp,2021.2.3,85.06988329469462,
180,180,0,180,0,180,-12,180,-12,180,j,abs,resp,freq_bottom,,,,,0,29,29,91,,,,,1.099059406690389,215.66146018058498,None,215.66146018058498,None,j,1,0.7441396430513123,None,None,002,001,2,28,f,2021_Nov_06_1955,eye_tracking_exp,2021.2.3,85.06988329469462,
180,-168,180,-168,0,180,0,180,0,180,f,abs,resp,freq_bottom,,,,,0,30,30,285,,,,,1.0607519756754646,217.81464714350295,None,217.81464714350295,None,f,1,1.1507282134334673,None,None,002,001,2,28,f,2021_Nov_06_1955,eye_tracking_exp,2021.2.3,85.06988329469462,
180,180,180,180,-168,0,0,168,0,0,f,abs,resp,freq_bottom,,,,,0,31,31,358,,,,,0.9028027421006942,219.92193742134987,None,219.92193742134987,None,f,1,1.5228064320617705,None,None,002,001,2,28,f,2021_Nov_06_1955,eye_tracking_exp,2021.2.3,85.06988329469462,
-168,0,168,180,0,180,0,180,90,180,f,present,resp,freq_bottom,,,,,0,32,32,917,,,,,1.002779281127605,222.74575382011972,None,222.74575382011972,None,f,1,1.098972646817856,None,None,002,001,2,28,f,2021_Nov_06_1955,eye_tracking_exp,2021.2.3,85.06988329469462,
180,0,0,180,180,-12,180,180,0,12,j,abs,resp,freq_bottom,,,,,0,33,33,184,,,,,1.0233098587424574,225.14623538939486,None,225.14623538939486,None,j,1,1.0826003781257896,None,None,002,001,2,28,f,2021_Nov_06_1955,eye_tracking_exp,2021.2.3,85.06988329469462,
270,0,-168,180,180,0,0,0,0,168,f,present,resp,freq_bottom,,,,,0,34,34,908,,,,,0.7149515617055118,227.35831663859426,None,227.35831663859426,None,j,0,1.862479693016212,229.241669355637,None,002,001,2,28,f,2021_Nov_06_1955,eye_tracking_exp,2021.2.3,85.06988329469462,
0,180,0,12,0,180,180,12,0,0,j,abs,resp,freq_bottom,,,,,0,35,35,2,,,,,0.8615287858974026,230.65337818401167,None,230.65337818401167,None,j,1,1.239450273948023,None,None,002,001,2,28,f,2021_Nov_06_1955,eye_tracking_exp,2021.2.3,85.06988329469462,
0,0,-12,0,0,-12,180,180,180,180,j,abs,resp,freq_bottom,,,,,0,36,36,88,,,,,0.7361410421897072,232.947820336085,None,232.947820336085,None,j,1,1.3761279289101367,None,None,002,001,2,28,f,2021_Nov_06_1955,eye_tracking_exp,2021.2.3,85.06988329469462,
180,270,180,168,180,180,0,0,180,180,f,present,resp,freq_bottom,,,,,0,37,37,719,,,,,0.9401545715553453,235.64255117616995,None,235.64255117616995,None,f,1,1.0975768988355412,None,None,002,001,2,28,f,2021_Nov_06_1955,eye_tracking_exp,2021.2.3,85.06988329469462,
0,0,12,0,0,12,0,180,180,180,j,abs,resp,freq_bottom,,,,,0,38,38,18,,,,,0.866637183603156,237.9131279696303,None,237.9131279696303,None,j,1,0.8265968356354279,None,None,002,001,2,28,f,2021_Nov_06_1955,eye_tracking_exp,2021.2.3,85.06988329469462,
270,180,12,180,180,180,0,0,0,12,j,present,resp,freq_bottom,,,,,0,39,39,558,,,,,1.0829315429300006,240.0919282964678,None,240.0919282964678,None,j,1,0.9681417994579533,None,None,002,001,2,28,f,2021_Nov_06_1955,eye_tracking_exp,2021.2.3,85.06988329469462,
180,12,0,0,270,180,-12,0,180,180,j,present,resp,freq_bottom,,,,,0,40,40,703,,,,,0.7777231839057788,242.1733012488403,None,242.1733012488403,None,j,1,1.7988472890865523,None,None,002,001,2,28,f,2021_Nov_06_1955,eye_tracking_exp,2021.2.3,85.06988329469462,
90,180,0,180,180,168,180,0,-168,180,f,present,resp,freq_bottom,,,,,0,41,41,890,,,,,0.778207523066065,245.0207152665098,None,245.0207152665098,None,f,1,1.2873904741136357,None,None,002,001,2,28,f,2021_Nov_06_1955,eye_tracking_exp,2021.2.3,85.06988329469462,
168,0,0,0,90,168,0,0,0,0,f,present,resp,freq_bottom,,,,,0,42,42,734,,,,,0.8148655536786737,254.79868870926293,None,254.79868870926293,None,f,1,1.7965411656987271,None,None,002,001,2,28,f,2021_Nov_06_1955,eye_tracking_exp,2021.2.3,85.06988329469462,
180,0,180,180,0,0,0,12,0,12,j,abs,resp,freq_bottom,,,,,0,43,43,28,,,,,0.8402100847314438,257.77565403802873,None,257.77565403802873,None,j,1,0.7716863473251578,None,None,002,001,2,28,f,2021_Nov_06_1955,eye_tracking_exp,2021.2.3,85.06988329469462,
0,90,0,168,0,0,180,180,180,168,f,present,resp,freq_bottom,,,,,0,44,44,718,,,,,0.824872360095588,259.6821642786963,None,259.6821642786963,None,j,0,1.0572360393125564,260.7646694652067,None,002,001,2,28,f,2021_Nov_06_1955,eye_tracking_exp,2021.2.3,85.06988329469462,
180,0,12,0,90,180,180,180,12,0,j,present,resp,freq_bottom,,,,,0,45,45,557,,,,,0.7848608206385892,262.0940780622768,None,262.0940780622768,None,j,1,1.6693720438415767,None,None,002,001,2,28,f,2021_Nov_06_1955,eye_tracking_exp,2021.2.3,85.06988329469462,
0,168,0,168,0,180,0,180,90,0,f,present,resp,freq_bottom,,,,,0,46,46,770,,,,,1.0112036255644585,265.0355749718001,None,265.0355749718001,None,f,1,1.366949316332466,None,None,002,001,2,28,f,2021_Nov_06_1955,eye_tracking_exp,2021.2.3,85.06988329469462,
-12,180,180,180,180,180,0,0,12,180,j,abs,resp,freq_bottom,,,,,0,47,47,209,,,,,0.7515112528461909,267.2005913817993,None,267.2005913817993,None,j,1,1.2819638397777453,None,None,002,001,2,28,f,2021_Nov_06_1955,eye_tracking_exp,2021.2.3,85.06988329469462,
0,180,180,180,168,0,0,0,0,12,None,abs,inhibit,freq_bottom,,,,,0,48,48,430,,,,,0.7907406410439279,269.566075717521,None,269.566075717521,None,j,0,1.9725113599561155,271.5553670343288,None,002,001,2,28,f,2021_Nov_06_1955,eye_tracking_exp,2021.2.3,85.06988329469462,
180,-168,180,270,180,168,180,0,180,180,f,present,resp,freq_bottom,,,,,0,49,49,873,,,,,0.8441957755971013,272.9316412505141,None,272.9316412505141,None,f,1,1.9344929236467578,None,None,002,001,2,28,f,2021_Nov_06_1955,eye_tracking_exp,2021.2.3,85.06988329469462,
0,180,12,0,180,12,180,0,180,180,j,abs,resp,freq_bottom,,,,,0,50,50,50,,,,,0.7678734365653588,275.9327580903773,None,275.9327580903773,None,j,1,0.8059766514415969,None,None,002,001,2,28,f,2021_Nov_06_1955,eye_tracking_exp,2021.2.3,85.06988329469462,
180,90,0,12,180,180,180,180,-12,0,j,present,resp,freq_bottom,,,,,0,51,51,682,,,,,0.9812970349473171,277.89901805628324,None,277.89901805628324,None,f,0,1.5107170933260932,279.4296437673256,None,002,001,2,28,f,2021_Nov_06_1955,eye_tracking_exp,2021.2.3,85.06988329469462,
12,0,270,0,180,180,180,180,12,0,j,present,resp,freq_bottom,,,,,0,52,52,573,,,,,1.0261832971012814,281.040431112262,None,281.040431112262,None,f,0,1.153300567297265,282.20469712661725,None,002,001,2,28,f,2021_Nov_06_1955,eye_tracking_exp,2021.2.3,85.06988329469462,
180,-168,180,270,0,180,180,180,12,0,None,present,inhibit,freq_bottom,,,,,0,53,53,985,,,,,1.0764630048126669,285.2518374279607,None,285.2518374279607,None,None,1,,None,None,002,001,2,28,f,2021_Nov_06_1955,eye_tracking_exp,2021.2.3,85.06988329469462,
180,-12,0,-12,180,180,0,180,90,0,j,present,resp,freq_bottom,,,,,0,54,54,579,,,,,1.029932805455051,289.6531300644565,None,289.6531300644565,None,j,1,1.628787592482695,None,None,002,001,2,28,f,2021_Nov_06_1955,eye_tracking_exp,2021.2.3,85.06988329469462,
12,180,180,180,90,0,0,12,0,180,j,present,resp,freq_bottom,,,,,0,55,55,538,,,,,0.7674756078259563,292.35979298015445,None,292.35979298015445,None,j,1,0.8589438383860397,None,None,002,001,2,28,f,2021_Nov_06_1955,eye_tracking_exp,2021.2.3,85.06988329469462,
0,12,180,0,0,0,180,12,0,0,j,abs,resp,freq_bottom,,,,,0,56,56,33,,,,,0.8259683406298067,294.3485608914707,None,294.3485608914707,None,j,1,0.8044846137490822,None,None,002,001,2,28,f,2021_Nov_06_1955,eye_tracking_exp,2021.2.3,85.06988329469462,
180,270,180,12,180,180,180,180,12,180,j,present,resp,freq_bottom,,,,,0,57,57,507,,,,,0.7839620287670859,296.0069693825935,None,296.0069693825935,None,j,1,1.1143838295174646,None,None,002,001,2,28,f,2021_Nov_06_1955,eye_tracking_exp,2021.2.3,85.06988329469462,
-168,180,0,180,270,180,0,-168,0,0,f,present,resp,freq_bottom,,,,,0,58,58,852,,,,,0.7756986371533766,297.9486570604349,None,297.9486570604349,None,f,1,1.6683964691255824,None,None,002,001,2,28,f,2021_Nov_06_1955,eye_tracking_exp,2021.2.3,85.06988329469462,
0,0,180,180,12,0,0,0,-12,0,j,abs,resp,freq_bottom,,,,,0,59,59,177,,,,,0.9865902735559269,300.9379064202949,None,300.9379064202949,None,j,1,0.9196184277680004,301.8911455426496,None,002,001,2,28,f,2021_Nov_06_1955,eye_tracking_exp,2021.2.3,85.06988329469462,
0,90,180,0,-12,0,0,0,180,-12,j,present,resp,freq_bottom,,,,,0,60,60,619,,,,,0.956234684907242,303.3971090147388,None,303.3971090147388,None,j,1,1.8360440934775397,None,None,002,001,2,28,f,2021_Nov_06_1955,eye_tracking_exp,2021.2.3,85.06988329469462,
168,0,180,0,0,180,180,0,168,0,f,abs,resp,freq_bottom,,,,,0,61,61,251,,,,,0.7449541781012172,306.0213545818697,None,306.0213545818697,None,f,1,1.131854827151983,None,None,002,001,2,28,f,2021_Nov_06_1955,eye_tracking_exp,2021.2.3,85.06988329469462,
180,180,0,0,168,0,0,168,180,180,f,abs,resp,freq_bottom,,,,,0,62,62,240,,,,,0.777254293073375,308.339577574945,None,308.339577574945,None,f,1,1.263054231661954,None,None,002,001,2,28,f,2021_Nov_06_1955,eye_tracking_exp,2021.2.3,85.06988329469462,
180,-12,180,180,0,180,0,180,0,-12,j,abs,resp,freq_bottom,,,,,0,63,63,118,,,,,1.0212230479367466,310.9636972712033,None,310.9636972712033,None,j,1,1.5005885631690035,None,None,002,001,2,28,f,2021_Nov_06_1955,eye_tracking_exp,2021.2.3,85.06988329469462,
0,180,-168,0,180,0,180,-168,180,180,f,abs,resp,freq_bottom,,,,,0,64,64,332,,,,,0.8375094227390529,313.4344697229244,None,313.4344697229244,None,f,1,1.3498405370337423,None,None,002,001,2,28,f,2021_Nov_06_1955,eye_tracking_exp,2021.2.3,85.06988329469462,
180,180,0,0,0,12,180,180,168,180,None,abs,inhibit,freq_bottom,,,,,0,65,65,456,,,,,0.7697454632801455,315.9176131381464,None,315.9176131381464,None,None,1,,None,None,002,001,2,28,f,2021_Nov_06_1955,eye_tracking_exp,2021.2.3,85.06988329469462,
0,-168,0,270,0,0,-168,0,180,0,f,present,resp,freq_bottom,,,,,0,66,66,810,,,,,0.8786537112580657,320.27118652765057,None,320.27118652765057,None,f,1,1.1848525008026627,None,None,002,001,2,28,f,2021_Nov_06_1955,eye_tracking_exp,2021.2.3,85.06988329469462,
0,0,168,0,0,0,0,0,168,0,f,abs,resp,freq_bottom,,,,,0,67,67,249,,,,,0.9638093253600954,322.9549795814528,None,322.9549795814528,None,f,1,0.8222091642164742,None,None,002,001,2,28,f,2021_Nov_06_1955,eye_tracking_exp,2021.2.3,85.06988329469462,
180,0,0,180,180,-168,180,0,12,180,None,abs,inhibit,freq_bottom,,,,,0,68,68,435,,,,,0.959408402288328,325.2482221871469,None,325.2482221871469,None,None,1,,None,None,002,001,2,28,f,2021_Nov_06_1955,eye_tracking_exp,2021.2.3,85.06988329469462,
180,0,180,0,180,-168,180,0,-168,180,f,abs,resp,freq_bottom,,,,,0,69,69,295,,,,,1.0048211328286354,330.8604674608723,None,330.8604674608723,None,f,1,1.6511246915833908,None,None,002,001,2,28,f,2021_Nov_06_1955,eye_tracking_exp,2021.2.3,85.06988329469462,
180,12,0,180,0,0,180,180,-12,180,j,abs,resp,freq_bottom,,,,,0,70,70,180,,,,,0.717517773471949,333.6375845591174,None,333.6375845591174,None,None,0,,336.62833440842223,None,002,001,2,28,f,2021_Nov_06_1955,eye_tracking_exp,2021.2.3,85.06988329469462,
0,270,0,0,0,12,0,-12,0,0,j,present,resp,freq_bottom,,,,,0,71,71,658,,,,,0.8694997492927868,338.0268569802065,None,338.0268569802065,None,j,1,1.7969682814800763,None,None,002,001,2,28,f,2021_Nov_06_1955,eye_tracking_exp,2021.2.3,85.06988329469462,
-168,0,0,180,168,180,180,0,180,0,f,abs,resp,freq_bottom,,,,,0,72,72,415,,,,,0.7706584147679852,340.8978752574403,None,340.8978752574403,None,f,1,0.9900439347038628,None,None,002,001,2,28,f,2021_Nov_06_1955,eye_tracking_exp,2021.2.3,85.06988329469462,
0,180,-168,180,90,-168,180,0,0,180,f,present,resp,freq_bottom,,,,,0,73,73,834,,,,,0.7093476275056113,342.93331077518087,None,342.93331077518087,None,f,1,1.6736498423633748,None,None,002,001,2,28,f,2021_Nov_06_1955,eye_tracking_exp,2021.2.3,85.06988329469462,
90,180,180,0,180,168,0,180,-168,180,f,present,resp,freq_bottom,,,,,0,74,74,869,,,,,0.8289312952255787,345.73396300966124,None,345.73396300966124,None,f,1,0.936978948811884,None,None,002,001,2,28,f,2021_Nov_06_1955,eye_tracking_exp,2021.2.3,85.06988329469462,
0,0,0,0,180,12,0,12,0,0,j,abs,resp,freq_bottom,,,,,0,75,75,29,,,,,0.7273021291592151,347.8754213429347,None,347.8754213429347,None,j,1,0.8915211516214185,None,None,002,001,2,28,f,2021_Nov_06_1955,eye_tracking_exp,2021.2.3,85.06988329469462,
0,0,270,0,168,0,0,-12,0,0,None,present,inhibit,freq_bottom,,,,,0,76,76,1002,,,,,0.7438273525744891,349.93627824888245,None,349.93627824888245,None,j,0,1.1024937108668382,351.0538123630613,None,002,001,2,28,f,2021_Nov_06_1955,eye_tracking_exp,2021.2.3,85.06988329469462,
12,0,0,180,12,180,0,180,180,180,j,abs,resp,freq_bottom,,,,,0,77,77,65,,,,,0.7147730576243461,352.94736937426205,None,352.94736937426205,None,j,1,1.196472464944236,None,None,002,001,2,28,f,2021_Nov_06_1955,eye_tracking_exp,2021.2.3,85.06988329469462,
180,168,0,270,180,0,180,0,168,180,f,present,resp,freq_bottom,,,,,0,78,78,754,,,,,0.8830176341351131,355.3598174298895,None,355.3598174298895,None,f,1,1.0072176114554168,None,None,002,001,2,28,f,2021_Nov_06_1955,eye_tracking_exp,2021.2.3,85.06988329469462,
90,180,168,180,0,0,180,180,0,12,None,present,inhibit,freq_bottom,,,,,0,79,79,978,,,,,0.8440928850099516,357.56001127706986,None,357.56001127706986,None,None,1,,None,None,002,001,2,28,f,2021_Nov_06_1955,eye_tracking_exp,2021.2.3,85.06988329469462,
-168,0,90,180,180,180,180,0,-168,180,f,present,resp,freq_bottom,,,,,0,80,80,853,,,,,1.0072001120741367,361.57367717110174,None,361.57367717110174,None,f,1,1.560458424166427,None,None,002,001,2,28,f,2021_Nov_06_1955,eye_tracking_exp,2021.2.3,85.06988329469462,
180,168,180,0,180,0,180,0,0,168,f,abs,resp,freq_bottom,,,,,0,81,81,258,,,,,0.9390878080190144,364.3879473056877,None,364.3879473056877,None,f,1,0.7462882014660863,None,None,002,001,2,28,f,2021_Nov_06_1955,eye_tracking_exp,2021.2.3,85.06988329469462,
90,0,180,0,180,180,12,0,180,-168,None,present,inhibit,freq_bottom,,,,,0,82,82,967,,,,,0.8769559492919263,366.3156183414103,None,366.3156183414103,None,None,1,,None,None,002,001,2,28,f,2021_Nov_06_1955,eye_tracking_exp,2021.2.3,85.06988329469462,
90,180,0,180,0,180,180,-168,0,168,f,present,resp,freq_bottom,,,,,0,83,83,896,,,,,1.0367308896831031,373.67031611700077,None,373.67031611700077,None,f,1,1.2551086706662318,None,None,002,001,2,28,f,2021_Nov_06_1955,eye_tracking_exp,2021.2.3,85.06988329469462,
0,270,180,180,180,180,168,0,-168,0,f,present,resp,freq_bottom,,,,,0,84,84,889,,,,,1.0831565301259072,376.43759264866094,None,376.43759264866094,None,f,1,0.743808213272132,None,None,002,001,2,28,f,2021_Nov_06_1955,eye_tracking_exp,2021.2.3,85.06988329469462,
12,0,180,0,90,0,0,0,12,0,j,present,resp,freq_bottom,,,,,0,85,85,545,,,,,0.9502866748828498,378.224847936217,None,378.224847936217,None,j,1,1.5005952038409305,None,None,002,001,2,28,f,2021_Nov_06_1955,eye_tracking_exp,2021.2.3,85.06988329469462,
0,12,0,0,0,0,-12,0,0,0,j,abs,resp,freq_bottom,,,,,0,86,86,166,,,,,0.9672367326369953,381.29511497262865,None,381.29511497262865,None,j,1,1.502318457562069,None,None,002,001,2,28,f,2021_Nov_06_1955,eye_tracking_exp,2021.2.3,85.06988329469462,
0,270,0,0,-12,0,0,12,0,0,j,present,resp,freq_bottom,,,,,0,87,87,652,,,,,1.04168373376868,384.1194028589307,None,384.1194028589307,None,j,1,0.9993230628679157,None,None,002,001,2,28,f,2021_Nov_06_1955,eye_tracking_exp,2021.2.3,85.06988329469462,
0,180,0,0,-168,180,0,180,168,180,f,abs,resp,freq_bottom,,,,,0,88,88,359,,,,,1.0220556842734771,386.4480163867629,None,386.4480163867629,None,f,1,1.1655806743583526,None,None,002,001,2,28,f,2021_Nov_06_1955,eye_tracking_exp,2021.2.3,85.06988329469462,
0,0,-168,0,-168,0,0,0,0,0,f,abs,resp,freq_bottom,,,,,0,89,89,329,,,,,0.7900432148052711,388.4617945684804,None,388.4617945684804,None,f,1,0.8148887316929176,None,None,002,001,2,28,f,2021_Nov_06_1955,eye_tracking_exp,2021.2.3,85.06988329469462,
0,0,270,0,168,0,180,0,180,168,f,present,resp,freq_bottom,,,,,0,90,90,759,,,,,0.9802197452677244,390.60257827010355,None,390.60257827010355,None,f,1,0.802068919314479,None,None,002,001,2,28,f,2021_Nov_06_1955,eye_tracking_exp,2021.2.3,85.06988329469462,
0,12,0,0,12,0,180,180,180,180,j,abs,resp,freq_bottom,,,,,0,91,91,12,,,,,1.0304741077951838,392.742728693338,None,392.742728693338,None,j,1,0.7740205426453031,393.5327422735063,None,002,001,2,28,f,2021_Nov_06_1955,eye_tracking_exp,2021.2.3,85.06988329469462,
0,180,0,0,180,168,180,0,0,168,f,abs,resp,freq_bottom,,,,,0,92,92,254,,,,,0.7959760834731309,394.8620621270893,None,394.8620621270893,None,f,1,0.9747344749775948,None,None,002,001,2,28,f,2021_Nov_06_1955,eye_tracking_exp,2021.2.3,85.06988329469462,
180,180,270,180,-168,180,168,180,180,180,f,present,resp,freq_bottom,,,,,0,93,93,861,,,,,0.964441920008315,397.0962085097781,None,397.0962085097781,None,f,1,1.2843242959133931,None,None,002,001,2,28,f,2021_Nov_06_1955,eye_tracking_exp,2021.2.3,85.06988329469462,
180,180,90,180,168,180,168,180,0,0,f,present,resp,freq_bottom,,,,,0,94,94,721,,,,,1.0532005925625425,399.837748523285,None,399.837748523285,None,f,1,0.7986806686531054,None,None,002,001,2,28,f,2021_Nov_06_1955,eye_tracking_exp,2021.2.3,85.06988329469462,
0,0,0,0,0,168,0,168,0,0,f,abs,resp,freq_bottom,,,,,0,95,95,224,,,,,0.726601762546114,401.41453413138515,None,401.41453413138515,None,f,1,2.085945162594726,None,None,002,001,2,28,f,2021_Nov_06_1955,eye_tracking_exp,2021.2.3,85.06988329469462,
90,0,12,180,180,-168,0,0,0,0,None,present,inhibit,freq_bottom,,,,,0,96,96,942,,,,,1.0486889258194863,404.87674645833613,None,404.87674645833613,None,None,1,,None,None,002,001,2,28,f,2021_Nov_06_1955,eye_tracking_exp,2021.2.3,85.06988329469462,
0,180,168,0,180,0,180,12,180,180,None,abs,inhibit,freq_bottom,,,,,0,97,97,472,,,,,0.7060577706553676,409.1232704451904,None,409.1232704451904,None,None,1,,None,None,002,001,2,28,f,2021_Nov_06_1955,eye_tracking_exp,2021.2.3,85.06988329469462,
0,-168,0,12,180,0,180,180,0,0,None,abs,inhibit,freq_bottom,,,,,0,98,98,476,,,,,0.8630628022779019,413.0432452468667,None,413.0432452468667,None,None,1,,None,None,002,001,2,28,f,2021_Nov_06_1955,eye_tracking_exp,2021.2.3,85.06988329469462,
180,90,0,0,-168,0,0,-168,180,180,f,present,resp,freq_bottom,,,,,0,99,99,814,,,,,0.7094619075135842,418.5734263349077,None,418.5734263349077,None,f,1,1.3107239754754119,None,None,002,001,2,28,f,2021_Nov_06_1955,eye_tracking_exp,2021.2.3,85.06988329469462,
12,0,0,180,0,12,0,0,0,0,j,abs,resp,freq_bottom,,,,,0,100,100,20,,,,,0.8569703129125388,420.79905394608795,None,420.79905394608795,None,f,0,1.212214171886444,422.0336850976455,None,002,001,2,28,f,2021_Nov_06_1955,eye_tracking_exp,2021.2.3,85.06988329469462,
180,180,12,180,168,0,180,0,180,180,None,abs,inhibit,freq_bottom,,,,,0,101,101,501,,,,,0.8061916193157355,423.7521273535531,None,423.7521273535531,None,None,1,,None,None,002,001,2,28,f,2021_Nov_06_1955,eye_tracking_exp,2021.2.3,85.06988329469462,
168,180,0,180,0,0,180,12,0,0,None,abs,inhibit,freq_bottom,,,,,0,102,102,488,,,,,1.0650154903677034,428.1405494671053,None,428.1405494671053,None,None,1,,None,None,002,001,2,28,f,2021_Nov_06_1955,eye_tracking_exp,2021.2.3,85.06988329469462,
-168,0,0,180,180,168,0,0,0,0,f,abs,resp,freq_bottom,,,,,0,103,103,370,,,,,0.9717123298363934,432.389190620117,None,432.389190620117,None,f,1,1.9262123106891522,None,None,002,001,2,28,f,2021_Nov_06_1955,eye_tracking_exp,2021.2.3,85.06988329469462,
180,180,0,180,12,180,168,180,0,180,None,abs,inhibit,freq_bottom,,,,,0,104,104,443,,,,,0.7679583183515768,435.3907816641513,None,435.3907816641513,None,None,1,,None,None,002,001,2,28,f,2021_Nov_06_1955,eye_tracking_exp,2021.2.3,85.06988329469462,
180,-168,180,90,12,0,0,0,0,180,None,present,inhibit,freq_bottom,,,,,0,105,105,981,,,,,1.0950145484905762,439.49613950718776,None,439.49613950718776,None,None,1,,None,None,002,001,2,28,f,2021_Nov_06_1955,eye_tracking_exp,2021.2.3,85.06988329469462,
180,180,90,0,0,12,0,180,12,0,j,present,resp,freq_bottom,,,,,0,106,106,540,,,,,0.7059635609926135,443.2028739610032,None,443.2028739610032,None,j,1,2.1037195180761046,None,None,002,001,2,28,f,2021_Nov_06_1955,eye_tracking_exp,2021.2.3,85.06988329469462,
0,180,-12,0,0,180,180,-12,0,180,j,abs,resp,freq_bottom,,,,,0,107,107,122,,,,,0.734735319600019,446.3805806903256,None,446.3805806903256,None,j,1,0.8144619177619461,None,None,002,001,2,28,f,2021_Nov_06_1955,eye_tracking_exp,2021.2.3,85.06988329469462,
0,90,0,168,0,168,0,0,0,0,f,present,resp,freq_bottom,,,,,0,108,108,714,,,,,0.9827656965195379,448.33397888689797,None,448.33397888689797,None,j,0,2.092734945261327,450.44235974377807,None,002,001,2,28,f,2021_Nov_06_1955,eye_tracking_exp,2021.2.3,85.06988329469462,
180,180,180,90,168,0,0,0,0,12,None,present,inhibit,freq_bottom,,,,,0,109,109,934,,,,,1.0976110817778881,452.1471988901685,None,452.1471988901685,None,j,0,1.7187716820481,453.8772822396204,None,002,001,2,28,f,2021_Nov_06_1955,eye_tracking_exp,2021.2.3,85.06988329469462,
180,0,0,180,0,168,180,180,-168,180,f,abs,resp,freq_bottom,,,,,0,110,110,386,,,,,0.8897784393686894,455.37147935099347,None,455.37147935099347,None,f,1,1.5983253324666293,None,None,002,001,2,28,f,2021_Nov_06_1955,eye_tracking_exp,2021.2.3,85.06988329469462,
0,0,-168,0,180,180,0,0,180,168,f,abs,resp,freq_bottom,,,,,0,111,111,397,,,,,0.7033000416378759,458.031606869954,None,458.031606869954,None,f,1,1.5795382748910924,None,None,002,001,2,28,f,2021_Nov_06_1955,eye_tracking_exp,2021.2.3,85.06988329469462,
180,0,180,0,168,180,0,180,12,180,None,abs,inhibit,freq_bottom,,,,,0,112,112,429,,,,,0.800868362492589,460.7380850542977,None,460.7380850542977,None,None,1,,None,None,002,001,2,28,f,2021_Nov_06_1955,eye_tracking_exp,2021.2.3,85.06988329469462,
0,180,-12,0,270,-12,180,0,180,0,j,present,resp,freq_bottom,,,,,0,113,113,624,,,,,0.990646386628032,467.3989056176797,None,467.3989056176797,None,j,1,1.37808753009449,None,None,002,001,2,28,f,2021_Nov_06_1955,eye_tracking_exp,2021.2.3,85.06988329469462,
168,180,270,180,180,12,0,0,0,0,None,present,inhibit,freq_bottom,,,,,0,114,114,990,,,,,1.0602327270542091,470.28067272396584,None,470.28067272396584,None,None,1,,None,None,002,001,2,28,f,2021_Nov_06_1955,eye_tracking_exp,2021.2.3,85.06988329469462,
-12,180,0,0,0,12,0,0,0,0,j,abs,resp,freq_bottom,,,,,0,115,115,206,,,,,0.9812704280193121,474.2820461351512,None,474.2820461351512,None,j,1,0.9910662959518959,None,None,002,001,2,28,f,2021_Nov_06_1955,eye_tracking_exp,2021.2.3,85.06988329469462,
0,0,180,-168,180,0,180,168,0,0,f,abs,resp,freq_bottom,,,,,0,116,116,381,,,,,0.9123285075223211,476.5061237537084,None,476.5061237537084,None,f,1,1.4710647504834924,None,None,002,001,2,28,f,2021_Nov_06_1955,eye_tracking_exp,2021.2.3,85.06988329469462,
180,168,180,270,180,168,180,180,180,180,f,present,resp,freq_bottom,,,,,0,117,117,733,,,,,0.749020999364115,478.76569243015547,None,478.76569243015547,None,f,1,1.4194969337113434,None,None,002,001,2,28,f,2021_Nov_06_1955,eye_tracking_exp,2021.2.3,85.06988329469462,
0,0,0,0,0,168,0,0,0,168,f,abs,resp,freq_bottom,,,,,0,118,118,226,,,,,0.8502912402360177,481.26010234479327,None,481.26010234479327,None,f,1,0.9883985579217551,None,None,002,001,2,28,f,2021_Nov_06_1955,eye_tracking_exp,2021.2.3,85.06988329469462,
180,12,180,0,180,180,-12,0,180,180,j,abs,resp,freq_bottom,,,,,0,119,119,199,,,,,1.0970167626885776,483.61326159800956,None,483.61326159800956,None,j,1,1.4032888706642552,None,None,002,001,2,28,f,2021_Nov_06_1955,eye_tracking_exp,2021.2.3,85.06988329469462,
180,0,-168,0,0,0,-168,0,0,0,f,abs,resp,freq_bottom,,,,,0,120,120,331,,,,,0.9756951727691211,486.7904796344301,None,486.7904796344301,None,f,1,1.6339000024163397,None,None,002,001,2,28,f,2021_Nov_06_1955,eye_tracking_exp,2021.2.3,85.06988329469462,
180,180,180,-168,180,180,-168,180,180,180,f,abs,resp,freq_bottom,,,,,0,121,121,281,,,,,0.769853679749604,489.4497659013141,None,489.4497659013141,None,f,1,0.9746252057811944,None,None,002,001,2,28,f,2021_Nov_06_1955,eye_tracking_exp,2021.2.3,85.06988329469462,
180,180,270,180,12,0,12,0,0,180,j,present,resp,freq_bottom,,,,,0,122,122,527,,,,,0.9940678220744023,491.98185799290513,None,491.98185799290513,None,f,0,1.6428051401599078,493.64031176132266,None,002,001,2,28,f,2021_Nov_06_1955,eye_tracking_exp,2021.2.3,85.06988329469462,
0,0,180,0,0,0,12,0,180,-168,None,abs,inhibit,freq_bottom,,,,,0,123,123,463,,,,,0.8825489549245361,495.08717236974917,None,495.08717236974917,None,j,0,1.4014008075973834,496.51169255874265,None,002,001,2,28,f,2021_Nov_06_1955,eye_tracking_exp,2021.2.3,85.06988329469462,
90,0,0,12,0,180,180,180,0,12,j,present,resp,freq_bottom,,,,,0,124,124,508,,,,,0.9964007915520094,498.57146703556646,None,498.57146703556646,None,j,1,1.7570940799050732,None,None,002,001,2,28,f,2021_Nov_06_1955,eye_tracking_exp,2021.2.3,85.06988329469462,
270,180,180,-12,180,-12,180,0,180,180,j,present,resp,freq_bottom,,,,,0,125,125,591,,,,,0.7933324370671918,508.55931642156065,None,508.55931642156065,None,j,1,1.177999329927843,None,None,002,001,2,28,f,2021_Nov_06_1955,eye_tracking_exp,2021.2.3,85.06988329469462,
180,168,0,180,0,180,168,0,180,180,f,abs,resp,freq_bottom,,,,,0,126,126,269,,,,,0.7399294469742075,510.7960478357636,None,510.7960478357636,None,f,1,1.228031642822316,None,None,002,001,2,28,f,2021_Nov_06_1955,eye_tracking_exp,2021.2.3,85.06988329469462,
0,0,-168,0,0,0,168,0,0,0,f,abs,resp,freq_bottom,,,,,0,127,127,401,,,,,0.764070181326234,513.1014036262277,None,513.1014036262277,None,f,1,1.225428500394628,None,None,002,001,2,28,f,2021_Nov_06_1955,eye_tracking_exp,2021.2.3,85.06988329469462,
270,180,-12,180,0,180,0,180,0,12,j,present,resp,freq_bottom,,,,,0,128,128,698,,,,,0.7913884214029216,515.6544083933259,None,515.6544083933259,None,j,1,1.312449643992295,None,None,002,001,2,28,f,2021_Nov_06_1955,eye_tracking_exp,2021.2.3,85.06988329469462,
90,180,0,0,168,180,180,180,168,180,f,present,resp,freq_bottom,,,,,0,129,129,723,,,,,0.7472067768248893,517.995866786965,None,517.995866786965,None,f,1,0.8430436609269236,None,None,002,001,2,28,f,2021_Nov_06_1955,eye_tracking_exp,2021.2.3,85.06988329469462,
0,90,0,-168,0,-168,0,0,0,0,f,present,resp,freq_bottom,,,,,0,130,130,784,,,,,1.0421345858708728,520.1857941591734,None,520.1857941591734,None,f,1,0.68514544487698,None,None,002,001,2,28,f,2021_Nov_06_1955,eye_tracking_exp,2021.2.3,85.06988329469462,
168,0,0,0,0,168,0,0,0,0,f,abs,resp,freq_bottom,,,,,0,131,131,230,,,,,0.7477134218298546,522.0318881928615,None,522.0318881928615,None,f,1,0.9190817409398733,None,None,002,001,2,28,f,2021_Nov_06_1955,eye_tracking_exp,2021.2.3,85.06988329469462,
90,0,180,0,-12,0,0,0,180,12,j,present,resp,freq_bottom,,,,,0,132,132,689,,,,,1.04889145595759,524.2675003524128,None,524.2675003524128,None,j,1,0.7314607939770212,None,None,002,001,2,28,f,2021_Nov_06_1955,eye_tracking_exp,2021.2.3,85.06988329469462,
12,0,180,0,90,0,0,0,-12,0,j,present,resp,freq_bottom,,,,,0,133,133,685,,,,,0.7091966595113933,525.9622601699593,None,525.9622601699593,None,j,1,1.7407670885077096,None,None,002,001,2,28,f,2021_Nov_06_1955,eye_tracking_exp,2021.2.3,85.06988329469462,
0,270,0,-12,180,0,180,0,0,12,j,present,resp,freq_bottom,,,,,0,134,134,690,,,,,0.8276251852699221,528.8450309228865,None,528.8450309228865,None,j,1,1.1770856341827312,None,None,002,001,2,28,f,2021_Nov_06_1955,eye_tracking_exp,2021.2.3,85.06988329469462,
180,270,180,12,180,0,12,180,0,180,j,present,resp,freq_bottom,,,,,0,135,135,505,,,,,0.756065175624664,531.0690246275262,None,531.0690246275262,None,j,1,0.8411070002330234,None,None,002,001,2,28,f,2021_Nov_06_1955,eye_tracking_exp,2021.2.3,85.06988329469462,
168,0,168,180,90,180,0,0,180,180,f,present,resp,freq_bottom,,,,,0,136,136,777,,,,,0.9025937495872943,533.8579059735566,None,533.8579059735566,None,f,1,1.7162910901533905,None,None,002,001,2,28,f,2021_Nov_06_1955,eye_tracking_exp,2021.2.3,85.06988329469462,
180,180,0,180,-12,0,180,180,-12,180,j,abs,resp,freq_bottom,,,,,0,137,137,79,,,,,0.9675042320165039,536.83516651026,None,536.83516651026,None,j,1,1.2670727422300843,None,None,002,001,2,28,f,2021_Nov_06_1955,eye_tracking_exp,2021.2.3,85.06988329469462,
180,270,0,12,180,0,0,180,0,-168,None,present,inhibit,freq_bottom,,,,,0,138,138,970,,,,,0.8598323307702191,539.270849664601,None,539.270849664601,None,None,1,,None,None,002,001,2,28,f,2021_Nov_06_1955,eye_tracking_exp,2021.2.3,85.06988329469462,
0,-12,0,180,180,180,0,-12,0,0,j,abs,resp,freq_bottom,,,,,0,139,139,130,,,,,0.7275103608102086,543.0132493429555,None,543.0132493429555,None,j,1,1.776074320594489,None,None,002,001,2,28,f,2021_Nov_06_1955,eye_tracking_exp,2021.2.3,85.06988329469462,
180,-12,180,180,270,180,0,180,-12,180,j,present,resp,freq_bottom,,,,,0,140,140,635,,,,,0.8652881823105747,546.2502294804071,None,546.2502294804071,None,j,1,0.7631331650773063,None,None,002,001,2,28,f,2021_Nov_06_1955,eye_tracking_exp,2021.2.3,85.06988329469462,
168,0,180,180,0,180,-168,180,180,180,f,abs,resp,freq_bottom,,,,,0,141,141,377,,,,,1.0424829273859035,548.4506907654577,None,548.4506907654577,None,f,1,1.0439993740001228,None,None,002,001,2,28,f,2021_Nov_06_1955,eye_tracking_exp,2021.2.3,85.06988329469462,
270,180,-12,180,180,12,180,180,180,180,j,present,resp,freq_bottom,,,,,0,142,142,694,,,,,0.7070051354464503,550.5332852991633,None,550.5332852991633,None,j,1,1.424154155931319,None,None,002,001,2,28,f,2021_Nov_06_1955,eye_tracking_exp,2021.2.3,85.06988329469462,
12,180,90,180,168,0,180,0,180,180,None,present,inhibit,freq_bottom,,,,,0,143,143,1007,,,,,0.8157190849692645,553.0531144890701,None,553.0531144890701,None,None,1,,None,None,002,001,2,28,f,2021_Nov_06_1955,eye_tracking_exp,2021.2.3,85.06988329469462,
270,180,12,180,180,180,180,12,180,180,j,present,resp,freq_bottom,,,,,0,144,144,556,,,,,1.0873939412802451,557.1470346845235,None,557.1470346845235,None,j,1,1.0191665905877016,None,None,002,001,2,28,f,2021_Nov_06_1955,eye_tracking_exp,2021.2.3,85.06988329469462,
0,0,12,0,180,180,180,180,180,-168,None,abs,inhibit,freq_bottom,,,,,0,145,145,467,,,,,0.8389474808867963,559.3944295046167,None,559.3944295046167,None,None,1,,None,None,002,001,2,28,f,2021_Nov_06_1955,eye_tracking_exp,2021.2.3,85.06988329469462,
0,270,0,0,12,0,0,12,0,0,j,present,resp,freq_bottom,,,,,0,146,146,512,,,,,0.9106932712968943,563.3373535543724,None,563.3373535543724,None,j,1,1.0038716195922461,None,None,002,001,2,28,f,2021_Nov_06_1955,eye_tracking_exp,2021.2.3,85.06988329469462,
0,0,12,0,180,180,180,180,168,0,None,abs,inhibit,freq_bottom,,,,,0,147,147,459,,,,,1.0711809490293578,565.7978036891363,None,565.7978036891363,None,None,1,,None,None,002,001,2,28,f,2021_Nov_06_1955,eye_tracking_exp,2021.2.3,85.06988329469462,
180,12,180,180,0,180,0,180,-12,180,j,abs,resp,freq_bottom,,,,,0,148,148,201,,,,,1.0668408112784196,569.8693236991312,None,569.8693236991312,None,j,1,1.0964766606484773,None,None,002,001,2,28,f,2021_Nov_06_1955,eye_tracking_exp,2021.2.3,85.06988329469462,
180,180,0,-168,180,0,180,0,0,168,f,abs,resp,freq_bottom,,,,,0,149,149,396,,,,,1.0821830945932103,572.3518785095584,None,572.3518785095584,None,f,1,1.3002389621105976,None,None,002,001,2,28,f,2021_Nov_06_1955,eye_tracking_exp,2021.2.3,85.06988329469462,
0,0,168,0,0,0,0,0,-168,0,f,abs,resp,freq_bottom,,,,,0,150,150,389,,,,,0.8344617423045084,574.8239944894522,None,574.8239944894522,None,f,1,1.084845528101141,None,None,002,001,2,28,f,2021_Nov_06_1955,eye_tracking_exp,2021.2.3,85.06988329469462,
0,12,0,0,0,180,180,180,0,12,j,abs,resp,freq_bottom,,,,,0,151,151,62,,,,,0.9974817834182054,576.9668684927092,None,576.9668684927092,None,f,0,1.8210114289322519,578.8127165197875,None,002,001,2,28,f,2021_Nov_06_1955,eye_tracking_exp,2021.2.3,85.06988329469462,
0,12,180,0,270,0,180,180,12,180,j,present,resp,freq_bottom,,,,,0,152,152,565,,,,,0.8136378971969078,580.1664547186374,None,580.1664547186374,None,j,1,1.1336031343089417,None,None,002,001,2,28,f,2021_Nov_06_1955,eye_tracking_exp,2021.2.3,85.06988329469462,
0,0,0,180,12,0,0,0,12,0,j,abs,resp,freq_bottom,,,,,0,153,153,37,,,,,0.974207900143911,582.3193156850539,None,582.3193156850539,None,j,1,1.573141800960002,None,None,002,001,2,28,f,2021_Nov_06_1955,eye_tracking_exp,2021.2.3,85.06988329469462,
-12,180,180,0,0,-12,0,0,0,0,j,abs,resp,freq_bottom,,,,,0,154,154,136,,,,,0.8187879933027634,585.2730145228415,None,585.2730145228415,None,j,1,0.9711355339823058,None,None,002,001,2,28,f,2021_Nov_06_1955,eye_tracking_exp,2021.2.3,85.06988329469462,
180,12,0,270,180,180,0,180,12,180,j,present,resp,freq_bottom,,,,,0,155,155,544,,,,,0.7526686544465067,587.4378015278999,None,587.4378015278999,None,j,1,0.9023819665162591,None,None,002,001,2,28,f,2021_Nov_06_1955,eye_tracking_exp,2021.2.3,85.06988329469462,
-12,0,0,-168,0,0,270,0,0,0,None,present,inhibit,freq_bottom,,,,,0,156,156,1000,,,,,0.8974646988319143,589.579563822721,None,589.579563822721,None,None,1,,None,None,002,001,2,28,f,2021_Nov_06_1955,eye_tracking_exp,2021.2.3,85.06988329469462,
180,0,180,180,168,180,-168,180,180,180,f,abs,resp,freq_bottom,,,,,0,157,157,373,,,,,0.9067524307083893,593.4984960392976,None,593.4984960392976,None,f,1,1.6418340931704734,None,None,002,001,2,28,f,2021_Nov_06_1955,eye_tracking_exp,2021.2.3,85.06988329469462,
180,0,0,180,180,12,180,180,0,12,j,abs,resp,freq_bottom,,,,,0,158,158,44,,,,,1.0051446661211132,596.4755606762556,None,596.4755606762556,None,j,1,0.7607929327859893,None,None,002,001,2,28,f,2021_Nov_06_1955,eye_tracking_exp,2021.2.3,85.06988329469462,
0,270,180,180,-168,0,0,180,-168,0,f,present,resp,freq_bottom,,,,,0,159,159,821,,,,,1.0897716673709565,598.4526751182275,None,598.4526751182275,None,f,1,1.790628555099829,None,None,002,001,2,28,f,2021_Nov_06_1955,eye_tracking_exp,2021.2.3,85.06988329469462,
0,0,90,180,168,180,180,180,168,0,f,present,resp,freq_bottom,,,,,0,160,160,751,,,,,1.0675709597971965,601.8653163569688,None,601.8653163569688,None,f,1,0.8752768667472992,None,None,002,001,2,28,f,2021_Nov_06_1955,eye_tracking_exp,2021.2.3,85.06988329469462,
180,0,-12,180,0,180,0,180,0,-12,j,abs,resp,freq_bottom,,,,,0,161,161,124,,,,,0.8902748522604944,603.6889763981599,None,603.6889763981599,None,j,1,1.050512361485744,None,None,002,001,2,28,f,2021_Nov_06_1955,eye_tracking_exp,2021.2.3,85.06988329469462,
270,180,12,180,180,0,12,180,0,0,j,present,resp,freq_bottom,,,,,0,162,162,529,,,,,1.037476485978877,606.0318897021061,None,606.0318897021061,None,j,1,0.8184988410866936,None,None,002,001,2,28,f,2021_Nov_06_1955,eye_tracking_exp,2021.2.3,85.06988329469462,
180,180,168,0,0,0,0,168,0,180,f,abs,resp,freq_bottom,,,,,0,163,163,242,,,,,0.7302045006908868,607.6548919548004,None,607.6548919548004,None,j,0,1.2915408925255178,608.9728864484787,None,002,001,2,28,f,2021_Nov_06_1955,eye_tracking_exp,2021.2.3,85.06988329469462,
0,270,180,180,180,168,0,-168,0,0,f,present,resp,freq_bottom,,,,,0,164,164,868,,,,,1.0278564106670807,610.5492383001256,None,610.5492383001256,None,j,0,2.173283247218933,612.7382103214768,None,002,001,2,28,f,2021_Nov_06_1955,eye_tracking_exp,2021.2.3,85.06988329469462,
180,-12,0,180,0,180,0,180,0,12,j,abs,resp,freq_bottom,,,,,0,165,165,188,,,,,1.0600416610913443,614.585317962803,None,614.585317962803,None,j,1,1.0652317071799189,None,None,002,001,2,28,f,2021_Nov_06_1955,eye_tracking_exp,2021.2.3,85.06988329469462,
0,-12,180,180,0,180,180,-12,0,0,j,abs,resp,freq_bottom,,,,,0,166,166,103,,,,,0.7378854629589336,616.6681286201128,None,616.6681286201128,None,j,1,1.6875551023476874,None,None,002,001,2,28,f,2021_Nov_06_1955,eye_tracking_exp,2021.2.3,85.06988329469462,
180,270,0,0,0,0,0,-168,0,-168,f,present,resp,freq_bottom,,,,,0,167,167,812,,,,,0.8704616746308831,623.0709724566186,None,623.0709724566186,None,f,1,1.1707827333302703,None,None,002,001,2,28,f,2021_Nov_06_1955,eye_tracking_exp,2021.2.3,85.06988329469462,
180,-12,180,0,180,12,180,0,180,0,j,abs,resp,freq_bottom,,,,,0,168,168,159,,,,,0.8191527895799968,628.0825709895144,None,628.0825709895144,None,j,1,1.1352433796637342,629.2370670698583,None,002,001,2,28,f,2021_Nov_06_1955,eye_tracking_exp,2021.2.3,85.06988329469462,
0,0,-168,0,168,0,0,0,0,0,f,abs,resp,freq_bottom,,,,,0,169,169,399,,,,,0.829847542101624,630.6118625296949,None,630.6118625296949,None,f,1,1.1980016300221905,None,None,002,001,2,28,f,2021_Nov_06_1955,eye_tracking_exp,2021.2.3,85.06988329469462,
90,180,168,0,0,180,180,12,180,180,None,present,inhibit,freq_bottom,,,,,0,170,170,976,,,,,0.9623631614228096,633.0597479141506,None,633.0597479141506,None,None,1,,None,None,002,001,2,28,f,2021_Nov_06_1955,eye_tracking_exp,2021.2.3,85.06988329469462,
180,180,0,180,180,12,180,180,0,-168,None,abs,inhibit,freq_bottom,,,,,0,171,171,464,,,,,0.8759786173697554,637.2733885132766,None,637.2733885132766,None,None,1,,None,None,002,001,2,28,f,2021_Nov_06_1955,eye_tracking_exp,2021.2.3,85.06988329469462,
0,-168,0,-168,180,0,180,180,0,0,f,abs,resp,freq_bottom,,,,,0,172,172,336,,,,,1.005171561690383,641.7213255138486,None,641.7213255138486,None,f,1,1.9276795967889484,None,None,002,001,2,28,f,2021_Nov_06_1955,eye_tracking_exp,2021.2.3,85.06988329469462,
0,0,0,-168,0,0,0,-168,0,0,f,abs,resp,freq_bottom,,,,,0,173,173,282,,,,,0.9611764583003664,644.8987946883135,None,644.8987946883135,None,f,1,0.8463141906322562,None,None,002,001,2,28,f,2021_Nov_06_1955,eye_tracking_exp,2021.2.3,85.06988329469462,
0,180,168,0,180,180,180,180,0,12,None,abs,inhibit,freq_bottom,,,,,0,174,174,474,,,,,0.9444472164319337,646.7349850690589,None,646.7349850690589,None,None,1,,None,None,002,001,2,28,f,2021_Nov_06_1955,eye_tracking_exp,2021.2.3,85.06988329469462,
180,180,0,168,180,180,90,180,-168,180,f,present,resp,freq_bottom,,,,,0,175,175,892,,,,,0.7415494939807772,652.9722685643719,None,652.9722685643719,None,f,1,1.7320545301918173,None,None,002,001,2,28,f,2021_Nov_06_1955,eye_tracking_exp,2021.2.3,85.06988329469462,
180,168,180,180,0,180,0,180,168,180,f,abs,resp,freq_bottom,,,,,0,176,176,271,,,,,0.825038720609766,656.3130885481951,None,656.3130885481951,None,f,1,0.7271950693975668,None,None,002,001,2,28,f,2021_Nov_06_1955,eye_tracking_exp,2021.2.3,85.06988329469462,
168,0,0,180,270,180,168,180,180,180,f,present,resp,freq_bottom,,,,,0,177,177,781,,,,,0.7704725555315972,657.9485843149232,None,657.9485843149232,None,f,1,1.2517469826780143,None,None,002,001,2,28,f,2021_Nov_06_1955,eye_tracking_exp,2021.2.3,85.06988329469462,
180,270,0,0,168,0,0,168,180,0,f,present,resp,freq_bottom,,,,,0,178,178,744,,,,,0.9691071065288803,660.5019721279023,None,660.5019721279023,None,f,1,0.9063980622886447,None,None,002,001,2,28,f,2021_Nov_06_1955,eye_tracking_exp,2021.2.3,85.06988329469462,
0,0,180,180,180,180,12,0,168,0,None,abs,inhibit,freq_bottom,,,,,0,179,179,455,,,,,0.7607154561769174,662.8081196672792,None,662.8081196672792,None,j,0,1.2402728114102501,664.0788633830161,None,002,001,2,28,f,2021_Nov_06_1955,eye_tracking_exp,2021.2.3,85.06988329469462,
270,0,12,0,0,12,180,180,180,0,j,present,resp,freq_bottom,,,,,0,180,180,522,,,,,0.9151485350528614,667.1494645658458,None,667.1494645658458,None,j,1,1.7150136668351479,None,None,002,001,2,28,f,2021_Nov_06_1955,eye_tracking_exp,2021.2.3,85.06988329469462,
0,-168,0,0,270,0,180,180,180,-168,f,present,resp,freq_bottom,,,,,0,181,181,846,,,,,1.006462817619524,670.3855518351047,None,670.3855518351047,None,j,0,1.725985863857204,672.1392551402605,None,002,001,2,28,f,2021_Nov_06_1955,eye_tracking_exp,2021.2.3,85.06988329469462,
0,0,180,0,0,0,12,0,180,12,j,abs,resp,freq_bottom,,,,,0,182,182,43,,,,,0.8163605743846787,676.0569866030564,None,676.0569866030564,None,j,1,1.4466506310927798,None,None,002,001,2,28,f,2021_Nov_06_1955,eye_tracking_exp,2021.2.3,85.06988329469462,
180,-12,180,0,180,0,-12,0,180,180,j,abs,resp,freq_bottom,,,,,0,183,183,129,,,,,0.7702993765196806,678.6229771992657,None,678.6229771992657,None,j,1,1.968655847638729,None,None,002,001,2,28,f,2021_Nov_06_1955,eye_tracking_exp,2021.2.3,85.06988329469462,
0,180,12,180,0,180,180,12,180,180,j,abs,resp,freq_bottom,,,,,0,184,184,52,,,,,0.887131873157381,681.7537229253139,None,681.7537229253139,None,j,1,0.9500689156993758,None,None,002,001,2,28,f,2021_Nov_06_1955,eye_tracking_exp,2021.2.3,85.06988329469462,
180,180,0,0,0,0,0,-168,0,-168,f,abs,resp,freq_bottom,,,,,0,185,185,308,,,,,0.9090499192094116,684.2478521207449,None,684.2478521207449,None,f,1,1.8632418607594445,None,None,002,001,2,28,f,2021_Nov_06_1955,eye_tracking_exp,2021.2.3,85.06988329469462,
180,180,-12,0,0,0,0,-12,180,0,j,abs,resp,freq_bottom,,,,,0,186,186,102,,,,,0.7439239652883604,690.4838105006493,None,690.4838105006493,None,f,0,1.307951194132329,691.8157799813416,None,002,001,2,28,f,2021_Nov_06_1955,eye_tracking_exp,2021.2.3,85.06988329469462,
12,0,0,0,270,180,12,180,180,180,j,present,resp,freq_bottom,,,,,0,187,187,571,,,,,0.7927540772619077,693.2027393365206,None,693.2027393365206,None,j,1,1.7081949067069218,694.9435793630983,None,002,001,2,28,f,2021_Nov_06_1955,eye_tracking_exp,2021.2.3,85.06988329469462,
180,180,0,180,180,-168,180,180,0,168,f,abs,resp,freq_bottom,,,,,0,188,188,394,,,,,0.7003115863230858,696.6259295805357,None,696.6259295805357,None,f,1,1.77307213430322,None,None,002,001,2,28,f,2021_Nov_06_1955,eye_tracking_exp,2021.2.3,85.06988329469462,
-12,180,180,270,0,12,180,180,180,0,j,present,resp,freq_bottom,,,,,0,189,189,710,,,,,0.9783402704404511,699.6868975667676,None,699.6868975667676,None,j,1,1.671214527763368,None,None,002,001,2,28,f,2021_Nov_06_1955,eye_tracking_exp,2021.2.3,85.06988329469462,
90,180,180,180,180,-168,180,180,-168,180,f,present,resp,freq_bottom,,,,,0,190,190,799,,,,,0.7320872443187535,702.2973966462814,None,702.2973966462814,None,f,1,1.3966961951373378,None,None,002,001,2,28,f,2021_Nov_06_1955,eye_tracking_exp,2021.2.3,85.06988329469462,
168,0,270,180,168,180,0,0,180,180,f,present,resp,freq_bottom,,,,,0,191,191,779,,,,,0.7503400416667914,704.7454568010871,None,704.7454568010871,None,f,1,1.348683551310387,None,None,002,001,2,28,f,2021_Nov_06_1955,eye_tracking_exp,2021.2.3,85.06988329469462,
180,180,0,12,180,0,180,0,168,0,None,abs,inhibit,freq_bottom,,,,,0,192,192,458,,,,,0.9171926876580582,707.4513071403198,None,707.4513071403198,None,None,1,,None,None,002,001,2,28,f,2021_Nov_06_1955,eye_tracking_exp,2021.2.3,85.06988329469462,
-12,0,90,0,0,-12,0,0,0,0,j,present,resp,freq_bottom,,,,,0,193,193,594,,,,,0.9963599678220108,711.8765131293621,None,711.8765131293621,None,j,1,1.3857472404561122,None,None,002,001,2,28,f,2021_Nov_06_1955,eye_tracking_exp,2021.2.3,85.06988329469462,
0,270,0,12,0,0,0,-12,0,0,j,present,resp,freq_bottom,,,,,0,194,194,646,,,,,0.8308790535792979,714.3591177448106,None,714.3591177448106,None,j,1,2.1822218901579618,None,None,002,001,2,28,f,2021_Nov_06_1955,eye_tracking_exp,2021.2.3,85.06988329469462,
270,180,0,-12,180,180,0,180,0,-12,j,present,resp,freq_bottom,,,,,0,195,195,620,,,,,0.915689063789412,717.8664510058952,None,717.8664510058952,None,j,1,1.7630039738724008,None,None,002,001,2,28,f,2021_Nov_06_1955,eye_tracking_exp,2021.2.3,85.06988329469462,
180,0,168,0,0,180,180,0,168,0,f,abs,resp,freq_bottom,,,,,0,196,196,263,,,,,0.8019299453247206,724.2317874357977,None,724.2317874357977,None,f,1,1.62170441296621,None,None,002,001,2,28,f,2021_Nov_06_1955,eye_tracking_exp,2021.2.3,85.06988329469462,
-12,180,0,180,0,180,180,-12,0,0,j,abs,resp,freq_bottom,,,,,0,197,197,138,,,,,1.0755865517614231,728.8205748465334,None,728.8205748465334,None,j,1,1.257007600273937,None,None,002,001,2,28,f,2021_Nov_06_1955,eye_tracking_exp,2021.2.3,85.06988329469462,
0,0,0,-12,0,0,0,-12,0,0,j,abs,resp,freq_bottom,,,,,0,198,198,72,,,,,0.8851044221025743,731.7269718939715,None,731.7269718939715,None,j,1,0.9736375571228564,None,None,002,001,2,28,f,2021_Nov_06_1955,eye_tracking_exp,2021.2.3,85.06988329469462,
168,0,180,0,180,180,180,0,12,180,None,abs,inhibit,freq_bottom,,,,,0,199,199,489,,,,,0.7476834199127209,733.8573040874253,None,733.8573040874253,None,None,1,,None,None,002,001,2,28,f,2021_Nov_06_1955,eye_tracking_exp,2021.2.3,85.06988329469462,
-12,180,180,180,270,180,180,-12,0,0,j,present,resp,freq_bottom,,,,,0,200,200,642,,,,,1.0448998786628325,738.3668674060609,None,738.3668674060609,None,j,1,2.0938424278137973,None,None,002,001,2,28,f,2021_Nov_06_1955,eye_tracking_exp,2021.2.3,85.06988329469462,
-168,0,0,0,0,-168,0,0,0,0,f,abs,resp,freq_bottom,,,,,0,201,201,300,,,,,0.9039843220958356,741.7655267152659,None,741.7655267152659,None,f,1,1.448489492839144,None,None,002,001,2,28,f,2021_Nov_06_1955,eye_tracking_exp,2021.2.3,85.06988329469462,
0,0,0,-168,180,180,180,180,0,12,None,abs,inhibit,freq_bottom,,,,,0,202,202,424,,,,,0.8484035711673522,744.4012772422138,None,744.4012772422138,None,None,1,,None,None,002,001,2,28,f,2021_Nov_06_1955,eye_tracking_exp,2021.2.3,85.06988329469462,
12,0,270,0,0,12,0,0,0,0,j,present,resp,freq_bottom,,,,,0,203,203,524,,,,,0.7210451663447183,748.4018456231497,None,748.4018456231497,None,j,1,1.3860684073806624,None,None,002,001,2,28,f,2021_Nov_06_1955,eye_tracking_exp,2021.2.3,85.06988329469462,
0,0,0,0,12,180,180,180,180,12,j,abs,resp,freq_bottom,,,,,0,204,204,10,,,,,0.9580262688676244,750.9200626396268,None,750.9200626396268,None,j,1,0.8518564329860965,None,None,002,001,2,28,f,2021_Nov_06_1955,eye_tracking_exp,2021.2.3,85.06988329469462,
0,180,0,180,168,180,-12,180,0,180,None,abs,inhibit,freq_bottom,,,,,0,205,205,497,,,,,1.0558436858204685,752.8857306804057,None,752.8857306804057,None,None,1,,None,None,002,001,2,28,f,2021_Nov_06_1955,eye_tracking_exp,2021.2.3,85.06988329469462,
0,0,0,0,168,0,0,12,0,0,None,abs,inhibit,freq_bottom,,,,,0,206,206,428,,,,,0.7914778653418519,757.0623972394169,None,757.0623972394169,None,None,1,,None,None,002,001,2,28,f,2021_Nov_06_1955,eye_tracking_exp,2021.2.3,85.06988329469462,
-168,0,90,0,180,180,180,0,-168,0,f,present,resp,freq_bottom,,,,,0,207,207,825,,,,,0.8503575941665537,761.5100779705172,None,761.5100779705172,None,f,1,1.6690946449671173,None,None,002,001,2,28,f,2021_Nov_06_1955,eye_tracking_exp,2021.2.3,85.06988329469462,
90,0,0,180,180,180,-168,0,0,168,f,present,resp,freq_bottom,,,,,0,208,208,876,,,,,0.9602812672947529,764.4307440055127,None,764.4307440055127,None,f,1,1.8204650829356979,None,None,002,001,2,28,f,2021_Nov_06_1955,eye_tracking_exp,2021.2.3,85.06988329469462,
0,0,180,-12,180,0,180,-12,0,0,j,abs,resp,freq_bottom,,,,,0,209,209,101,,,,,0.8394874104897299,785.1361053500004,None,785.1361053500004,None,j,1,1.1321551665241714,None,None,002,001,2,28,f,2021_Nov_06_1955,eye_tracking_exp,2021.2.3,85.06988329469462,
0,270,0,0,0,0,-168,0,0,-168,f,present,resp,freq_bottom,,,,,0,210,210,806,,,,,0.8149692450626949,787.4783370797813,None,787.4783370797813,None,f,1,0.9813289615922258,None,None,002,001,2,28,f,2021_Nov_06_1955,eye_tracking_exp,2021.2.3,85.06988329469462,
90,180,0,0,0,-12,180,180,-12,0,j,present,resp,freq_bottom,,,,,0,211,211,610,,,,,0.9058885811121311,789.8903891100272,None,789.8903891100272,None,f,0,1.5922723622643389,791.5034113420843,None,002,001,2,28,f,2021_Nov_06_1955,eye_tracking_exp,2021.2.3,85.06988329469462,
180,-12,0,180,-12,0,0,0,180,180,j,abs,resp,freq_bottom,,,,,0,212,212,127,,,,,0.7771749253547346,792.8455956816324,None,792.8455956816324,None,j,1,1.4361028332132264,None,None,002,001,2,28,f,2021_Nov_06_1955,eye_tracking_exp,2021.2.3,85.06988329469462,
168,0,270,180,180,180,180,168,180,180,f,present,resp,freq_bottom,,,,,0,213,213,748,,,,,0.8008737076302712,795.4443549631033,None,795.4443549631033,None,f,1,2.1173727344721556,None,None,002,001,2,28,f,2021_Nov_06_1955,eye_tracking_exp,2021.2.3,85.06988329469462,
180,180,12,180,12,180,0,180,0,180,j,abs,resp,freq_bottom,,,,,0,214,214,11,,,,,0.8821266174372389,798.7272752518256,None,798.7272752518256,None,j,1,1.218494132248452,None,None,002,001,2,28,f,2021_Nov_06_1955,eye_tracking_exp,2021.2.3,85.06988329469462,
90,180,180,-12,0,0,180,180,-12,0,j,present,resp,freq_bottom,,,,,0,215,215,577,,,,,0.9591837242017675,801.2110567750133,None,801.2110567750133,None,j,1,1.0227459114175872,None,None,002,001,2,28,f,2021_Nov_06_1955,eye_tracking_exp,2021.2.3,85.06988329469462,
168,0,180,0,180,0,168,180,180,180,f,abs,resp,freq_bottom,,,,,0,216,216,237,,,,,0.8519422181530867,803.212323029933,None,803.212323029933,None,f,1,0.9890843579632929,None,None,002,001,2,28,f,2021_Nov_06_1955,eye_tracking_exp,2021.2.3,85.06988329469462,
12,0,12,0,0,0,0,0,180,180,j,abs,resp,freq_bottom,,,,,0,217,217,55,,,,,0.8472783976435755,805.3891876016278,None,805.3891876016278,None,j,1,2.2527165204228368,None,None,002,001,2,28,f,2021_Nov_06_1955,eye_tracking_exp,2021.2.3,85.06988329469462,
90,0,-168,0,168,0,180,180,180,180,f,present,resp,freq_bottom,,,,,0,218,218,903,,,,,0.9604519716538884,808.9534775827633,None,808.9534775827633,None,f,1,1.567502363359381,None,None,002,001,2,28,f,2021_Nov_06_1955,eye_tracking_exp,2021.2.3,85.06988329469462,
180,12,180,90,180,12,0,180,0,180,j,present,resp,freq_bottom,,,,,0,219,219,523,,,,,0.8125605044875016,811.6598881530153,None,811.6598881530153,None,j,1,0.7491907777075539,812.4255727351047,None,002,001,2,28,f,2021_Nov_06_1955,eye_tracking_exp,2021.2.3,85.06988329469462,
-168,180,90,180,-168,180,0,180,0,180,f,present,resp,freq_bottom,,,,,0,220,220,797,,,,,0.9958332634607059,814.0485457084869,None,814.0485457084869,None,f,1,0.8085601737038814,None,None,002,001,2,28,f,2021_Nov_06_1955,eye_tracking_exp,2021.2.3,85.06988329469462,
90,180,12,0,180,180,180,-168,180,180,None,present,inhibit,freq_bottom,,,,,0,221,221,956,,,,,1.0011246189279686,816.2619070976434,None,816.2619070976434,None,None,1,,None,None,002,001,2,28,f,2021_Nov_06_1955,eye_tracking_exp,2021.2.3,85.06988329469462,
12,0,0,90,0,180,12,180,0,180,j,present,resp,freq_bottom,,,,,0,222,222,531,,,,,0.8310236423517875,820.521203204793,None,820.521203204793,None,j,1,1.120001534029143,None,None,002,001,2,28,f,2021_Nov_06_1955,eye_tracking_exp,2021.2.3,85.06988329469462,
180,180,0,0,180,180,180,168,0,168,f,abs,resp,freq_bottom,,,,,0,223,223,238,,,,,1.0808967323426297,822.7808183659217,None,822.7808183659217,None,f,1,0.796360660220671,None,None,002,001,2,28,f,2021_Nov_06_1955,eye_tracking_exp,2021.2.3,85.06988329469462,
180,180,0,0,270,180,180,12,0,-12,j,present,resp,freq_bottom,,,,,0,224,224,672,,,,,0.949949289749815,824.9458151557628,None,824.9458151557628,None,j,1,1.1104688530322164,None,None,002,001,2,28,f,2021_Nov_06_1955,eye_tracking_exp,2021.2.3,85.06988329469462,
0,270,0,0,168,0,0,168,0,0,f,present,resp,freq_bottom,,,,,0,225,225,722,,,,,0.827857551496731,827.2877239075315,None,827.2877239075315,None,f,1,1.1365404231473804,None,None,002,001,2,28,f,2021_Nov_06_1955,eye_tracking_exp,2021.2.3,85.06988329469462,
180,180,168,0,270,0,0,168,0,180,f,present,resp,freq_bottom,,,,,0,226,226,746,,,,,0.71388841168739,829.6529854789696,None,829.6529854789696,None,f,1,1.3153570498107001,None,None,002,001,2,28,f,2021_Nov_06_1955,eye_tracking_exp,2021.2.3,85.06988329469462,
-12,180,180,-12,0,180,180,180,0,0,j,abs,resp,freq_bottom,,,,,0,227,227,134,,,,,0.9462726247523183,832.2546920102832,None,832.2546920102832,None,j,1,0.937694933716557,None,None,002,001,2,28,f,2021_Nov_06_1955,eye_tracking_exp,2021.2.3,85.06988329469462,
-12,0,0,90,0,0,0,0,-12,180,j,present,resp,freq_bottom,,,,,0,228,228,643,,,,,1.0292773952678398,834.7714640774502,None,834.7714640774502,None,j,1,0.8705858374814852,None,None,002,001,2,28,f,2021_Nov_06_1955,eye_tracking_exp,2021.2.3,85.06988329469462,
0,90,0,0,0,-12,0,-12,0,0,j,present,resp,freq_bottom,,,,,0,229,229,588,,,,,0.8465794007425699,837.0896330396281,None,837.0896330396281,None,j,1,1.2234885193756782,None,None,002,001,2,28,f,2021_Nov_06_1955,eye_tracking_exp,2021.2.3,85.06988329469462,
180,-12,180,-168,0,180,0,90,180,180,None,present,inhibit,freq_bottom,,,,,0,230,230,999,,,,,0.9443179714337888,839.6195346158493,None,839.6195346158493,None,None,1,,None,None,002,001,2,28,f,2021_Nov_06_1955,eye_tracking_exp,2021.2.3,85.06988329469462,
12,0,0,12,0,0,90,180,180,0,j,present,resp,freq_bottom,,,,,0,231,231,510,,,,,0.776316339360106,843.6559834393775,None,843.6559834393775,None,j,1,1.4396163510537008,None,None,002,001,2,28,f,2021_Nov_06_1955,eye_tracking_exp,2021.2.3,85.06988329469462,
12,0,180,0,-12,180,180,0,180,180,j,abs,resp,freq_bottom,,,,,0,232,232,153,,,,,1.0011850769013197,846.4218756933114,None,846.4218756933114,None,j,1,0.7217482112027938,None,None,002,001,2,28,f,2021_Nov_06_1955,eye_tracking_exp,2021.2.3,85.06988329469462,
12,0,90,180,180,180,0,0,168,0,None,present,inhibit,freq_bottom,,,,,0,233,233,965,,,,,0.9442544349779485,848.5286546396092,None,848.5286546396092,None,None,1,,None,None,002,001,2,28,f,2021_Nov_06_1955,eye_tracking_exp,2021.2.3,85.06988329469462,
180,0,0,0,12,0,0,12,180,180,j,abs,resp,freq_bottom,,,,,0,234,234,30,,,,,1.098442982276287,853.351827497143,None,853.351827497143,None,j,1,1.7119031168986112,None,None,002,001,2,28,f,2021_Nov_06_1955,eye_tracking_exp,2021.2.3,85.06988329469462,
0,0,12,0,180,180,180,0,12,0,j,abs,resp,freq_bottom,,,,,0,235,235,39,,,,,1.0713791903671637,856.5525538052752,None,856.5525538052752,None,j,1,0.7502176666894229,None,None,002,001,2,28,f,2021_Nov_06_1955,eye_tracking_exp,2021.2.3,85.06988329469462,
0,90,0,-168,180,180,180,12,0,0,None,present,inhibit,freq_bottom,,,,,0,236,236,926,,,,,0.7965309454288929,858.3775096825484,None,858.3775096825484,None,None,1,,None,None,002,001,2,28,f,2021_Nov_06_1955,eye_tracking_exp,2021.2.3,85.06988329469462,
180,12,0,270,180,-168,180,180,0,180,None,present,inhibit,freq_bottom,,,,,0,237,237,943,,,,,0.9200608562231354,862.3778299439291,None,862.3778299439291,None,j,0,1.6290354101947742,864.0274196260216,None,002,001,2,28,f,2021_Nov_06_1955,eye_tracking_exp,2021.2.3,85.06988329469462,
180,0,-12,180,180,180,180,0,12,0,j,abs,resp,freq_bottom,,,,,0,238,238,193,,,,,1.003294269428857,865.579013854549,None,865.579013854549,None,j,1,1.4995586557051865,None,None,002,001,2,28,f,2021_Nov_06_1955,eye_tracking_exp,2021.2.3,85.06988329469462,
0,90,0,-168,0,0,180,180,180,12,None,present,inhibit,freq_bottom,,,,,0,239,239,928,,,,,1.0264449461709095,868.3206945295096,None,868.3206945295096,None,None,1,,None,None,002,001,2,28,f,2021_Nov_06_1955,eye_tracking_exp,2021.2.3,85.06988329469462,
180,180,0,-12,0,180,0,180,0,12,j,abs,resp,freq_bottom,,,,,0,240,240,186,,,,,0.724431632509601,872.0999046460274,None,872.0999046460274,None,j,1,1.2342029376814025,None,None,002,001,2,28,f,2021_Nov_06_1955,eye_tracking_exp,2021.2.3,85.06988329469462,
180,0,12,180,180,0,180,0,0,12,j,abs,resp,freq_bottom,,,,,0,241,241,54,,,,,0.9341441506707471,874.5932855587525,None,874.5932855587525,None,j,1,0.9008470663247863,None,None,002,001,2,28,f,2021_Nov_06_1955,eye_tracking_exp,2021.2.3,85.06988329469462,
180,180,180,0,0,0,-168,0,0,168,f,abs,resp,freq_bottom,,,,,0,242,242,372,,,,,0.7994617994511016,876.5718220095368,None,876.5718220095368,None,f,1,0.8422688155405922,None,None,002,001,2,28,f,2021_Nov_06_1955,eye_tracking_exp,2021.2.3,85.06988329469462,
90,180,180,12,0,180,0,180,-12,180,j,present,resp,freq_bottom,,,,,0,243,243,647,,,,,0.8195111892866134,878.5116264538956,None,878.5116264538956,None,j,1,1.0465551261950168,None,None,002,001,2,28,f,2021_Nov_06_1955,eye_tracking_exp,2021.2.3,85.06988329469462,
168,180,180,0,0,168,0,0,0,0,f,abs,resp,freq_bottom,,,,,0,244,244,276,,,,,0.8961147144113623,881.3826257146648,None,881.3826257146648,None,f,1,1.775673163785541,None,None,002,001,2,28,f,2021_Nov_06_1955,eye_tracking_exp,2021.2.3,85.06988329469462,
0,12,180,180,180,0,180,-168,0,0,None,abs,inhibit,freq_bottom,,,,,0,245,245,453,,,,,1.0927856561527287,884.5365036090589,None,884.5365036090589,None,j,0,1.5978351303274394,886.149217955528,None,002,001,2,28,f,2021_Nov_06_1955,eye_tracking_exp,2021.2.3,85.06988329469462,
180,180,0,270,180,180,180,-12,0,12,j,present,resp,freq_bottom,,,,,0,246,246,686,,,,,0.7363883909463875,887.4197515846317,None,887.4197515846317,None,j,1,1.3536154557659756,None,None,002,001,2,28,f,2021_Nov_06_1955,eye_tracking_exp,2021.2.3,85.06988329469462,
180,12,180,12,180,90,180,180,0,180,j,present,resp,freq_bottom,,,,,0,247,247,509,,,,,0.8121024618990236,890.2561825387238,None,890.2561825387238,None,j,1,1.3971501754567726,None,None,002,001,2,28,f,2021_Nov_06_1955,eye_tracking_exp,2021.2.3,85.06988329469462,
0,270,180,180,168,0,0,0,0,168,f,present,resp,freq_bottom,,,,,0,248,248,724,,,,,0.7419662741370349,892.6915635426049,None,892.6915635426049,None,f,1,1.2338135529716965,None,None,002,001,2,28,f,2021_Nov_06_1955,eye_tracking_exp,2021.2.3,85.06988329469462,
180,90,0,180,180,180,180,-12,0,-12,j,present,resp,freq_bottom,,,,,0,249,249,602,,,,,0.9843632728491161,895.2094219629289,None,895.2094219629289,None,j,1,1.0037801594662596,None,None,002,001,2,28,f,2021_Nov_06_1955,eye_tracking_exp,2021.2.3,85.06988329469462,
168,180,90,180,-168,180,180,180,180,180,f,present,resp,freq_bottom,,,,,0,250,250,867,,,,,1.0923427712475118,901.4334805650287,None,901.4334805650287,None,f,1,1.0360954681091243,None,None,002,001,2,28,f,2021_Nov_06_1955,eye_tracking_exp,2021.2.3,85.06988329469462,
0,-168,0,0,0,12,0,180,0,0,None,abs,inhibit,freq_bottom,,,,,0,251,251,478,,,,,0.8068691212697451,909.8814417134854,None,909.8814417134854,None,None,1,,None,None,002,001,2,28,f,2021_Nov_06_1955,eye_tracking_exp,2021.2.3,85.06988329469462,
180,12,180,-168,180,270,180,180,0,180,None,present,inhibit,freq_bottom,,,,,0,252,252,929,,,,,0.7679026997591318,913.6825651336476,None,913.6825651336476,None,None,1,,None,None,002,001,2,28,f,2021_Nov_06_1955,eye_tracking_exp,2021.2.3,85.06988329469462,
0,0,-168,0,0,0,0,0,180,-168,f,abs,resp,freq_bottom,,,,,0,253,253,327,,,,,0.7630412254573633,917.4618051331781,None,917.4618051331781,None,f,1,0.9740815764307627,None,None,002,001,2,28,f,2021_Nov_06_1955,eye_tracking_exp,2021.2.3,85.06988329469462,
180,270,180,180,168,180,168,180,180,180,f,present,resp,freq_bottom,,,,,0,254,254,737,,,,,0.9751068383718899,919.6727082672442,None,919.6727082672442,None,f,1,0.843144780214061,None,None,002,001,2,28,f,2021_Nov_06_1955,eye_tracking_exp,2021.2.3,85.06988329469462,
12,0,180,180,90,180,-12,180,180,180,j,present,resp,freq_bottom,,,,,0,255,255,671,,,,,1.0169784007599207,921.884295390264,None,921.884295390264,None,j,1,1.1597097188641783,None,None,002,001,2,28,f,2021_Nov_06_1955,eye_tracking_exp,2021.2.3,85.06988329469462,
0,90,180,12,180,180,180,12,0,180,j,present,resp,freq_bottom,,,,,0,256,256,535,,,,,0.7763715224001072,924.0845396461591,None,924.0845396461591,None,j,1,0.8474578950190335,None,None,002,001,2,28,f,2021_Nov_06_1955,eye_tracking_exp,2021.2.3,85.06988329469462,
168,0,0,90,0,180,12,0,180,180,None,present,inhibit,freq_bottom,,,,,0,257,257,991,,,,,0.7313382195037761,926.1436971444273,None,926.1436971444273,None,None,1,,None,None,002,001,2,28,f,2021_Nov_06_1955,eye_tracking_exp,2021.2.3,85.06988329469462,
0,0,180,12,0,0,180,-168,0,0,None,abs,inhibit,freq_bottom,,,,,0,258,258,451,,,,,0.9697050103877786,930.2633885706236,None,930.2633885706236,None,None,1,,None,None,002,001,2,28,f,2021_Nov_06_1955,eye_tracking_exp,2021.2.3,85.06988329469462,
-12,0,180,0,180,0,-12,180,0,180,j,abs,resp,freq_bottom,,,,,0,259,259,97,,,,,1.00636012007731,934.8989513477427,None,934.8989513477427,None,j,1,1.1041741020890186,None,None,002,001,2,28,f,2021_Nov_06_1955,eye_tracking_exp,2021.2.3,85.06988329469462,
180,0,90,180,12,0,180,180,12,180,j,present,resp,freq_bottom,,,,,0,260,260,513,,,,,1.0436863290946807,937.3703362503002,None,937.3703362503002,None,j,1,0.8887698015241767,None,None,002,001,2,28,f,2021_Nov_06_1955,eye_tracking_exp,2021.2.3,85.06988329469462,
-12,0,0,0,0,12,0,0,0,0,j,abs,resp,freq_bottom,,,,,0,261,261,160,,,,,0.9663599603876891,939.3707202017322,None,939.3707202017322,None,j,1,0.8266252094035735,None,None,002,001,2,28,f,2021_Nov_06_1955,eye_tracking_exp,2021.2.3,85.06988329469462,
-12,0,0,0,0,0,0,0,-12,180,j,abs,resp,freq_bottom,,,,,0,262,262,139,,,,,1.0771844506348485,941.5612666654415,None,941.5612666654415,None,j,1,0.7459920879773563,None,None,002,001,2,28,f,2021_Nov_06_1955,eye_tracking_exp,2021.2.3,85.06988329469462,
180,180,0,180,180,180,180,-168,0,168,f,abs,resp,freq_bottom,,,,,0,263,263,392,,,,,0.9164011575485203,943.9015578105027,None,943.9015578105027,None,f,1,1.093753684326657,None,None,002,001,2,28,f,2021_Nov_06_1955,eye_tracking_exp,2021.2.3,85.06988329469462,
180,0,-168,180,-168,0,180,180,0,180,f,abs,resp,freq_bottom,,,,,0,264,264,291,,,,,0.7244012621595486,946.0775002346927,None,946.0775002346927,None,f,1,0.9498328700792626,None,None,002,001,2,28,f,2021_Nov_06_1955,eye_tracking_exp,2021.2.3,85.06988329469462,
270,0,-12,0,180,180,180,180,-12,0,j,present,resp,freq_bottom,,,,,0,265,265,613,,,,,0.8310495959810934,948.2660967563643,None,948.2660967563643,None,j,1,0.9213368519122014,None,None,002,001,2,28,f,2021_Nov_06_1955,eye_tracking_exp,2021.2.3,85.06988329469462,
90,180,-168,180,180,168,0,180,0,180,f,present,resp,freq_bottom,,,,,0,266,266,904,,,,,1.0472462530069853,950.4193794052917,None,950.4193794052917,None,f,1,1.2630515150231076,None,None,002,001,2,28,f,2021_Nov_06_1955,eye_tracking_exp,2021.2.3,85.06988329469462,
180,0,180,0,12,0,12,180,180,180,j,abs,resp,freq_bottom,,,,,0,267,267,7,,,,,0.9569345671144427,952.9394760330688,None,952.9394760330688,None,j,1,1.1429417266481323,None,None,002,001,2,28,f,2021_Nov_06_1955,eye_tracking_exp,2021.2.3,85.06988329469462,
-168,0,168,180,0,180,0,180,0,180,f,abs,resp,freq_bottom,,,,,0,268,268,413,,,,,0.9413007889644474,955.3037040748677,None,955.3037040748677,None,f,1,1.5148119715886423,None,None,002,001,2,28,f,2021_Nov_06_1955,eye_tracking_exp,2021.2.3,85.06988329469462,
0,0,-168,0,0,-168,0,0,0,0,f,abs,resp,freq_bottom,,,,,0,269,269,298,,,,,1.0871997543255238,958.3160690013901,None,958.3160690013901,None,f,1,0.75855049945676,None,None,002,001,2,28,f,2021_Nov_06_1955,eye_tracking_exp,2021.2.3,85.06988329469462,
180,168,180,180,-168,0,0,0,180,90,f,present,resp,freq_bottom,,,,,0,270,270,911,,,,,0.8841339873172422,960.3036977360462,None,960.3036977360462,None,f,1,1.1388863905522157,None,None,002,001,2,28,f,2021_Nov_06_1955,eye_tracking_exp,2021.2.3,85.06988329469462,
0,168,0,0,0,0,0,168,0,0,f,abs,resp,freq_bottom,,,,,0,271,271,270,,,,,0.9517184806990895,962.6925979777952,None,962.6925979777952,None,f,1,0.7820563563727774,None,None,002,001,2,28,f,2021_Nov_06_1955,eye_tracking_exp,2021.2.3,85.06988329469462,
180,180,90,180,-12,0,12,0,0,180,j,present,resp,freq_bottom,,,,,0,272,272,651,,,,,0.8520973660649446,964.7281684218688,None,964.7281684218688,None,j,1,1.129473845307075,None,None,002,001,2,28,f,2021_Nov_06_1955,eye_tracking_exp,2021.2.3,85.06988329469462,
0,180,180,180,12,0,180,12,0,0,j,abs,resp,freq_bottom,,,,,0,273,273,8,,,,,1.029887521797283,967.2931614084155,None,967.2931614084155,None,j,1,1.0125678780896123,None,None,002,001,2,28,f,2021_Nov_06_1955,eye_tracking_exp,2021.2.3,85.06988329469462,
0,180,168,0,-168,180,0,180,0,180,f,abs,resp,freq_bottom,,,,,0,274,274,361,,,,,0.9464177794374549,969.6702346178718,None,969.6702346178718,None,j,0,1.8355762281280477,971.5215165236514,None,002,001,2,28,f,2021_Nov_06_1955,eye_tracking_exp,2021.2.3,85.06988329469462,
0,0,0,168,0,0,0,168,0,0,f,abs,resp,freq_bottom,,,,,0,275,275,212,,,,,0.8657625616764988,972.9181018310483,None,972.9181018310483,None,f,1,1.1636669541621814,None,None,002,001,2,28,f,2021_Nov_06_1955,eye_tracking_exp,2021.2.3,85.06988329469462,
180,180,270,0,-12,0,0,12,180,0,j,present,resp,freq_bottom,,,,,0,276,276,674,,,,,0.7943009491574219,975.2597196007555,None,975.2597196007555,None,j,1,1.1741848690289771,None,None,002,001,2,28,f,2021_Nov_06_1955,eye_tracking_exp,2021.2.3,85.06988329469462,
90,180,180,-168,0,180,-12,180,0,180,None,present,inhibit,freq_bottom,,,,,0,277,277,995,,,,,0.8376143991345955,977.625636485529,None,977.625636485529,None,None,1,,None,None,002,001,2,28,f,2021_Nov_06_1955,eye_tracking_exp,2021.2.3,85.06988329469462,
0,0,0,0,0,-168,0,-168,0,0,f,abs,resp,freq_bottom,,,,,0,278,278,294,,,,,0.8180783201127615,981.626785321343,None,981.626785321343,None,f,1,1.8301873248710763,None,None,002,001,2,28,f,2021_Nov_06_1955,eye_tracking_exp,2021.2.3,85.06988329469462,
180,-168,180,180,-168,0,0,0,180,180,f,abs,resp,freq_bottom,,,,,0,279,279,337,,,,,0.8299566242132912,984.7922246212474,None,984.7922246212474,None,f,1,1.3367928289590054,None,None,002,001,2,28,f,2021_Nov_06_1955,eye_tracking_exp,2021.2.3,85.06988329469462,
-168,180,0,180,180,180,180,168,0,0,f,abs,resp,freq_bottom,,,,,0,280,280,418,,,,,0.9120806889397668,987.3822601759966,None,987.3822601759966,None,f,1,1.402344386355253,None,None,002,001,2,28,f,2021_Nov_06_1955,eye_tracking_exp,2021.2.3,85.06988329469462,
168,0,180,0,180,180,12,180,180,180,None,abs,inhibit,freq_bottom,,,,,0,281,281,487,,,,,0.919295216609733,990.2064074008449,None,990.2064074008449,None,j,0,1.1081379780516727,991.3260297037195,None,002,001,2,28,f,2021_Nov_06_1955,eye_tracking_exp,2021.2.3,85.06988329469462,
0,0,180,0,0,0,12,0,12,0,j,abs,resp,freq_bottom,,,,,0,282,282,35,,,,,0.9036883628868613,992.794477619289,None,992.794477619289,None,j,1,1.494725153890613,None,None,002,001,2,28,f,2021_Nov_06_1955,eye_tracking_exp,2021.2.3,85.06988329469462,
168,0,168,180,0,0,180,180,0,180,f,abs,resp,freq_bottom,,,,,0,283,283,273,,,,,0.976267798048556,995.7006368100192,None,995.7006368100192,None,f,1,1.259599574303138,None,None,002,001,2,28,f,2021_Nov_06_1955,eye_tracking_exp,2021.2.3,85.06988329469462,
90,180,0,0,-168,0,180,0,-168,180,f,present,resp,freq_bottom,,,,,0,284,284,793,,,,,0.71389408275193,998.0190463455365,None,998.0190463455365,None,f,1,0.8453099402977386,None,None,002,001,2,28,f,2021_Nov_06_1955,eye_tracking_exp,2021.2.3,85.06988329469462,
0,0,0,0,0,-168,0,0,0,-168,f,abs,resp,freq_bottom,,,,,0,285,285,296,,,,,0.7197965959186476,999.8783184859058,None,999.8783184859058,None,f,1,0.8580654589241021,None,None,002,001,2,28,f,2021_Nov_06_1955,eye_tracking_exp,2021.2.3,85.06988329469462,
180,0,-12,0,180,180,180,0,-12,0,j,abs,resp,freq_bottom,,,,,0,286,286,123,,,,,0.924294037248651,1003.0080382285232,None,1003.0080382285232,None,j,1,0.8802848370614811,None,None,002,001,2,28,f,2021_Nov_06_1955,eye_tracking_exp,2021.2.3,85.06988329469462,
168,180,270,180,180,0,180,12,0,0,None,present,inhibit,freq_bottom,,,,,0,287,287,992,,,,,0.9634986494572111,1005.1965363475538,None,1005.1965363475538,None,j,0,2.419871225982206,1007.6444332022656,None,002,001,2,28,f,2021_Nov_06_1955,eye_tracking_exp,2021.2.3,85.06988329469462,
0,90,180,180,180,180,168,0,168,0,f,present,resp,freq_bottom,,,,,0,288,288,749,,,,,0.8950184147254352,1009.068419722913,None,1009.068419722913,None,f,1,1.1560120733702206,None,None,002,001,2,28,f,2021_Nov_06_1955,eye_tracking_exp,2021.2.3,85.06988329469462,
0,-12,0,90,0,0,0,-12,0,0,j,present,resp,freq_bottom,,,,,0,289,289,634,,,,,0.8085196233604036,1011.5157518188644,None,1011.5157518188644,None,j,1,2.467744415764173,None,None,002,001,2,28,f,2021_Nov_06_1955,eye_tracking_exp,2021.2.3,85.06988329469462,
12,180,90,0,168,180,0,180,0,180,None,present,inhibit,freq_bottom,,,,,0,290,290,937,,,,,0.7054966212100394,1014.9533037179644,None,1014.9533037179644,None,None,1,,None,None,002,001,2,28,f,2021_Nov_06_1955,eye_tracking_exp,2021.2.3,85.06988329469462,
180,180,180,168,180,180,180,180,-168,180,f,abs,resp,freq_bottom,,,,,0,291,291,353,,,,,0.8955580152839548,1019.1882871268535,None,1019.1882871268535,None,f,1,2.5873226487310603,None,None,002,001,2,28,f,2021_Nov_06_1955,eye_tracking_exp,2021.2.3,85.06988329469462,
270,180,180,180,168,180,12,180,0,180,None,present,inhibit,freq_bottom,,,,,0,292,292,931,,,,,0.9148883900431141,1023.0131449033361,None,1023.0131449033361,None,None,1,,None,None,002,001,2,28,f,2021_Nov_06_1955,eye_tracking_exp,2021.2.3,85.06988329469462,
180,180,12,180,180,180,12,180,0,180,j,abs,resp,freq_bottom,,,,,0,293,293,25,,,,,0.9110165826382364,1032.5315499714925,None,1032.5315499714925,None,j,1,1.2273307503419346,None,None,002,001,2,28,f,2021_Nov_06_1955,eye_tracking_exp,2021.2.3,85.06988329469462,
180,12,180,12,0,180,0,180,180,180,j,abs,resp,freq_bottom,,,,,0,294,294,5,,,,,1.0601701178459375,1034.8965012425615,None,1034.8965012425615,None,j,1,1.2623910702677676,None,None,002,001,2,28,f,2021_Nov_06_1955,eye_tracking_exp,2021.2.3,85.06988329469462,
0,0,180,0,180,0,12,0,-12,0,j,abs,resp,freq_bottom,,,,,0,295,295,175,,,,,0.9526714286341991,1037.4032292971897,None,1037.4032292971897,None,j,1,0.6917444592254469,None,None,002,001,2,28,f,2021_Nov_06_1955,eye_tracking_exp,2021.2.3,85.06988329469462,
-12,0,-12,180,0,180,0,180,0,180,j,abs,resp,freq_bottom,,,,,0,296,296,133,,,,,1.0035022661412294,1039.5917566955322,None,1039.5917566955322,None,j,1,0.8871968684179592,None,None,002,001,2,28,f,2021_Nov_06_1955,eye_tracking_exp,2021.2.3,85.06988329469462,
180,12,0,180,180,180,180,180,168,180,None,abs,inhibit,freq_bottom,,,,,0,297,297,460,,,,,1.0007357411963418,1041.8171748237728,None,1041.8171748237728,None,None,1,,None,None,002,001,2,28,f,2021_Nov_06_1955,eye_tracking_exp,2021.2.3,85.06988329469462,
180,-168,180,90,180,180,0,180,0,-168,f,present,resp,freq_bottom,,,,,0,298,298,832,,,,,0.8004382934165656,1047.3349417839709,None,1047.3349417839709,None,f,1,1.52714097811986,None,None,002,001,2,28,f,2021_Nov_06_1955,eye_tracking_exp,2021.2.3,85.06988329469462,
180,0,180,0,12,180,180,180,12,180,j,abs,resp,freq_bottom,,,,,0,299,299,9,,,,,0.8398919826292073,1050.0195024387867,None,1050.0195024387867,None,f,0,1.64265391400113,1051.6781264498204,None,002,001,2,28,f,2021_Nov_06_1955,eye_tracking_exp,2021.2.3,85.06988329469462,
90,180,12,180,-12,180,0,180,180,180,j,present,resp,freq_bottom,,,,,0,300,300,655,,,,,0.9590511311036221,1053.1715064569944,None,1053.1715064569944,None,j,1,1.9627109392386046,None,None,002,001,2,28,f,2021_Nov_06_1955,eye_tracking_exp,2021.2.3,85.06988329469462,
-12,0,90,180,-12,180,180,180,0,180,j,present,resp,freq_bottom,,,,,0,301,301,639,,,,,1.0845451582885948,1056.5957776208888,None,1056.5957776208888,None,j,1,1.018945637406432,None,None,002,001,2,28,f,2021_Nov_06_1955,eye_tracking_exp,2021.2.3,85.06988329469462,
0,12,0,0,168,0,180,180,180,0,None,abs,inhibit,freq_bottom,,,,,0,302,302,502,,,,,0.9068604934782475,1058.8552451780488,None,1058.8552451780488,None,None,1,,None,None,002,001,2,28,f,2021_Nov_06_1955,eye_tracking_exp,2021.2.3,85.06988329469462,
0,0,180,180,168,0,0,0,-168,0,f,abs,resp,freq_bottom,,,,,0,303,303,387,,,,,0.9674515696734416,1063.1986052179418,None,1063.1986052179418,None,f,1,1.6307698323216755,None,None,002,001,2,28,f,2021_Nov_06_1955,eye_tracking_exp,2021.2.3,85.06988329469462,
0,-12,180,270,180,180,0,12,0,0,j,present,resp,freq_bottom,,,,,0,304,304,677,,,,,1.0205731270524112,1065.915696399461,None,1065.915696399461,None,j,1,1.5217342657924746,None,None,002,001,2,28,f,2021_Nov_06_1955,eye_tracking_exp,2021.2.3,85.06988329469462,
180,0,270,180,-12,180,0,180,-12,180,j,present,resp,freq_bottom,,,,,0,305,305,614,,,,,0.7503752081602544,1068.5045209375821,None,1068.5045209375821,None,j,1,0.8055465171710239,None,None,002,001,2,28,f,2021_Nov_06_1955,eye_tracking_exp,2021.2.3,85.06988329469462,
12,0,180,0,180,0,180,12,0,0,j,abs,resp,freq_bottom,,,,,0,306,306,68,,,,,0.9093304152837505,1070.5167382601285,None,1070.5167382601285,None,j,1,0.7599408141613821,None,None,002,001,2,28,f,2021_Nov_06_1955,eye_tracking_exp,2021.2.3,85.06988329469462,
0,0,168,0,0,270,0,0,-168,0,f,present,resp,freq_bottom,,,,,0,307,307,893,,,,,1.0830022218615234,1073.4702626294238,None,1073.4702626294238,None,f,1,0.9583075716946041,None,None,002,001,2,28,f,2021_Nov_06_1955,eye_tracking_exp,2021.2.3,85.06988329469462,
90,180,0,12,180,0,0,180,12,180,j,present,resp,freq_bottom,,,,,0,308,308,542,,,,,0.8352254452028828,1075.529853582295,None,1075.529853582295,None,j,1,0.7547007222674438,None,None,002,001,2,28,f,2021_Nov_06_1955,eye_tracking_exp,2021.2.3,85.06988329469462,
180,180,-12,180,0,180,-12,180,0,0,j,abs,resp,freq_bottom,,,,,0,309,309,95,,,,,0.8438234940673929,1077.4599267292724,None,1077.4599267292724,None,f,0,1.4487496863366687,1078.9311160339275,None,002,001,2,28,f,2021_Nov_06_1955,eye_tracking_exp,2021.2.3,85.06988329469462,
180,0,180,0,-12,180,-12,0,180,180,j,abs,resp,freq_bottom,,,,,0,310,310,77,,,,,0.7954734318416591,1080.2605370067904,None,1080.2605370067904,None,j,1,0.7281217446361552,None,None,002,001,2,28,f,2021_Nov_06_1955,eye_tracking_exp,2021.2.3,85.06988329469462,
90,0,-168,180,180,180,168,0,0,0,f,present,resp,freq_bottom,,,,,0,311,311,905,,,,,1.0824615209112922,1082.3900786587328,None,1082.3900786587328,None,f,1,0.9026442729518749,None,None,002,001,2,28,f,2021_Nov_06_1955,eye_tracking_exp,2021.2.3,85.06988329469462,
12,0,90,0,0,-168,0,0,0,0,None,present,inhibit,freq_bottom,,,,,0,312,312,944,,,,,0.8163902163867955,1084.4497897473557,None,1084.4497897473557,None,None,1,,None,None,002,001,2,28,f,2021_Nov_06_1955,eye_tracking_exp,2021.2.3,85.06988329469462,
12,180,180,90,0,180,0,12,0,0,j,present,resp,freq_bottom,,,,,0,313,313,572,,,,,0.998044294003682,1088.4516195536344,None,1088.4516195536344,None,j,1,1.4326979808756732,None,None,002,001,2,28,f,2021_Nov_06_1955,eye_tracking_exp,2021.2.3,85.06988329469462,
180,-12,180,-12,180,0,180,0,180,180,j,abs,resp,freq_bottom,,,,,0,314,314,75,,,,,1.0795674097453654,1091.2757921337688,None,1091.2757921337688,None,j,1,1.4400911589182215,None,None,002,001,2,28,f,2021_Nov_06_1955,eye_tracking_exp,2021.2.3,85.06988329469462,
180,-12,180,-168,0,180,0,180,0,180,None,abs,inhibit,freq_bottom,,,,,0,315,315,495,,,,,0.7613119761119973,1093.75905357179,None,1093.75905357179,None,None,1,,None,None,002,001,2,28,f,2021_Nov_06_1955,eye_tracking_exp,2021.2.3,85.06988329469462,
0,0,12,0,0,0,0,0,-12,0,j,abs,resp,freq_bottom,,,,,0,316,316,179,,,,,0.888028559115719,1097.93658583262,None,1097.93658583262,None,j,1,1.7088372405414702,None,None,002,001,2,28,f,2021_Nov_06_1955,eye_tracking_exp,2021.2.3,85.06988329469462,
0,168,0,180,180,180,0,-168,0,0,f,abs,resp,freq_bottom,,,,,0,317,317,410,,,,,0.9779834644168872,1100.984561349076,None,1100.984561349076,None,f,1,1.6675503874721471,None,None,002,001,2,28,f,2021_Nov_06_1955,eye_tracking_exp,2021.2.3,85.06988329469462,
270,0,-12,0,0,0,0,0,-12,0,j,present,resp,freq_bottom,,,,,0,318,318,627,,,,,1.0464804491270403,1104.0670734781015,None,1104.0670734781015,None,j,1,1.0174798605439719,None,None,002,001,2,28,f,2021_Nov_06_1955,eye_tracking_exp,2021.2.3,85.06988329469462,
0,12,0,180,180,180,12,0,0,0,j,abs,resp,freq_bottom,,,,,0,319,319,26,,,,,1.0641818175425302,1106.5388136564798,None,1106.5388136564798,None,j,1,0.8162126397000975,None,None,002,001,2,28,f,2021_Nov_06_1955,eye_tracking_exp,2021.2.3,85.06988329469462,
180,-168,180,180,0,-168,180,180,0,180,f,abs,resp,freq_bottom,,,,,0,320,320,299,,,,,1.0252912786135877,1108.774577645876,None,1108.774577645876,None,f,1,1.3165931198745966,None,None,002,001,2,28,f,2021_Nov_06_1955,eye_tracking_exp,2021.2.3,85.06988329469462,
168,0,0,180,12,0,180,0,180,180,None,abs,inhibit,freq_bottom,,,,,0,321,321,485,,,,,0.7946177441471971,1110.9394932384457,None,1110.9394932384457,None,None,1,,None,None,002,001,2,28,f,2021_Nov_06_1955,eye_tracking_exp,2021.2.3,85.06988329469462,
0,12,0,90,0,0,180,180,180,-12,j,present,resp,freq_bottom,,,,,0,322,322,706,,,,,0.8246991359829219,1115.094669987404,None,1115.094669987404,None,f,0,2.00462684482045,1117.1208994243498,None,002,001,2,28,f,2021_Nov_06_1955,eye_tracking_exp,2021.2.3,85.06988329469462,
-12,0,270,180,180,180,-12,180,0,180,j,present,resp,freq_bottom,,,,,0,323,323,601,,,,,1.0555696184328331,1118.7063489931388,None,1118.7063489931388,None,j,1,1.1600655983784236,None,None,002,001,2,28,f,2021_Nov_06_1955,eye_tracking_exp,2021.2.3,85.06988329469462,
90,180,168,180,180,12,0,180,0,180,None,present,inhibit,freq_bottom,,,,,0,324,324,974,,,,,0.8369341314133284,1121.0009384473378,None,1121.0009384473378,None,None,1,,None,None,002,001,2,28,f,2021_Nov_06_1955,eye_tracking_exp,2021.2.3,85.06988329469462,
180,0,180,180,-12,0,-12,180,180,180,j,abs,resp,freq_bottom,,,,,0,325,325,93,,,,,0.9241290037945317,1125.2727528200994,None,1125.2727528200994,None,j,1,1.0097407639914309,None,None,002,001,2,28,f,2021_Nov_06_1955,eye_tracking_exp,2021.2.3,85.06988329469462,
180,180,-168,0,0,180,180,168,180,180,f,abs,resp,freq_bottom,,,,,0,326,326,382,,,,,1.0089192103163562,1127.7316710731538,None,1127.7316710731538,None,f,1,1.2547998795344029,None,None,002,001,2,28,f,2021_Nov_06_1955,eye_tracking_exp,2021.2.3,85.06988329469462,
0,12,0,0,270,0,12,180,180,180,j,present,resp,freq_bottom,,,,,0,327,327,530,,,,,1.0563674361577924,1130.4403735799206,None,1130.4403735799206,None,j,1,1.2822303720968193,None,None,002,001,2,28,f,2021_Nov_06_1955,eye_tracking_exp,2021.2.3,85.06988329469462,
0,168,0,0,0,180,180,180,180,-168,f,abs,resp,freq_bottom,,,,,0,328,328,412,,,,,0.7779950376186291,1132.9923906983531,None,1132.9923906983531,None,f,1,1.179904296513996,None,None,002,001,2,28,f,2021_Nov_06_1955,eye_tracking_exp,2021.2.3,85.06988329469462,
-168,180,180,-168,0,180,180,180,180,0,f,abs,resp,freq_bottom,,,,,0,329,329,344,,,,,0.7596608112366859,1135.0635403401102,None,1135.0635403401102,None,f,1,1.026715220657934,None,None,002,001,2,28,f,2021_Nov_06_1955,eye_tracking_exp,2021.2.3,85.06988329469462,
168,180,180,12,180,180,180,0,270,0,None,present,inhibit,freq_bottom,,,,,0,330,330,988,,,,,0.9281158049285779,1137.3464334624587,None,1137.3464334624587,None,None,1,,None,None,002,001,2,28,f,2021_Nov_06_1955,eye_tracking_exp,2021.2.3,85.06988329469462,
90,180,-12,180,-12,0,180,0,180,180,j,present,resp,freq_bottom,,,,,0,331,331,585,,,,,1.0101052585016999,1141.7485652380929,None,1141.7485652380929,None,j,1,1.9251742533160723,None,None,002,001,2,28,f,2021_Nov_06_1955,eye_tracking_exp,2021.2.3,85.06988329469462,
0,0,168,180,0,180,180,168,180,180,f,abs,resp,freq_bottom,,,,,0,332,332,262,,,,,0.8607787061979346,1144.8441208493168,None,1144.8441208493168,None,f,1,0.8936854061685153,None,None,002,001,2,28,f,2021_Nov_06_1955,eye_tracking_exp,2021.2.3,85.06988329469462,
-168,0,-168,180,90,0,180,0,180,180,f,present,resp,freq_bottom,,,,,0,333,333,847,,,,,1.0771963645146356,1147.1503347953912,None,1147.1503347953912,None,f,1,1.6595335901947692,None,None,002,001,2,28,f,2021_Nov_06_1955,eye_tracking_exp,2021.2.3,85.06988329469462,
168,0,180,0,0,0,0,0,-168,0,f,abs,resp,freq_bottom,,,,,0,334,334,391,,,,,0.8644161401898726,1149.9744548538656,None,1149.9744548538656,None,f,1,0.8674257843595115,None,None,002,001,2,28,f,2021_Nov_06_1955,eye_tracking_exp,2021.2.3,85.06988329469462,
168,0,0,168,0,180,180,180,180,90,f,present,resp,freq_bottom,,,,,0,335,335,720,,,,,0.9870417189806224,1155.7405248966243,None,1155.7405248966243,None,f,1,1.69246617925819,None,None,002,001,2,28,f,2021_Nov_06_1955,eye_tracking_exp,2021.2.3,85.06988329469462,
270,0,168,180,180,180,12,0,0,0,None,present,inhibit,freq_bottom,,,,,0,336,336,975,,,,,0.9055951747886016,1158.60048464813,None,1158.60048464813,None,None,1,,None,None,002,001,2,28,f,2021_Nov_06_1955,eye_tracking_exp,2021.2.3,85.06988329469462,
90,0,180,180,180,180,-12,0,0,-12,j,present,resp,freq_bottom,,,,,0,337,337,596,,,,,1.0248494101870183,1162.6487058693601,None,1162.6487058693601,None,j,1,1.616378897917457,None,None,002,001,2,28,f,2021_Nov_06_1955,eye_tracking_exp,2021.2.3,85.06988329469462,
180,-12,180,180,270,180,180,180,0,12,j,present,resp,freq_bottom,,,,,0,338,338,692,,,,,0.833686783872172,1165.5655538212668,None,1165.5655538212668,None,j,1,1.211605645083182,None,None,002,001,2,28,f,2021_Nov_06_1955,eye_tracking_exp,2021.2.3,85.06988329469462,
0,270,180,180,0,0,-168,0,-168,0,f,present,resp,freq_bottom,,,,,0,339,339,819,,,,,0.9259228366708978,1168.1547879679565,None,1168.1547879679565,None,f,1,1.6934115691037732,None,None,002,001,2,28,f,2021_Nov_06_1955,eye_tracking_exp,2021.2.3,85.06988329469462,
180,180,12,180,180,180,0,-168,180,180,None,abs,inhibit,freq_bottom,,,,,0,340,340,452,,,,,0.7845632708859283,1171.0612278778935,None,1171.0612278778935,None,None,1,,None,None,002,001,2,28,f,2021_Nov_06_1955,eye_tracking_exp,2021.2.3,85.06988329469462,
0,-168,0,180,180,180,0,-168,0,0,f,abs,resp,freq_bottom,,,,,0,341,341,340,,,,,0.9822432574118408,1175.9577885846302,None,1175.9577885846302,None,f,1,1.0905465428295429,None,None,002,001,2,28,f,2021_Nov_06_1955,eye_tracking_exp,2021.2.3,85.06988329469462,
90,0,168,0,12,0,0,180,180,180,None,present,inhibit,freq_bottom,,,,,0,342,342,973,,,,,1.0046166285419984,1178.3453148115004,None,1178.3453148115004,None,None,1,,None,None,002,001,2,28,f,2021_Nov_06_1955,eye_tracking_exp,2021.2.3,85.06988329469462,
90,180,180,168,0,168,180,180,180,180,f,present,resp,freq_bottom,,,,,0,343,343,731,,,,,1.0459714236665096,1182.40408383061,None,1182.40408383061,None,f,1,1.0114214570639888,None,None,002,001,2,28,f,2021_Nov_06_1955,eye_tracking_exp,2021.2.3,85.06988329469462,
0,12,0,0,168,0,180,180,180,180,None,abs,inhibit,freq_bottom,,,,,0,344,344,432,,,,,0.8434425114729938,1184.6519015406084,None,1184.6519015406084,None,None,1,,None,None,002,001,2,28,f,2021_Nov_06_1955,eye_tracking_exp,2021.2.3,85.06988329469462,
12,0,168,0,0,0,0,0,180,180,None,abs,inhibit,freq_bottom,,,,,0,345,345,475,,,,,0.9043796291064858,1188.8536752634172,None,1188.8536752634172,None,None,1,,None,None,002,001,2,28,f,2021_Nov_06_1955,eye_tracking_exp,2021.2.3,85.06988329469462,
0,-168,0,90,0,0,0,12,0,0,None,present,inhibit,freq_bottom,,,,,0,346,346,984,,,,,1.011359380004941,1193.2082975768499,None,1193.2082975768499,None,None,1,,None,None,002,001,2,28,f,2021_Nov_06_1955,eye_tracking_exp,2021.2.3,85.06988329469462,
90,180,0,0,0,-168,180,0,-168,180,f,present,resp,freq_bottom,,,,,0,347,347,820,,,,,0.8354669323725629,1197.0683183017754,None,1197.0683183017754,None,f,1,1.0033922840011655,None,None,002,001,2,28,f,2021_Nov_06_1955,eye_tracking_exp,2021.2.3,85.06988329469462,
0,90,0,168,180,180,180,168,0,0,f,present,resp,freq_bottom,,,,,0,348,348,716,,,,,0.7587018620303987,1199.3041604699683,None,1199.3041604699683,None,f,1,1.022619436851528,None,None,002,001,2,28,f,2021_Nov_06_1955,eye_tracking_exp,2021.2.3,85.06988329469462,
0,12,0,-12,180,180,180,180,270,0,j,present,resp,freq_bottom,,,,,0,349,349,700,,,,,0.7379058374890458,1201.1046678171115,None,1201.1046678171115,None,j,1,1.1581035823983257,None,None,002,001,2,28,f,2021_Nov_06_1955,eye_tracking_exp,2021.2.3,85.06988329469462,
0,180,168,0,180,168,180,0,180,180,f,abs,resp,freq_bottom,,,,,0,350,350,260,,,,,0.8150684317422149,1203.552431254735,None,1203.552431254735,None,f,1,1.1433009264947032,None,None,002,001,2,28,f,2021_Nov_06_1955,eye_tracking_exp,2021.2.3,85.06988329469462,
0,270,0,0,0,-168,0,0,0,12,None,present,inhibit,freq_bottom,,,,,0,351,351,940,,,,,0.9128289062593546,1205.7886522429326,None,1205.7886522429326,None,None,1,,None,None,002,001,2,28,f,2021_Nov_06_1955,eye_tracking_exp,2021.2.3,85.06988329469462,
270,180,180,-168,180,180,180,180,12,180,None,present,inhibit,freq_bottom,,,,,0,352,352,927,,,,,0.8545323103093654,1212.0032134803187,None,1212.0032134803187,None,None,1,,None,None,002,001,2,28,f,2021_Nov_06_1955,eye_tracking_exp,2021.2.3,85.06988329469462,
-12,0,270,0,0,12,0,0,0,0,j,present,resp,freq_bottom,,,,,0,353,353,664,,,,,0.9370878334424713,1216.6149127099125,None,1216.6149127099125,None,j,1,1.535179810343834,None,None,002,001,2,28,f,2021_Nov_06_1955,eye_tracking_exp,2021.2.3,85.06988329469462,
180,-12,180,270,180,180,0,180,0,-12,j,present,resp,freq_bottom,,,,,0,354,354,622,,,,,1.0246372833867803,1219.4978440462946,None,1219.4978440462946,None,f,0,1.3242775818289374,1220.842154003767,None,002,001,2,28,f,2021_Nov_06_1955,eye_tracking_exp,2021.2.3,85.06988329469462,
-12,0,180,180,180,180,180,12,180,180,j,abs,resp,freq_bottom,,,,,0,355,355,174,,,,,1.0642237858515362,1222.4747209334164,None,1222.4747209334164,None,j,1,1.3714184868731536,None,None,002,001,2,28,f,2021_Nov_06_1955,eye_tracking_exp,2021.2.3,85.06988329469462,
90,0,12,0,180,180,0,0,180,-168,None,present,inhibit,freq_bottom,,,,,0,356,356,971,,,,,0.886624201542887,1225.0281504015074,None,1225.0281504015074,None,f,0,1.4421063002446317,1226.4876098691238,None,002,001,2,28,f,2021_Nov_06_1955,eye_tracking_exp,2021.2.3,85.06988329469462,
-12,0,0,90,180,180,-12,0,180,0,j,present,resp,freq_bottom,,,,,0,357,357,641,,,,,1.0164057529323527,1228.040498122653,None,1228.040498122653,None,j,1,0.9577557924349094,None,None,002,001,2,28,f,2021_Nov_06_1955,eye_tracking_exp,2021.2.3,85.06988329469462,
0,0,270,0,-168,180,180,0,180,-168,f,present,resp,freq_bottom,,,,,0,358,358,829,,,,,1.0823182869079635,1230.9124252660622,None,1230.9124252660622,None,f,1,1.4449237551889382,None,None,002,001,2,28,f,2021_Nov_06_1955,eye_tracking_exp,2021.2.3,85.06988329469462,
0,180,0,180,168,180,0,180,-12,180,None,abs,inhibit,freq_bottom,,,,,0,359,359,499,,,,,0.7667787050393987,1233.172794445025,None,1233.172794445025,None,None,1,,None,None,002,001,2,28,f,2021_Nov_06_1955,eye_tracking_exp,2021.2.3,85.06988329469462,
180,0,180,168,180,168,180,0,180,180,f,abs,resp,freq_bottom,,,,,0,360,360,227,,,,,0.8164784725643234,1237.0089362281433,None,1237.0089362281433,None,f,1,1.4284841742628487,None,None,002,001,2,28,f,2021_Nov_06_1955,eye_tracking_exp,2021.2.3,85.06988329469462,
0,0,0,180,180,180,-12,0,180,12,j,abs,resp,freq_bottom,,,,,0,361,361,183,,,,,0.7701187037171584,1239.5260521008822,None,1239.5260521008822,None,j,1,1.615412680519512,None,None,002,001,2,28,f,2021_Nov_06_1955,eye_tracking_exp,2021.2.3,85.06988329469462,
0,0,180,-168,180,180,180,-168,0,0,f,abs,resp,freq_bottom,,,,,0,362,362,311,,,,,1.0026518335582872,1242.5153796395316,None,1242.5153796395316,None,f,1,1.7620899762769113,None,None,002,001,2,28,f,2021_Nov_06_1955,eye_tracking_exp,2021.2.3,85.06988329469462,
180,180,270,0,0,0,0,12,0,12,j,present,resp,freq_bottom,,,,,0,363,363,532,,,,,1.0909118594457439,1245.6924929344823,None,1245.6924929344823,None,j,1,0.9042006043964648,None,None,002,001,2,28,f,2021_Nov_06_1955,eye_tracking_exp,2021.2.3,85.06988329469462,
180,180,0,168,180,180,0,0,-168,180,f,abs,resp,freq_bottom,,,,,0,364,364,388,,,,,0.9082577359239445,1247.940204997467,None,1247.940204997467,None,f,1,1.5363781493288116,None,None,002,001,2,28,f,2021_Nov_06_1955,eye_tracking_exp,2021.2.3,85.06988329469462,
180,0,-12,0,0,0,0,12,180,180,j,abs,resp,freq_bottom,,,,,0,365,365,172,,,,,1.0204981947225642,1250.8836995411039,None,1250.8836995411039,None,j,1,1.3609298513256363,None,None,002,001,2,28,f,2021_Nov_06_1955,eye_tracking_exp,2021.2.3,85.06988329469462,
-168,180,90,0,0,168,180,180,0,0,f,present,resp,freq_bottom,,,,,0,366,366,920,,,,,0.9481892195268096,1253.6015978658106,None,1253.6015978658106,None,f,1,1.2350988243633765,None,None,002,001,2,28,f,2021_Nov_06_1955,eye_tracking_exp,2021.2.3,85.06988329469462,
0,12,0,90,0,12,180,0,0,0,j,present,resp,freq_bottom,,,,,0,367,367,562,,,,,0.8668235102732116,1255.7556417769374,None,1255.7556417769374,None,j,1,0.6820348949404433,None,None,002,001,2,28,f,2021_Nov_06_1955,eye_tracking_exp,2021.2.3,85.06988329469462,
12,0,270,180,180,0,0,-168,180,0,None,present,inhibit,freq_bottom,,,,,0,368,368,958,,,,,1.0662665563825413,1257.7911956193348,None,1257.7911956193348,None,None,1,,None,None,002,001,2,28,f,2021_Nov_06_1955,eye_tracking_exp,2021.2.3,85.06988329469462,
0,0,168,0,168,0,0,0,0,0,f,abs,resp,freq_bottom,,,,,0,369,369,259,,,,,0.8862132556017098,1263.5712279714717,None,1263.5712279714717,None,f,1,1.2326312119621434,None,None,002,001,2,28,f,2021_Nov_06_1955,eye_tracking_exp,2021.2.3,85.06988329469462,
180,-168,180,270,0,180,12,0,180,180,None,present,inhibit,freq_bottom,,,,,0,370,370,983,,,,,0.7684417551942283,1265.9226026956894,None,1265.9226026956894,None,None,1,,None,None,002,001,2,28,f,2021_Nov_06_1955,eye_tracking_exp,2021.2.3,85.06988329469462,
180,180,180,168,180,180,168,180,0,180,f,abs,resp,freq_bottom,,,,,0,371,371,211,,,,,1.07033850381982,1270.359182340413,None,1270.359182340413,None,f,1,1.35680327895534,None,None,002,001,2,28,f,2021_Nov_06_1955,eye_tracking_exp,2021.2.3,85.06988329469462,
270,180,12,180,0,180,168,180,0,180,None,present,inhibit,freq_bottom,,,,,0,372,372,949,,,,,0.9118843483354223,1273.0537990817174,None,1273.0537990817174,None,None,1,,None,None,002,001,2,28,f,2021_Nov_06_1955,eye_tracking_exp,2021.2.3,85.06988329469462,
180,0,180,-168,180,0,180,180,-12,0,None,abs,inhibit,freq_bottom,,,,,0,373,373,493,,,,,0.9510259163072106,1277.2558390350023,None,1277.2558390350023,None,None,1,,None,None,002,001,2,28,f,2021_Nov_06_1955,eye_tracking_exp,2021.2.3,85.06988329469462,
-168,0,0,-168,0,0,0,0,0,0,f,abs,resp,freq_bottom,,,,,0,374,374,286,,,,,0.896078360391253,1281.1628618146133,None,1281.1628618146133,None,f,1,1.2243409398506628,None,None,002,001,2,28,f,2021_Nov_06_1955,eye_tracking_exp,2021.2.3,85.06988329469462,
168,0,-168,180,180,180,90,0,180,180,f,present,resp,freq_bottom,,,,,0,375,375,909,,,,,0.9111610766802251,1283.622810276982,None,1283.622810276982,None,f,1,0.8124986943876138,None,None,002,001,2,28,f,2021_Nov_06_1955,eye_tracking_exp,2021.2.3,85.06988329469462,
180,180,0,90,0,12,180,180,-12,180,j,present,resp,freq_bottom,,,,,0,376,376,680,,,,,0.8461465961427764,1285.834455958633,None,1285.834455958633,None,j,1,0.9847775819798699,None,None,002,001,2,28,f,2021_Nov_06_1955,eye_tracking_exp,2021.2.3,85.06988329469462,
0,90,180,12,0,0,12,180,180,180,j,present,resp,freq_bottom,,,,,0,377,377,528,,,,,0.9482739327309941,1296.3774601793775,None,1296.3774601793775,None,j,1,0.8569803131686058,None,None,002,001,2,28,f,2021_Nov_06_1955,eye_tracking_exp,2021.2.3,85.06988329469462,
0,168,0,270,180,180,180,180,0,-168,f,present,resp,freq_bottom,,,,,0,378,378,916,,,,,0.9695655790209453,1298.576571597434,None,1298.576571597434,None,f,1,0.9471388712263433,None,None,002,001,2,28,f,2021_Nov_06_1955,eye_tracking_exp,2021.2.3,85.06988329469462,
0,90,180,180,12,0,0,0,168,0,None,present,inhibit,freq_bottom,,,,,0,379,379,961,,,,,0.7760354290708177,1300.6720097895595,None,1300.6720097895595,None,None,1,,None,None,002,001,2,28,f,2021_Nov_06_1955,eye_tracking_exp,2021.2.3,85.06988329469462,
180,180,180,-168,180,168,180,180,0,180,f,abs,resp,freq_bottom,,,,,0,380,380,367,,,,,0.7587379596947412,1307.2030137169058,None,1307.2030137169058,None,j,0,1.966554679456749,1309.1936787467494,None,002,001,2,28,f,2021_Nov_06_1955,eye_tracking_exp,2021.2.3,85.06988329469462,
180,-168,0,270,180,180,180,0,-168,180,f,present,resp,freq_bottom,,,,,0,381,381,824,,,,,1.0663311076689497,1310.804419607004,None,1310.804419607004,None,f,1,0.7492605047445977,None,None,002,001,2,28,f,2021_Nov_06_1955,eye_tracking_exp,2021.2.3,85.06988329469462,
0,0,-12,180,0,0,180,12,0,180,j,abs,resp,freq_bottom,,,,,0,382,382,192,,,,,0.9396154609053902,1312.8271494111395,None,1312.8271494111395,None,j,1,1.4638403058197582,None,None,002,001,2,28,f,2021_Nov_06_1955,eye_tracking_exp,2021.2.3,85.06988329469462,
0,0,180,0,168,0,0,0,180,168,f,abs,resp,freq_bottom,,,,,0,383,383,255,,,,,1.062397126969554,1315.709832929817,None,1315.709832929817,None,f,1,1.3959802102326648,None,None,002,001,2,28,f,2021_Nov_06_1955,eye_tracking_exp,2021.2.3,85.06988329469462,
180,270,180,0,180,180,-12,180,-12,180,j,present,resp,freq_bottom,,,,,0,384,384,595,,,,,0.8615694585396999,1318.239860678761,None,1318.239860678761,None,j,1,0.9139980066247517,None,None,002,001,2,28,f,2021_Nov_06_1955,eye_tracking_exp,2021.2.3,85.06988329469462,
180,-12,0,180,180,0,180,180,-12,180,j,abs,resp,freq_bottom,,,,,0,385,385,110,,,,,0.9684680197270493,1320.581655331749,None,1320.581655331749,None,j,1,1.0202130997204222,None,None,002,001,2,28,f,2021_Nov_06_1955,eye_tracking_exp,2021.2.3,85.06988329469462,
180,180,-168,180,0,180,0,180,0,-168,f,abs,resp,freq_bottom,,,,,0,386,386,334,,,,,0.9512193864588614,1322.9112432268957,None,1322.9112432268957,None,f,1,1.5217143437912455,None,None,002,001,2,28,f,2021_Nov_06_1955,eye_tracking_exp,2021.2.3,85.06988329469462,
0,180,0,180,168,180,12,180,0,180,None,abs,inhibit,freq_bottom,,,,,0,387,387,427,,,,,0.9447588894986888,1325.6410443479035,None,1325.6410443479035,None,None,1,,None,None,002,001,2,28,f,2021_Nov_06_1955,eye_tracking_exp,2021.2.3,85.06988329469462,
180,0,0,180,180,-168,180,180,0,-168,f,abs,resp,freq_bottom,,,,,0,388,388,324,,,,,0.7749700163155387,1333.114522570584,None,1333.114522570584,None,f,1,0.9186078386192094,None,None,002,001,2,28,f,2021_Nov_06_1955,eye_tracking_exp,2021.2.3,85.06988329469462,
0,0,0,12,0,0,168,0,0,0,None,abs,inhibit,freq_bottom,,,,,0,389,389,444,,,,,0.7217090570763709,1335.1496239419066,None,1335.1496239419066,None,None,1,,None,None,002,001,2,28,f,2021_Nov_06_1955,eye_tracking_exp,2021.2.3,85.06988329469462,
0,0,180,0,180,-12,0,-12,0,0,j,abs,resp,freq_bottom,,,,,0,390,390,99,,,,,1.0462874193175364,1339.5640080545345,None,1339.5640080545345,None,f,0,1.1888719169146498,1340.7865432266844,None,002,001,2,28,f,2021_Nov_06_1955,eye_tracking_exp,2021.2.3,85.06988329469462,
