ori10,ori11,ori12,ori13,ori14,ori16,ori17,ori18,ori19,ori20,corrAns,distractor,respon,dist_freq,practice_trials.thisRepN,practice_trials.thisTrialN,practice_trials.thisN,practice_trials.thisIndex,trials.thisRepN,trials.thisTrialN,trials.thisN,trials.thisIndex,key_resp.keys,key_resp.rt,fixdur,int14_2.started,int14_2.stopped,per15_2.started,per15_2.stopped,response_pract.keys,response_pract.corr,response_pract.rt,key_resp_2.keys,key_resp_2.rt,int14.started,int14.stopped,per15.started,per15.stopped,response.keys,response.corr,text_7.started,text_7.stopped,response.rt,participant,session,1=top 2=bottom,age,gender,date,expName,psychopyVersion,frameRate,
,,,,,,,,,,,,,,,,,,,,,,space,149.62768522684473,,,,,,,,,,,,,,,,,,,,003,001,2,23,f,2021_Nov_08_1002,eye_tracking_exp,2021.2.3,84.93535493890802,
180,270,180,12,180,180,180,180,12,180,j,present,resp,pract,0,0,0,35,,,,,,,0.7106647669830131,611.09818532181,None,611.09818532181,None,j,1,2.764483208328784,,,,,,,,,,,,003,001,2,23,f,2021_Nov_08_1002,eye_tracking_exp,2021.2.3,84.93535493890802,
180,270,0,0,168,0,0,168,180,0,f,present,resp,pract,0,1,1,45,,,,,,,0.9126259251103793,615.0750646935085,None,615.0750646935085,None,f,1,1.683673447540059,,,,,,,,,,,,003,001,2,23,f,2021_Nov_08_1002,eye_tracking_exp,2021.2.3,84.93535493890802,
90,0,0,12,0,180,180,180,0,12,j,present,resp,pract,0,2,2,36,,,,,,,0.8054984959794221,617.8518745798656,None,617.8518745798656,None,None,0,,,,,,,,,,,,,003,001,2,23,f,2021_Nov_08_1002,eye_tracking_exp,2021.2.3,84.93535493890802,
180,12,180,-168,180,180,0,180,180,180,None,abs,inhibit,pract,0,3,3,26,,,,,,,0.7506623321991837,622.1117090043281,None,622.1117090043281,None,None,1,,,,,,,,,,,,,003,001,2,23,f,2021_Nov_08_1002,eye_tracking_exp,2021.2.3,84.93535493890802,
0,0,0,-168,180,180,180,180,0,12,None,abs,inhibit,pract,0,4,4,25,,,,,,,1.0977334661504448,626.4655544987527,None,626.4655544987527,None,None,1,,,,,,,,,,,,,003,001,2,23,f,2021_Nov_08_1002,eye_tracking_exp,2021.2.3,84.93535493890802,
0,180,0,180,168,180,12,180,0,180,None,abs,inhibit,pract,0,5,5,28,,,,,,,0.8532028535223628,630.3369266289737,None,630.3369266289737,None,None,1,,,,,,,,,,,,,003,001,2,23,f,2021_Nov_08_1002,eye_tracking_exp,2021.2.3,84.93535493890802,
90,0,180,180,180,168,0,168,0,0,f,present,resp,pract,0,6,6,44,,,,,,,0.8836317896068554,634.2215420251987,None,634.2215420251987,None,f,1,1.9124628360241331,,,,,,,,,,,,003,001,2,23,f,2021_Nov_08_1002,eye_tracking_exp,2021.2.3,84.93535493890802,
168,0,270,180,180,180,180,168,180,180,f,present,resp,pract,0,7,7,49,,,,,,,0.9273731459147281,637.1283631493461,None,637.1283631493461,None,f,1,1.5326976795722658,,,,,,,,,,,,003,001,2,23,f,2021_Nov_08_1002,eye_tracking_exp,2021.2.3,84.93535493890802,
180,180,0,168,180,180,180,0,0,168,f,abs,resp,pract,0,8,8,18,,,,,,,1.0201748575647185,639.8226098416235,None,639.8226098416235,None,f,1,1.0306986931764186,,,,,,,,,,,,003,001,2,23,f,2021_Nov_08_1002,eye_tracking_exp,2021.2.3,84.93535493890802,
180,12,180,12,180,90,180,180,0,180,j,present,resp,pract,0,9,9,37,,,,,,,1.0455760915496266,642.1057725656055,None,642.1057725656055,None,j,1,1.5314380691179394,,,,,,,,,,,,003,001,2,23,f,2021_Nov_08_1002,eye_tracking_exp,2021.2.3,84.93535493890802,
12,0,0,12,0,0,180,0,180,180,j,abs,resp,pract,0,10,10,6,,,,,,,0.7195239881098789,644.6710859182313,None,644.6710859182313,None,j,1,1.2540291659988725,,,,,,,,,,,,003,001,2,23,f,2021_Nov_08_1002,eye_tracking_exp,2021.2.3,84.93535493890802,
180,0,180,0,12,180,180,180,12,180,j,abs,resp,pract,0,11,11,9,,,,,,,0.8774244816296803,647.1890991325199,None,647.1890991325199,None,j,1,0.7520129742852077,,,,,,,,,,,,003,001,2,23,f,2021_Nov_08_1002,eye_tracking_exp,2021.2.3,84.93535493890802,
0,180,0,0,180,168,180,0,0,168,f,abs,resp,pract,0,12,12,16,,,,,,,0.7476831953941323,649.2374533230259,None,649.2374533230259,None,f,1,0.8317028801056949,,,,,,,,,,,,003,001,2,23,f,2021_Nov_08_1002,eye_tracking_exp,2021.2.3,84.93535493890802,
168,0,180,0,0,180,180,0,168,0,f,abs,resp,pract,0,13,13,13,,,,,,,0.7906431532983412,651.28415399183,None,651.28415399183,None,f,1,1.3770342168163552,,,,,,,,,,,,003,001,2,23,f,2021_Nov_08_1002,eye_tracking_exp,2021.2.3,84.93535493890802,
12,0,0,-168,0,0,180,180,180,180,None,abs,inhibit,pract,0,14,14,27,,,,,,,0.9984740680701147,653.9078570654547,None,653.9078570654547,None,None,1,,,,,,,,,,,,,003,001,2,23,f,2021_Nov_08_1002,eye_tracking_exp,2021.2.3,84.93535493890802,
12,0,0,12,0,0,90,180,180,0,j,present,resp,pract,0,15,15,38,,,,,,,0.9850463920979304,657.8975978658154,None,657.8975978658154,None,j,1,1.130990911934532,,,,,,,,,,,,003,001,2,23,f,2021_Nov_08_1002,eye_tracking_exp,2021.2.3,84.93535493890802,
180,0,180,0,168,180,0,180,12,180,None,abs,inhibit,pract,0,16,16,30,,,,,,,0.8893008368501605,660.3219555867327,None,660.3219555867327,None,None,1,,,,,,,,,,,,,003,001,2,23,f,2021_Nov_08_1002,eye_tracking_exp,2021.2.3,84.93535493890802,
180,180,90,180,12,180,12,0,0,180,j,present,resp,pract,0,17,17,39,,,,,,,0.7275498162152892,664.3484071044077,None,664.3484071044077,None,j,1,0.9999980654238243,,,,,,,,,,,,003,001,2,23,f,2021_Nov_08_1002,eye_tracking_exp,2021.2.3,84.93535493890802,
0,180,180,180,12,0,180,12,0,0,j,abs,resp,pract,0,18,18,8,,,,,,,0.71612603611076,666.5715401688349,None,666.5715401688349,None,j,1,0.7609298572006082,,,,,,,,,,,,003,001,2,23,f,2021_Nov_08_1002,eye_tracking_exp,2021.2.3,84.93535493890802,
90,0,180,168,180,180,0,168,0,0,f,present,resp,pract,0,19,19,46,,,,,,,0.8558402784636855,668.571631628688,None,668.571631628688,None,j,0,0.8728229886264671,,,,,,,,,,,,003,001,2,23,f,2021_Nov_08_1002,eye_tracking_exp,2021.2.3,84.93535493890802,
0,0,0,0,168,0,0,12,0,0,None,abs,inhibit,pract,0,20,20,29,,,,,,,1.0338093055288955,671.23108554394,None,671.23108554394,None,None,1,,,,,,,,,,,,,003,001,2,23,f,2021_Nov_08_1002,eye_tracking_exp,2021.2.3,84.93535493890802,
0,180,0,12,0,180,180,180,0,12,j,abs,resp,pract,0,21,21,4,,,,,,,1.0901261814729604,675.3265608770962,None,675.3265608770962,None,j,1,0.9169914570711626,,,,,,,,,,,,003,001,2,23,f,2021_Nov_08_1002,eye_tracking_exp,2021.2.3,84.93535493890802,
180,12,180,12,0,180,0,180,180,180,j,abs,resp,pract,0,22,22,5,,,,,,,1.079090376958329,677.7861698816969,None,677.7861698816969,None,j,1,2.2174980480667728,,,,,,,,,,,,003,001,2,23,f,2021_Nov_08_1002,eye_tracking_exp,2021.2.3,84.93535493890802,
0,180,180,180,168,0,0,0,0,12,None,abs,inhibit,pract,0,23,23,31,,,,,,,1.0436089540085505,681.4334638623404,None,681.4334638623404,None,None,1,,,,,,,,,,,,,003,001,2,23,f,2021_Nov_08_1002,eye_tracking_exp,2021.2.3,84.93535493890802,
0,180,0,12,0,12,0,180,180,180,j,abs,resp,pract,0,24,24,0,,,,,,,0.9924132833734658,685.4694103012771,None,685.4694103012771,None,j,1,0.6932966540744019,,,,,,,,,,,,003,001,2,23,f,2021_Nov_08_1002,eye_tracking_exp,2021.2.3,84.93535493890802,
180,0,180,12,180,180,12,180,180,180,j,abs,resp,pract,0,25,25,1,,,,,,,1.000716290500814,687.4224047662956,None,687.4224047662956,None,j,1,0.6442771912361422,,,,,,,,,,,,003,001,2,23,f,2021_Nov_08_1002,eye_tracking_exp,2021.2.3,84.93535493890802,
0,0,168,0,0,0,0,0,168,0,f,abs,resp,pract,0,26,26,11,,,,,,,0.9076852069100037,689.2698768974524,None,689.2698768974524,None,f,1,1.133421691465628,,,,,,,,,,,,003,001,2,23,f,2021_Nov_08_1002,eye_tracking_exp,2021.2.3,84.93535493890802,
90,0,0,12,0,12,180,180,180,0,j,present,resp,pract,0,27,27,32,,,,,,,1.0594544043516492,691.5063679300092,None,691.5063679300092,None,j,1,1.2005408479581092,,,,,,,,,,,,003,001,2,23,f,2021_Nov_08_1002,eye_tracking_exp,2021.2.3,84.93535493890802,
0,180,0,12,0,180,180,12,0,0,j,abs,resp,pract,0,28,28,2,,,,,,,0.9308238184685067,694.2940956476878,None,694.2940956476878,None,j,1,1.036740778593412,,,,,,,,,,,,003,001,2,23,f,2021_Nov_08_1002,eye_tracking_exp,2021.2.3,84.93535493890802,
0,0,180,0,168,0,0,0,180,168,f,abs,resp,pract,0,29,29,17,,,,,,,0.7545650900470111,696.4710861597086,None,696.4710861597086,None,f,1,1.6117884177065207,,,,,,,,,,,,003,001,2,23,f,2021_Nov_08_1002,eye_tracking_exp,2021.2.3,84.93535493890802,
180,0,180,12,0,180,180,0,12,180,j,abs,resp,pract,0,30,30,3,,,,,,,0.9463928875618439,699.2484173370449,None,699.2484173370449,None,j,1,0.6584827477090585,,,,,,,,,,,,003,001,2,23,f,2021_Nov_08_1002,eye_tracking_exp,2021.2.3,84.93535493890802,
0,180,0,-168,180,0,180,0,12,180,None,abs,inhibit,pract,0,31,31,24,,,,,,,0.775664700241633,730.2256435317504,None,730.2256435317504,None,None,1,,,,,,,,,,,,,003,001,2,23,f,2021_Nov_08_1002,eye_tracking_exp,2021.2.3,84.93535493890802,
180,0,90,180,12,0,180,180,12,180,j,present,resp,pract,0,32,32,41,,,,,,,0.9759657367385026,734.615735199879,None,734.615735199879,None,j,1,0.9376106734807763,,,,,,,,,,,,003,001,2,23,f,2021_Nov_08_1002,eye_tracking_exp,2021.2.3,84.93535493890802,
180,168,0,180,0,180,180,180,168,180,f,abs,resp,pract,0,33,33,12,,,,,,,0.7020969780905049,736.3922761399353,None,736.3922761399353,None,f,1,0.8721296444582549,,,,,,,,,,,,003,001,2,23,f,2021_Nov_08_1002,eye_tracking_exp,2021.2.3,84.93535493890802,
180,180,180,-168,180,180,12,180,0,180,None,abs,inhibit,pract,0,34,34,22,,,,,,,0.8636096741192336,738.4397730829724,None,738.4397730829724,None,None,1,,,,,,,,,,,,,003,001,2,23,f,2021_Nov_08_1002,eye_tracking_exp,2021.2.3,84.93535493890802,
180,270,180,12,180,0,12,180,0,180,j,present,resp,pract,0,35,35,33,,,,,,,0.7670559368692652,742.4893059887481,None,742.4893059887481,None,j,1,0.9032637255077134,,,,,,,,,,,,003,001,2,23,f,2021_Nov_08_1002,eye_tracking_exp,2021.2.3,84.93535493890802,
0,0,168,0,0,0,0,0,180,168,f,abs,resp,pract,0,36,36,19,,,,,,,1.0689764903735737,744.9127095690847,None,744.9127095690847,None,f,1,1.007845803784221,,,,,,,,,,,,003,001,2,23,f,2021_Nov_08_1002,eye_tracking_exp,2021.2.3,84.93535493890802,
180,168,180,0,180,0,180,0,0,168,f,abs,resp,pract,0,37,37,20,,,,,,,0.8260317608581104,746.9019043269564,None,746.9019043269564,None,f,1,0.6977621889527654,,,,,,,,,,,,003,001,2,23,f,2021_Nov_08_1002,eye_tracking_exp,2021.2.3,84.93535493890802,
180,0,180,0,12,0,12,180,180,180,j,abs,resp,pract,0,38,38,7,,,,,,,0.8697858390234668,748.8550632989718,None,748.8550632989718,None,j,1,0.7925215393652252,,,,,,,,,,,,003,001,2,23,f,2021_Nov_08_1002,eye_tracking_exp,2021.2.3,84.93535493890802,
180,180,0,168,180,180,180,180,168,180,f,abs,resp,pract,0,39,39,10,,,,,,,1.0148378148019466,750.9847998553541,None,750.9847998553541,None,f,1,0.6308639849767133,,,,,,,,,,,,003,001,2,23,f,2021_Nov_08_1002,eye_tracking_exp,2021.2.3,84.93535493890802,
0,0,0,-168,0,0,0,12,0,0,None,abs,inhibit,pract,0,40,40,23,,,,,,,1.024995673700966,753.1144473666654,None,753.1144473666654,None,None,1,,,,,,,,,,,,,003,001,2,23,f,2021_Nov_08_1002,eye_tracking_exp,2021.2.3,84.93535493890802,
180,180,168,0,270,0,0,168,0,180,f,present,resp,pract,0,41,41,47,,,,,,,0.973293769540319,757.1044649613677,None,757.1044649613677,None,f,1,1.2473254304231887,,,,,,,,,,,,003,001,2,23,f,2021_Nov_08_1002,eye_tracking_exp,2021.2.3,84.93535493890802,
90,0,0,12,0,0,0,12,0,0,j,present,resp,pract,0,42,42,34,,,,,,,0.8063706218539046,759.4688183779363,None,759.4688183779363,None,j,1,0.6750010612622646,,,,,,,,,,,,003,001,2,23,f,2021_Nov_08_1002,eye_tracking_exp,2021.2.3,84.93535493890802,
0,168,180,90,0,180,0,168,0,0,f,present,resp,pract,0,43,43,48,,,,,,,0.8434633298885054,761.1396625161597,None,761.1396625161597,None,f,1,0.8761227876857447,,,,,,,,,,,,003,001,2,23,f,2021_Nov_08_1002,eye_tracking_exp,2021.2.3,84.93535493890802,
0,270,0,0,12,0,180,180,180,12,j,present,resp,pract,0,44,44,42,,,,,,,1.0356415112938546,763.3047843766044,None,763.3047843766044,None,j,1,1.6380675803457052,,,,,,,,,,,,003,001,2,23,f,2021_Nov_08_1002,eye_tracking_exp,2021.2.3,84.93535493890802,
0,0,0,-168,0,12,0,0,0,0,None,abs,inhibit,pract,0,45,45,21,,,,,,,1.0914780516717024,766.3525040832446,None,766.3525040832446,None,None,1,,,,,,,,,,,,,003,001,2,23,f,2021_Nov_08_1002,eye_tracking_exp,2021.2.3,84.93535493890802,
0,270,0,0,12,0,0,12,0,0,j,present,resp,pract,0,46,46,40,,,,,,,0.9114206048611102,770.2713034296839,None,770.2713034296839,None,j,1,0.9757144179329771,,,,,,,,,,,,003,001,2,23,f,2021_Nov_08_1002,eye_tracking_exp,2021.2.3,84.93535493890802,
0,0,180,0,0,0,168,0,180,168,f,abs,resp,pract,0,47,47,15,,,,,,,0.8892386971797245,772.6011912721342,None,772.6011912721342,None,f,1,0.9658482239992736,,,,,,,,,,,,003,001,2,23,f,2021_Nov_08_1002,eye_tracking_exp,2021.2.3,84.93535493890802,
180,270,0,0,0,0,0,168,0,168,f,present,resp,pract,0,48,48,43,,,,,,,0.966947967740811,774.8248024633185,None,774.8248024633185,None,f,1,1.1583434449958077,,,,,,,,,,,,003,001,2,23,f,2021_Nov_08_1002,eye_tracking_exp,2021.2.3,84.93535493890802,
0,180,0,0,180,0,180,168,0,168,f,abs,resp,pract,0,49,49,14,,,,,,,0.7915469958082222,777.2605519164454,None,777.2605519164454,None,f,1,0.7695515330651688,,,,,,,,,,,,003,001,2,23,f,2021_Nov_08_1002,eye_tracking_exp,2021.2.3,84.93535493890802,
,,,,,,,,,,,,,,,,,,,,,,,,,,,,,,,,space,14.887068992690729,,,,,,,,,,003,001,2,23,f,2021_Nov_08_1002,eye_tracking_exp,2021.2.3,84.93535493890802,
180,180,-168,0,168,90,180,0,180,0,f,present,resp,freq_bottom,,,,,0,0,0,896,,,1.0902223223900545,,,,,,,,,,795.7096188901114,None,795.7096188901114,None,None,0,798.6860035334284,None,,003,001,2,23,f,2021_Nov_08_1002,eye_tracking_exp,2021.2.3,84.93535493890802,
180,180,180,0,270,0,-12,0,0,-12,j,present,resp,freq_bottom,,,,,0,1,1,586,,,0.9972450623005408,,,,,,,,,,800.2036180069053,None,800.2036180069053,None,j,1,None,None,0.9937869452933228,003,001,2,23,f,2021_Nov_08_1002,eye_tracking_exp,2021.2.3,84.93535493890802,
0,180,-168,0,0,0,12,180,180,180,None,abs,inhibit,freq_bottom,,,,,0,2,2,453,,,0.8432440648769968,,,,,,,,,,802.3333642224143,None,802.3333642224143,None,None,1,None,None,,003,001,2,23,f,2021_Nov_08_1002,eye_tracking_exp,2021.2.3,84.93535493890802,
180,180,12,0,180,0,90,180,12,180,j,present,resp,freq_bottom,,,,,0,3,3,535,,,0.8792608747642215,,,,,,,,,,806.2408684279071,None,806.2408684279071,None,j,1,None,None,1.4525827721881797,003,001,2,23,f,2021_Nov_08_1002,eye_tracking_exp,2021.2.3,84.93535493890802,
180,180,12,0,0,0,-12,0,180,0,j,abs,resp,freq_bottom,,,,,0,4,4,173,,,0.7888510519223375,,,,,,,,,,809.1825348505809,None,809.1825348505809,None,None,0,812.162189711883,None,,003,001,2,23,f,2021_Nov_08_1002,eye_tracking_exp,2021.2.3,84.93535493890802,
0,12,180,0,0,270,180,12,180,180,j,present,resp,freq_bottom,,,,,0,5,5,529,,,0.9559194939635316,,,,,,,,,,814.0328120524164,None,814.0328120524164,None,j,1,None,None,1.4677083604519794,003,001,2,23,f,2021_Nov_08_1002,eye_tracking_exp,2021.2.3,84.93535493890802,
180,-12,0,180,0,180,180,0,-168,180,None,abs,inhibit,freq_bottom,,,,,0,6,6,491,,,1.0268889784800894,,,,,,,,,,816.7395464859037,None,816.7395464859037,None,None,1,None,None,,003,001,2,23,f,2021_Nov_08_1002,eye_tracking_exp,2021.2.3,84.93535493890802,
0,0,270,-168,0,0,0,180,180,168,f,present,resp,freq_bottom,,,,,0,7,7,891,,,0.8112002486466071,,,,,,,,,,821.30522990381,None,821.30522990381,None,None,0,824.2836339082423,None,,003,001,2,23,f,2021_Nov_08_1002,eye_tracking_exp,2021.2.3,84.93535493890802,
-12,180,0,180,180,270,180,180,-12,180,j,present,resp,freq_bottom,,,,,0,8,8,591,,,1.0258223035582728,,,,,,,,,,825.8481250277318,None,825.8481250277318,None,j,1,None,None,1.4435397169345379,003,001,2,23,f,2021_Nov_08_1002,eye_tracking_exp,2021.2.3,84.93535493890802,
0,0,-168,0,-168,180,270,0,0,0,f,present,resp,freq_bottom,,,,,0,9,9,812,,,0.733117852742681,,,,,,,,,,828.343032102408,None,828.343032102408,None,f,1,None,None,1.5727103088802323,003,001,2,23,f,2021_Nov_08_1002,eye_tracking_exp,2021.2.3,84.93535493890802,
0,180,0,-168,180,180,168,0,180,180,f,abs,resp,freq_bottom,,,,,0,10,10,390,,,0.9612695747686932,,,,,,,,,,831.0493050107616,None,831.0493050107616,None,f,1,None,None,1.5864996173731925,003,001,2,23,f,2021_Nov_08_1002,eye_tracking_exp,2021.2.3,84.93535493890802,
0,-168,180,0,180,180,180,-168,0,180,f,abs,resp,freq_bottom,,,,,0,11,11,305,,,0.9236577171812204,,,,,,,,,,834.5438073076721,None,834.5438073076721,None,f,1,None,None,0.9080821203488085,003,001,2,23,f,2021_Nov_08_1002,eye_tracking_exp,2021.2.3,84.93535493890802,
180,0,168,0,0,0,168,180,90,0,f,present,resp,freq_bottom,,,,,0,12,12,747,,,0.7867127747859783,,,,,,,,,,836.5091726988412,None,836.5091726988412,None,f,1,None,None,1.423871320782382,003,001,2,23,f,2021_Nov_08_1002,eye_tracking_exp,2021.2.3,84.93535493890802,
180,-168,180,180,180,180,180,180,-168,180,f,abs,resp,freq_bottom,,,,,0,13,13,281,,,0.8840563494837657,,,,,,,,,,838.862833160626,None,838.862833160626,None,f,1,None,None,0.7330490906642808,003,001,2,23,f,2021_Nov_08_1002,eye_tracking_exp,2021.2.3,84.93535493890802,
0,180,0,-168,180,0,180,0,-168,180,f,abs,resp,freq_bottom,,,,,0,14,14,283,,,1.0306576598108022,,,,,,,,,,840.6981815788986,None,840.6981815788986,None,f,1,None,None,0.864746751556595,003,001,2,23,f,2021_Nov_08_1002,eye_tracking_exp,2021.2.3,84.93535493890802,
-168,180,180,0,168,180,180,0,180,180,f,abs,resp,freq_bottom,,,,,0,15,15,394,,,0.7568170297699852,,,,,,,,,,844.1459020099737,None,844.1459020099737,None,f,1,None,None,1.641103564515106,003,001,2,23,f,2021_Nov_08_1002,eye_tracking_exp,2021.2.3,84.93535493890802,
12,0,180,180,180,0,180,0,12,0,j,abs,resp,freq_bottom,,,,,0,16,16,0,,,1.0309030538236974,,,,,,,,,,847.0998358250354,None,847.0998358250354,None,j,1,None,None,1.1351745210613444,003,001,2,23,f,2021_Nov_08_1002,eye_tracking_exp,2021.2.3,84.93535493890802,
0,0,0,168,0,0,0,180,180,12,None,abs,inhibit,freq_bottom,,,,,0,17,17,457,,,1.0709640552510789,,,,,,,,,,849.5825241048024,None,849.5825241048024,None,None,1,None,None,,003,001,2,23,f,2021_Nov_08_1002,eye_tracking_exp,2021.2.3,84.93535493890802,
0,180,180,180,0,0,0,12,0,12,j,abs,resp,freq_bottom,,,,,0,18,18,49,,,0.7785193197503755,,,,,,,,,,855.2661279490139,None,855.2661279490139,None,j,1,None,None,1.0800960693350135,003,001,2,23,f,2021_Nov_08_1002,eye_tracking_exp,2021.2.3,84.93535493890802,
0,12,180,180,180,0,12,0,0,270,j,present,resp,freq_bottom,,,,,0,19,19,530,,,0.9939735900325541,,,,,,,,,,858.7138849036601,None,858.7138849036601,None,j,1,None,None,1.568376983293092,003,001,2,23,f,2021_Nov_08_1002,eye_tracking_exp,2021.2.3,84.93535493890802,
180,0,180,0,-12,180,-12,180,180,0,j,abs,resp,freq_bottom,,,,,0,20,20,118,,,1.0457881015877943,,,,,,,,,,862.4674860221876,None,862.4674860221876,None,j,1,None,None,0.7747484449209878,003,001,2,23,f,2021_Nov_08_1002,eye_tracking_exp,2021.2.3,84.93535493890802,
180,168,180,0,0,180,180,90,180,168,f,present,resp,freq_bottom,,,,,0,21,21,721,,,0.850559715044098,,,,,,,,,,865.1971916693656,None,865.1971916693656,None,f,1,None,None,0.9250921438051591,003,001,2,23,f,2021_Nov_08_1002,eye_tracking_exp,2021.2.3,84.93535493890802,
180,0,180,-12,180,0,180,0,180,168,None,abs,inhibit,freq_bottom,,,,,0,22,22,499,,,0.9298538835809562,,,,,,,,,,867.3267024436682,None,867.3267024436682,None,None,1,None,None,,003,001,2,23,f,2021_Nov_08_1002,eye_tracking_exp,2021.2.3,84.93535493890802,
-12,180,180,0,-12,180,180,0,0,180,j,abs,resp,freq_bottom,,,,,0,23,23,114,,,1.08046248485607,,,,,,,,,,872.7997382376743,None,872.7997382376743,None,j,1,None,None,1.1296482933639709,003,001,2,23,f,2021_Nov_08_1002,eye_tracking_exp,2021.2.3,84.93535493890802,
180,12,0,0,0,0,12,0,180,180,j,abs,resp,freq_bottom,,,,,0,24,24,26,,,0.8651684263046928,,,,,,,,,,874.8941332579116,None,874.8941332579116,None,j,1,None,None,0.7152874664334377,003,001,2,23,f,2021_Nov_08_1002,eye_tracking_exp,2021.2.3,84.93535493890802,
12,0,180,0,180,180,90,0,12,180,j,present,resp,freq_bottom,,,,,0,25,25,521,,,0.7754878666111389,,,,,,,,,,876.6950167057603,None,876.6950167057603,None,j,1,None,None,0.770382519784107,003,001,2,23,f,2021_Nov_08_1002,eye_tracking_exp,2021.2.3,84.93535493890802,
180,12,180,0,180,180,180,180,-168,180,None,abs,inhibit,freq_bottom,,,,,0,26,26,421,,,0.7732916436255795,,,,,,,,,,878.8836150729458,None,878.8836150729458,None,None,1,None,None,,003,001,2,23,f,2021_Nov_08_1002,eye_tracking_exp,2021.2.3,84.93535493890802,
-168,0,-168,0,0,90,0,0,0,180,f,present,resp,freq_bottom,,,,,0,27,27,813,,,1.0102683839338826,,,,,,,,,,885.75513631593,None,885.75513631593,None,f,1,None,None,1.933493772696238,003,001,2,23,f,2021_Nov_08_1002,eye_tracking_exp,2021.2.3,84.93535493890802,
0,0,12,0,12,180,180,270,0,0,j,present,resp,freq_bottom,,,,,0,28,28,532,,,1.0057314316276154,,,,,,,,,,890.8030117759836,None,890.8030117759836,None,j,1,None,None,0.8056555365010354,003,001,2,23,f,2021_Nov_08_1002,eye_tracking_exp,2021.2.3,84.93535493890802,
180,-168,180,180,180,90,180,168,180,180,f,present,resp,freq_bottom,,,,,0,29,29,879,,,1.0723198964140828,,,,,,,,,,892.7797218111218,None,892.7797218111218,None,f,1,None,None,2.1889930604866095,003,001,2,23,f,2021_Nov_08_1002,eye_tracking_exp,2021.2.3,84.93535493890802,
180,0,0,180,180,168,0,270,180,168,f,present,resp,freq_bottom,,,,,0,30,30,779,,,1.0981518398707617,,,,,,,,,,896.2988941205804,None,896.2988941205804,None,f,1,None,None,1.0059055267665826,003,001,2,23,f,2021_Nov_08_1002,eye_tracking_exp,2021.2.3,84.93535493890802,
180,180,0,12,180,180,0,180,12,0,j,abs,resp,freq_bottom,,,,,0,31,31,3,,,0.8284673753438958,,,,,,,,,,900.146120547708,None,900.146120547708,None,j,1,None,None,0.8547528760454952,003,001,2,23,f,2021_Nov_08_1002,eye_tracking_exp,2021.2.3,84.93535493890802,
0,0,-12,0,0,0,270,0,12,0,j,present,resp,freq_bottom,,,,,0,32,32,646,,,0.8685744639124016,,,,,,,,,,904.5468330290205,None,904.5468330290205,None,j,1,None,None,1.7010321050911443,003,001,2,23,f,2021_Nov_08_1002,eye_tracking_exp,2021.2.3,84.93535493890802,
180,180,180,-12,0,0,270,180,180,-12,j,present,resp,freq_bottom,,,,,0,33,33,611,,,0.8387771687042487,,,,,,,,,,907.8649044395452,None,907.8649044395452,None,j,1,None,None,0.6549767866699767,003,001,2,23,f,2021_Nov_08_1002,eye_tracking_exp,2021.2.3,84.93535493890802,
12,180,180,12,180,180,180,0,0,0,j,abs,resp,freq_bottom,,,,,0,34,34,36,,,1.0477438558840473,,,,,,,,,,910.0884709572701,None,910.0884709572701,None,j,1,None,None,0.6554630633154375,003,001,2,23,f,2021_Nov_08_1002,eye_tracking_exp,2021.2.3,84.93535493890802,
180,-12,180,180,180,180,270,180,180,-12,j,present,resp,freq_bottom,,,,,0,35,35,597,,,1.04333528129731,,,,,,,,,,911.8414623434428,None,911.8414623434428,None,j,1,None,None,0.6464855090116544,003,001,2,23,f,2021_Nov_08_1002,eye_tracking_exp,2021.2.3,84.93535493890802,
0,0,0,12,180,12,0,180,180,180,j,abs,resp,freq_bottom,,,,,0,36,36,69,,,0.9602907491817395,,,,,,,,,,914.1371019421176,None,914.1371019421176,None,j,1,None,None,0.7189150720960242,003,001,2,23,f,2021_Nov_08_1002,eye_tracking_exp,2021.2.3,84.93535493890802,
12,180,180,180,180,270,180,-12,180,180,j,present,resp,freq_bottom,,,,,0,37,37,694,,,0.9863582331090112,,,,,,,,,,916.006867035182,None,916.006867035182,None,j,1,None,None,0.9291486750498734,003,001,2,23,f,2021_Nov_08_1002,eye_tracking_exp,2021.2.3,84.93535493890802,
-12,0,0,0,0,-12,0,90,0,0,j,present,resp,freq_bottom,,,,,0,38,38,594,,,0.7527485324239178,,,,,,,,,,922.2429943412608,None,922.2429943412608,None,j,1,None,None,1.2361501230134309,003,001,2,23,f,2021_Nov_08_1002,eye_tracking_exp,2021.2.3,84.93535493890802,
0,180,180,-12,180,180,-12,180,0,180,j,abs,resp,freq_bottom,,,,,0,39,39,131,,,1.0708807078136318,,,,,,,,,,926.2670848062244,None,926.2670848062244,None,j,1,None,None,1.0521178059916565,003,001,2,23,f,2021_Nov_08_1002,eye_tracking_exp,2021.2.3,84.93535493890802,
12,0,0,0,0,-12,0,270,0,0,j,present,resp,freq_bottom,,,,,0,40,40,664,,,1.0286072094185112,,,,,,,,,,928.9157253294588,None,928.9157253294588,None,j,1,None,None,1.172119774038947,003,001,2,23,f,2021_Nov_08_1002,eye_tracking_exp,2021.2.3,84.93535493890802,
180,180,-12,0,0,0,-12,180,180,0,j,abs,resp,freq_bottom,,,,,0,41,41,103,,,0.7342840847554867,,,,,,,,,,932.0683247362076,None,932.0683247362076,None,j,1,None,None,0.7389260653899328,003,001,2,23,f,2021_Nov_08_1002,eye_tracking_exp,2021.2.3,84.93535493890802,
180,168,0,-168,0,0,270,180,180,180,f,present,resp,freq_bottom,,,,,0,42,42,889,,,0.7731675701430601,,,,,,,,,,958.9870283969258,None,958.9870283969258,None,f,1,None,None,1.6911933792989657,003,001,2,23,f,2021_Nov_08_1002,eye_tracking_exp,2021.2.3,84.93535493890802,
180,0,180,168,180,270,180,0,12,0,None,present,inhibit,freq_bottom,,,,,0,43,43,962,,,0.9123692716357911,,,,,,,,,,962.4353540326392,None,962.4353540326392,None,None,1,None,None,,003,001,2,23,f,2021_Nov_08_1002,eye_tracking_exp,2021.2.3,84.93535493890802,
180,0,0,0,12,270,180,12,180,180,j,present,resp,freq_bottom,,,,,0,44,44,558,,,0.9735431354150074,,,,,,,,,,968.5076302570924,None,968.5076302570924,None,j,1,None,None,0.9371295282462597,003,001,2,23,f,2021_Nov_08_1002,eye_tracking_exp,2021.2.3,84.93535493890802,
180,180,270,0,0,0,168,0,0,168,f,present,resp,freq_bottom,,,,,0,45,45,726,,,0.9100829543849656,,,,,,,,,,972.0489440009123,None,972.0489440009123,None,f,1,None,None,1.843395252625669,003,001,2,23,f,2021_Nov_08_1002,eye_tracking_exp,2021.2.3,84.93535493890802,
-12,0,12,0,0,0,0,180,90,180,j,present,resp,freq_bottom,,,,,0,46,46,673,,,0.7093885006401965,,,,,,,,,,975.9318446003517,None,975.9318446003517,None,j,1,None,None,1.4810956078090385,003,001,2,23,f,2021_Nov_08_1002,eye_tracking_exp,2021.2.3,84.93535493890802,
180,180,0,0,0,168,180,180,12,180,None,abs,inhibit,freq_bottom,,,,,0,47,47,484,,,0.8631044922735452,,,,,,,,,,978.5090960295256,None,978.5090960295256,None,None,1,None,None,,003,001,2,23,f,2021_Nov_08_1002,eye_tracking_exp,2021.2.3,84.93535493890802,
180,180,180,0,-168,0,0,0,168,0,f,abs,resp,freq_bottom,,,,,0,48,48,354,,,0.8119944159358596,,,,,,,,,,985.8281336545388,None,985.8281336545388,None,f,1,None,None,1.5358897190026255,003,001,2,23,f,2021_Nov_08_1002,eye_tracking_exp,2021.2.3,84.93535493890802,
12,180,180,-12,180,180,180,0,0,0,j,abs,resp,freq_bottom,,,,,0,49,49,176,,,1.0883444286131327,,,,,,,,,,990.1821883294206,None,990.1821883294206,None,j,1,None,None,0.8302552185350578,003,001,2,23,f,2021_Nov_08_1002,eye_tracking_exp,2021.2.3,84.93535493890802,
0,0,0,-12,0,0,0,12,0,0,j,abs,resp,freq_bottom,,,,,0,50,50,179,,,0.9665272523289027,,,,,,,,,,998.2883382046521,None,998.2883382046521,None,j,1,None,None,1.2518609939679664,003,001,2,23,f,2021_Nov_08_1002,eye_tracking_exp,2021.2.3,84.93535493890802,
180,0,180,-12,180,180,0,270,180,-12,j,present,resp,freq_bottom,,,,,0,51,51,614,,,0.7317471066783758,,,,,,,,,,1006.665642698651,None,1006.665642698651,None,j,1,None,None,1.6096745782615471,003,001,2,23,f,2021_Nov_08_1002,eye_tracking_exp,2021.2.3,84.93535493890802,
0,0,0,0,180,180,-168,180,90,12,None,present,inhibit,freq_bottom,,,,,0,52,52,981,,,0.7283654576842289,,,,,,,,,,1009.2778345083761,None,1009.2778345083761,None,None,1,None,None,,003,001,2,23,f,2021_Nov_08_1002,eye_tracking_exp,2021.2.3,84.93535493890802,
168,0,-168,0,0,0,270,180,180,180,f,present,resp,freq_bottom,,,,,0,53,53,868,,,1.05715168023077,,,,,,,,,,1091.0560615696859,None,1091.0560615696859,None,f,1,None,None,1.61451983754705,003,001,2,23,f,2021_Nov_08_1002,eye_tracking_exp,2021.2.3,84.93535493890802,
0,0,90,0,0,0,12,0,0,12,j,present,resp,freq_bottom,,,,,0,54,54,516,,,0.7548692747665509,,,,,,,,,,1093.7394728350646,None,1093.7394728350646,None,j,1,None,None,1.4750933662880925,003,001,2,23,f,2021_Nov_08_1002,eye_tracking_exp,2021.2.3,84.93535493890802,
-12,180,180,180,180,0,0,-12,0,0,j,abs,resp,freq_bottom,,,,,0,55,55,88,,,0.9983424246771817,,,,,,,,,,1096.5399659938375,None,1096.5399659938375,None,j,1,None,None,1.3946835537026345,003,001,2,23,f,2021_Nov_08_1002,eye_tracking_exp,2021.2.3,84.93535493890802,
180,180,0,0,180,180,-168,180,180,12,None,abs,inhibit,freq_bottom,,,,,0,56,56,477,,,0.7826679250120603,,,,,,,,,,1099.0231619814367,None,1099.0231619814367,None,None,1,None,None,,003,001,2,23,f,2021_Nov_08_1002,eye_tracking_exp,2021.2.3,84.93535493890802,
-168,0,180,180,180,0,0,-168,180,180,f,abs,resp,freq_bottom,,,,,0,57,57,330,,,0.723979046200336,,,,,,,,,,1102.7539576006602,None,1102.7539576006602,None,f,1,None,None,1.4838620419832296,003,001,2,23,f,2021_Nov_08_1002,eye_tracking_exp,2021.2.3,84.93535493890802,
168,0,180,180,180,0,0,168,0,0,f,abs,resp,freq_bottom,,,,,0,58,58,228,,,0.8794067740694531,,,,,,,,,,1105.2490910611123,None,1105.2490910611123,None,f,1,None,None,0.845090127462754,003,001,2,23,f,2021_Nov_08_1002,eye_tracking_exp,2021.2.3,84.93535493890802,
-168,0,0,0,12,0,180,180,180,180,None,abs,inhibit,freq_bottom,,,,,0,59,59,436,,,0.7317548901344573,,,,,,,,,,1106.9433969155389,None,1106.9433969155389,None,None,1,None,None,,003,001,2,23,f,2021_Nov_08_1002,eye_tracking_exp,2021.2.3,84.93535493890802,
180,168,180,0,180,180,180,180,168,180,f,abs,resp,freq_bottom,,,,,0,60,60,211,,,1.0011859030524075,,,,,,,,,,1110.957466640546,None,1110.957466640546,None,f,1,None,None,0.9444070763011041,003,001,2,23,f,2021_Nov_08_1002,eye_tracking_exp,2021.2.3,84.93535493890802,
0,-168,0,180,168,0,0,0,180,0,f,abs,resp,freq_bottom,,,,,0,61,61,393,,,0.8077218248695944,,,,,,,,,,1112.956592489606,None,1112.956592489606,None,f,1,None,None,1.1852649395405024,003,001,2,23,f,2021_Nov_08_1002,eye_tracking_exp,2021.2.3,84.93535493890802,
180,0,180,0,180,168,180,0,180,168,f,abs,resp,freq_bottom,,,,,0,62,62,223,,,0.9482258037001119,,,,,,,,,,1115.4163536254473,None,1115.4163536254473,None,f,1,None,None,0.8535497111124641,003,001,2,23,f,2021_Nov_08_1002,eye_tracking_exp,2021.2.3,84.93535493890802,
12,180,180,0,12,180,0,0,180,180,j,abs,resp,freq_bottom,,,,,0,63,63,44,,,0.9644324119979881,,,,,,,,,,1117.2756992377435,None,1117.2756992377435,None,j,1,None,None,0.7382058567764034,003,001,2,23,f,2021_Nov_08_1002,eye_tracking_exp,2021.2.3,84.93535493890802,
0,0,180,180,180,90,0,168,0,12,None,present,inhibit,freq_bottom,,,,,0,64,64,973,,,0.8148230177561262,,,,,,,,,,1119.2523244536778,None,1119.2523244536778,None,None,1,None,None,,003,001,2,23,f,2021_Nov_08_1002,eye_tracking_exp,2021.2.3,84.93535493890802,
180,180,180,180,-12,0,0,0,0,-12,j,abs,resp,freq_bottom,,,,,0,65,65,80,,,0.9431705440165072,,,,,,,,,,1123.206796161342,None,1123.206796161342,None,j,1,None,None,0.8392031917637723,003,001,2,23,f,2021_Nov_08_1002,eye_tracking_exp,2021.2.3,84.93535493890802,
180,0,0,180,180,168,180,90,180,168,f,present,resp,freq_bottom,,,,,0,66,66,727,,,0.7665285724753041,,,,,,,,,,1124.8779901410498,None,1124.8779901410498,None,f,1,None,None,1.0389979956962634,003,001,2,23,f,2021_Nov_08_1002,eye_tracking_exp,2021.2.3,84.93535493890802,
180,180,180,180,180,-12,0,0,180,12,j,abs,resp,freq_bottom,,,,,0,67,67,205,,,0.9987413697999528,,,,,,,,,,1127.2921197526412,None,1127.2921197526412,None,j,1,None,None,1.1380254725918348,003,001,2,23,f,2021_Nov_08_1002,eye_tracking_exp,2021.2.3,84.93535493890802,
0,0,0,0,0,0,-12,0,0,-12,j,abs,resp,freq_bottom,,,,,0,68,68,82,,,1.0057039545299982,,,,,,,,,,1129.6088941235985,None,1129.6088941235985,None,j,1,None,None,0.7722639365001669,003,001,2,23,f,2021_Nov_08_1002,eye_tracking_exp,2021.2.3,84.93535493890802,
0,-168,0,0,0,0,0,0,168,0,f,abs,resp,freq_bottom,,,,,0,69,69,374,,,0.8939290374687391,,,,,,,,,,1131.632641387726,None,1131.632641387726,None,f,1,None,None,1.5644891849133273,003,001,2,23,f,2021_Nov_08_1002,eye_tracking_exp,2021.2.3,84.93535493890802,
0,180,0,180,180,-168,0,-168,180,90,f,present,resp,freq_bottom,,,,,0,70,70,847,,,1.014819637041163,,,,,,,,,,1134.6335523640855,None,1134.6335523640855,None,f,1,None,None,1.2668214715395152,003,001,2,23,f,2021_Nov_08_1002,eye_tracking_exp,2021.2.3,84.93535493890802,
0,0,0,-168,0,0,0,-168,0,0,f,abs,resp,freq_bottom,,,,,0,71,71,319,,,0.8965022862163193,,,,,,,,,,1137.2931384886297,None,1137.2931384886297,None,f,1,None,None,0.687126283384714,003,001,2,23,f,2021_Nov_08_1002,eye_tracking_exp,2021.2.3,84.93535493890802,
0,0,0,-12,0,12,0,180,0,0,j,abs,resp,freq_bottom,,,,,0,72,72,181,,,0.9237520477925708,,,,,,,,,,1139.2465322981561,None,1139.2465322981561,None,j,1,None,None,1.1496997342483155,003,001,2,23,f,2021_Nov_08_1002,eye_tracking_exp,2021.2.3,84.93535493890802,
180,180,0,-168,180,-168,0,90,180,180,f,present,resp,freq_bottom,,,,,0,73,73,853,,,0.7189449229777064,,,,,,,,,,1141.4822735410262,None,1141.4822735410262,None,f,1,None,None,0.8499933415077976,003,001,2,23,f,2021_Nov_08_1002,eye_tracking_exp,2021.2.3,84.93535493890802,
180,0,0,180,-168,90,0,12,0,180,None,present,inhibit,freq_bottom,,,,,0,74,74,971,,,0.8463841952621525,,,,,,,,,,1143.4944624530135,None,1143.4944624530135,None,None,1,None,None,,003,001,2,23,f,2021_Nov_08_1002,eye_tracking_exp,2021.2.3,84.93535493890802,
0,0,-168,0,0,0,270,0,0,-168,f,present,resp,freq_bottom,,,,,0,75,75,792,,,0.8840583424582148,,,,,,,,,,1147.9543935291094,None,1147.9543935291094,None,f,1,None,None,0.9059565088437012,003,001,2,23,f,2021_Nov_08_1002,eye_tracking_exp,2021.2.3,84.93535493890802,
180,0,-168,0,-168,180,180,0,0,180,f,abs,resp,freq_bottom,,,,,0,76,76,322,,,0.927291472335001,,,,,,,,,,1150.013931780608,None,1150.013931780608,None,f,1,None,None,0.6544515716714159,003,001,2,23,f,2021_Nov_08_1002,eye_tracking_exp,2021.2.3,84.93535493890802,
0,0,0,180,180,12,0,168,0,0,None,abs,inhibit,freq_bottom,,,,,0,77,77,475,,,1.0168551342062002,,,,,,,,,,1151.837814513984,None,1151.837814513984,None,None,1,None,None,,003,001,2,23,f,2021_Nov_08_1002,eye_tracking_exp,2021.2.3,84.93535493890802,
12,180,180,12,180,180,180,90,180,180,j,present,resp,freq_bottom,,,,,0,78,78,519,,,0.9603862745890699,,,,,,,,,,1156.216565462163,None,1156.216565462163,None,j,1,None,None,1.090912177980499,003,001,2,23,f,2021_Nov_08_1002,eye_tracking_exp,2021.2.3,84.93535493890802,
180,0,180,0,12,270,180,-12,180,0,j,present,resp,freq_bottom,,,,,0,79,79,698,,,1.0092097419969701,,,,,,,,,,1158.3694501149885,None,1158.3694501149885,None,j,1,None,None,2.0260852529236217,003,001,2,23,f,2021_Nov_08_1002,eye_tracking_exp,2021.2.3,84.93535493890802,
0,12,0,180,-168,0,0,180,0,0,None,abs,inhibit,freq_bottom,,,,,0,80,80,463,,,0.7413844784851277,,,,,,,,,,1161.5466075487884,None,1161.5466075487884,None,None,1,None,None,,003,001,2,23,f,2021_Nov_08_1002,eye_tracking_exp,2021.2.3,84.93535493890802,
180,180,168,180,180,180,180,-168,0,0,f,abs,resp,freq_bottom,,,,,0,81,81,382,,,0.9327303384753667,,,,,,,,,,1165.5004740518134,None,1165.5004740518134,None,f,1,None,None,2.334165806416422,003,001,2,23,f,2021_Nov_08_1002,eye_tracking_exp,2021.2.3,84.93535493890802,
0,180,180,180,90,12,180,180,12,0,j,present,resp,freq_bottom,,,,,0,82,82,568,,,0.8862619632997907,,,,,,,,,,1169.195717747045,None,1169.195717747045,None,j,1,None,None,2.014970616903156,003,001,2,23,f,2021_Nov_08_1002,eye_tracking_exp,2021.2.3,84.93535493890802,
0,180,0,0,12,0,270,0,-12,180,j,present,resp,freq_bottom,,,,,0,83,83,690,,,0.8802687770234243,,,,,,,,,,1190.8797487057518,None,1190.8797487057518,None,j,1,None,None,1.1462967032748566,003,001,2,23,f,2021_Nov_08_1002,eye_tracking_exp,2021.2.3,84.93535493890802,
180,180,180,168,180,180,180,0,168,180,f,abs,resp,freq_bottom,,,,,0,84,84,248,,,0.7494828042811108,,,,,,,,,,1193.1510639074968,None,1193.1510639074968,None,f,1,None,None,0.9866416065315207,003,001,2,23,f,2021_Nov_08_1002,eye_tracking_exp,2021.2.3,84.93535493890802,
180,168,180,180,180,168,0,0,180,270,f,present,resp,freq_bottom,,,,,0,85,85,781,,,0.8729136502655688,,,,,,,,,,1195.3047291384746,None,1195.3047291384746,None,f,1,None,None,1.1853690769967216,003,001,2,23,f,2021_Nov_08_1002,eye_tracking_exp,2021.2.3,84.93535493890802,
180,-168,0,0,168,90,0,0,180,180,f,present,resp,freq_bottom,,,,,0,86,86,876,,,0.8743627541664936,,,,,,,,,,1197.7637096961626,None,1197.7637096961626,None,f,1,None,None,1.2224269191656276,003,001,2,23,f,2021_Nov_08_1002,eye_tracking_exp,2021.2.3,84.93535493890802,
0,168,0,0,168,0,0,90,0,0,f,present,resp,freq_bottom,,,,,0,87,87,736,,,0.7834298997876207,,,,,,,,,,1199.9644148727602,None,1199.9644148727602,None,f,1,None,None,0.6697649092047868,003,001,2,23,f,2021_Nov_08_1002,eye_tracking_exp,2021.2.3,84.93535493890802,
180,12,180,180,180,12,0,0,180,0,j,abs,resp,freq_bottom,,,,,0,88,88,67,,,0.7393899425759174,,,,,,,,,,1201.5530320752414,None,1201.5530320752414,None,j,1,None,None,1.112011030386384,003,001,2,23,f,2021_Nov_08_1002,eye_tracking_exp,2021.2.3,84.93535493890802,
180,12,180,180,180,12,180,0,180,0,j,abs,resp,freq_bottom,,,,,0,89,89,27,,,0.8708267907698501,,,,,,,,,,1203.6829391755755,None,1203.6829391755755,None,j,1,None,None,0.6782048727536676,003,001,2,23,f,2021_Nov_08_1002,eye_tracking_exp,2021.2.3,84.93535493890802,
0,0,168,0,180,180,180,168,0,270,f,present,resp,freq_bottom,,,,,0,90,90,746,,,0.8016887369821847,,,,,,,,,,1205.3185905885694,None,1205.3185905885694,None,f,1,None,None,1.426245956639832,003,001,2,23,f,2021_Nov_08_1002,eye_tracking_exp,2021.2.3,84.93535493890802,
0,0,0,168,0,0,0,168,0,90,f,present,resp,freq_bottom,,,,,0,91,91,753,,,0.9485827255298905,,,,,,,,,,1207.9550277111275,None,1207.9550277111275,None,f,1,None,None,0.7907231307663096,003,001,2,23,f,2021_Nov_08_1002,eye_tracking_exp,2021.2.3,84.93535493890802,
180,0,180,12,180,180,12,0,180,0,j,abs,resp,freq_bottom,,,,,0,92,92,40,,,0.7603682163024412,,,,,,,,,,1209.802383027224,None,1209.802383027224,None,j,1,None,None,0.6550033492676448,003,001,2,23,f,2021_Nov_08_1002,eye_tracking_exp,2021.2.3,84.93535493890802,
0,0,0,180,12,0,0,0,0,12,j,abs,resp,freq_bottom,,,,,0,93,93,45,,,0.8422162917287396,,,,,,,,,,1211.6970116172124,None,1211.6970116172124,None,j,1,None,None,0.664267055190976,003,001,2,23,f,2021_Nov_08_1002,eye_tracking_exp,2021.2.3,84.93535493890802,
180,-168,180,0,0,-168,0,0,180,180,f,abs,resp,freq_bottom,,,,,0,94,94,347,,,0.8096164331484332,,,,,,,,,,1213.3678358334873,None,1213.3678358334873,None,f,1,None,None,0.8005247292912827,003,001,2,23,f,2021_Nov_08_1002,eye_tracking_exp,2021.2.3,84.93535493890802,
180,180,12,0,-168,180,270,0,180,180,None,present,inhibit,freq_bottom,,,,,0,95,95,966,,,0.931107867805931,,,,,,,,,,1215.4978503916018,None,1215.4978503916018,None,None,1,None,None,,003,001,2,23,f,2021_Nov_08_1002,eye_tracking_exp,2021.2.3,84.93535493890802,
-168,180,0,0,168,180,180,90,0,180,f,present,resp,freq_bottom,,,,,0,96,96,898,,,0.9495794550605725,,,,,,,,,,1219.4633063370811,None,1219.4633063370811,None,f,1,None,None,0.8490935335121321,003,001,2,23,f,2021_Nov_08_1002,eye_tracking_exp,2021.2.3,84.93535493890802,
0,180,180,180,180,90,0,-168,0,168,f,present,resp,freq_bottom,,,,,0,97,97,903,,,1.04525739809938,,,,,,,,,,1221.6282344113015,None,1221.6282344113015,None,f,1,None,None,1.084991435338452,003,001,2,23,f,2021_Nov_08_1002,eye_tracking_exp,2021.2.3,84.93535493890802,
0,180,168,0,168,0,180,0,0,180,f,abs,resp,freq_bottom,,,,,0,98,98,252,,,0.8540103303371264,,,,,,,,,,1223.9939721014243,None,1223.9939721014243,None,f,1,None,None,0.6704111651306448,003,001,2,23,f,2021_Nov_08_1002,eye_tracking_exp,2021.2.3,84.93535493890802,
168,180,180,180,180,90,180,180,168,0,f,present,resp,freq_bottom,,,,,0,99,99,731,,,0.9552120566112992,,,,,,,,,,1226.007309543911,None,1226.007309543911,None,f,1,None,None,1.873235614432815,003,001,2,23,f,2021_Nov_08_1002,eye_tracking_exp,2021.2.3,84.93535493890802,
0,90,180,180,180,12,0,0,-168,0,None,present,inhibit,freq_bottom,,,,,0,100,100,930,,,0.9148489095433541,,,,,,,,,,1229.2069510092124,None,1229.2069510092124,None,None,1,None,None,,003,001,2,23,f,2021_Nov_08_1002,eye_tracking_exp,2021.2.3,84.93535493890802,
0,-168,0,-168,0,0,270,180,180,0,f,present,resp,freq_bottom,,,,,0,101,101,819,,,0.7276300900016617,,,,,,,,,,1233.2084551163034,None,1233.2084551163034,None,f,1,None,None,1.6472950645438686,003,001,2,23,f,2021_Nov_08_1002,eye_tracking_exp,2021.2.3,84.93535493890802,
180,90,180,-168,180,180,168,0,180,0,f,present,resp,freq_bottom,,,,,0,102,102,894,,,0.7856911631947505,,,,,,,,,,1236.2558666364412,None,1236.2558666364412,None,f,1,None,None,1.5757677242354475,003,001,2,23,f,2021_Nov_08_1002,eye_tracking_exp,2021.2.3,84.93535493890802,
180,-12,180,180,180,180,180,180,12,180,j,abs,resp,freq_bottom,,,,,0,103,103,141,,,0.7839920927542976,,,,,,,,,,1239.0680911060872,None,1239.0680911060872,None,j,1,None,None,2.1876456123527532,003,001,2,23,f,2021_Nov_08_1002,eye_tracking_exp,2021.2.3,84.93535493890802,
0,0,-12,0,-12,180,0,0,0,0,j,abs,resp,freq_bottom,,,,,0,104,104,98,,,0.7456090750414888,,,,,,,,,,1242.3184961102388,None,1242.3184961102388,None,j,1,None,None,1.8982633165051084,003,001,2,23,f,2021_Nov_08_1002,eye_tracking_exp,2021.2.3,84.93535493890802,
180,180,0,180,0,-168,0,0,180,-168,f,abs,resp,freq_bottom,,,,,0,105,105,345,,,0.9005215113825884,,,,,,,,,,1245.5646565320294,None,1245.5646565320294,None,f,1,None,None,1.4501061118080543,003,001,2,23,f,2021_Nov_08_1002,eye_tracking_exp,2021.2.3,84.93535493890802,
0,180,-12,0,0,0,-12,180,270,180,j,present,resp,freq_bottom,,,,,0,106,106,607,,,0.9154666590540458,,,,,,,,,,1248.2002427459201,None,1248.2002427459201,None,j,1,None,None,0.9425579572889546,003,001,2,23,f,2021_Nov_08_1002,eye_tracking_exp,2021.2.3,84.93535493890802,
0,-168,0,180,-168,90,0,180,0,0,f,present,resp,freq_bottom,,,,,0,107,107,827,,,0.8213338523356246,,,,,,,,,,1250.0834992237978,None,1250.0834992237978,None,f,1,None,None,1.8271232467959635,003,001,2,23,f,2021_Nov_08_1002,eye_tracking_exp,2021.2.3,84.93535493890802,
0,-168,0,0,0,0,0,0,-168,0,f,abs,resp,freq_bottom,,,,,0,108,108,304,,,0.9206902457196323,,,,,,,,,,1253.1195941718033,None,1253.1195941718033,None,f,1,None,None,1.2227263520844645,003,001,2,23,f,2021_Nov_08_1002,eye_tracking_exp,2021.2.3,84.93535493890802,
-12,0,0,0,0,-12,180,180,0,0,j,abs,resp,freq_bottom,,,,,0,109,109,136,,,1.0008930604395296,,,,,,,,,,1255.6029591941142,None,1255.6029591941142,None,j,1,None,None,1.8120100342885053,003,001,2,23,f,2021_Nov_08_1002,eye_tracking_exp,2021.2.3,84.93535493890802,
0,0,-12,0,0,0,270,0,0,-12,j,present,resp,freq_bottom,,,,,0,110,110,582,,,0.758083093461493,,,,,,,,,,1258.4634303964858,None,1258.4634303964858,None,j,1,None,None,1.4315895664785785,003,001,2,23,f,2021_Nov_08_1002,eye_tracking_exp,2021.2.3,84.93535493890802,
0,180,0,180,180,168,0,0,90,12,None,present,inhibit,freq_bottom,,,,,0,111,111,989,,,0.916759670932029,,,,,,,,,,1261.0872336835464,None,1261.0872336835464,None,None,1,None,None,,003,001,2,23,f,2021_Nov_08_1002,eye_tracking_exp,2021.2.3,84.93535493890802,
0,0,0,12,0,0,0,12,0,270,j,present,resp,freq_bottom,,,,,0,112,112,543,,,0.9308298685673272,,,,,,,,,,1265.4182978264853,None,1265.4182978264853,None,j,1,None,None,1.0201316088832755,003,001,2,23,f,2021_Nov_08_1002,eye_tracking_exp,2021.2.3,84.93535493890802,
0,180,12,0,0,168,180,0,180,0,None,abs,inhibit,freq_bottom,,,,,0,113,113,488,,,1.0820657200801058,,,,,,,,,,1268.0537666216205,None,1268.0537666216205,None,None,1,None,None,,003,001,2,23,f,2021_Nov_08_1002,eye_tracking_exp,2021.2.3,84.93535493890802,
12,180,0,0,-168,180,270,0,180,180,None,present,inhibit,freq_bottom,,,,,0,114,114,968,,,0.7203755853490205,,,,,,,,,,1271.7965673275821,None,1271.7965673275821,None,None,1,None,None,,003,001,2,23,f,2021_Nov_08_1002,eye_tracking_exp,2021.2.3,84.93535493890802,
180,168,180,0,180,180,180,0,180,12,None,abs,inhibit,freq_bottom,,,,,0,115,115,443,,,0.7845812880452465,,,,,,,,,,1275.5857807396415,None,1275.5857807396415,None,None,1,None,None,,003,001,2,23,f,2021_Nov_08_1002,eye_tracking_exp,2021.2.3,84.93535493890802,
-168,0,0,0,0,12,0,90,0,0,None,present,inhibit,freq_bottom,,,,,0,116,116,944,,,0.7088928001984963,,,,,,,,,,1279.5636507754916,None,1279.5636507754916,None,None,1,None,None,,003,001,2,23,f,2021_Nov_08_1002,eye_tracking_exp,2021.2.3,84.93535493890802,
180,180,180,12,180,180,0,180,0,12,j,abs,resp,freq_bottom,,,,,0,117,117,9,,,0.8024723300834233,,,,,,,,,,1283.387775892571,None,1283.387775892571,None,j,1,None,None,0.9382813790716682,003,001,2,23,f,2021_Nov_08_1002,eye_tracking_exp,2021.2.3,84.93535493890802,
180,180,180,0,0,-168,180,180,168,180,f,abs,resp,freq_bottom,,,,,0,118,118,414,,,0.8170152674922581,,,,,,,,,,1285.5173014574111,None,1285.5173014574111,None,f,1,None,None,1.4960793276541153,003,001,2,23,f,2021_Nov_08_1002,eye_tracking_exp,2021.2.3,84.93535493890802,
180,0,-168,0,0,0,-168,180,180,0,f,abs,resp,freq_bottom,,,,,0,119,119,313,,,1.0762787342540925,,,,,,,,,,1288.5418899710794,None,1288.5418899710794,None,f,1,None,None,1.0475683574522918,003,001,2,23,f,2021_Nov_08_1002,eye_tracking_exp,2021.2.3,84.93535493890802,
12,0,180,12,0,180,180,90,0,0,j,present,resp,freq_bottom,,,,,0,120,120,540,,,0.9926201441043557,,,,,,,,,,1290.6369318509387,None,1290.6369318509387,None,j,1,None,None,1.2235177967550044,003,001,2,23,f,2021_Nov_08_1002,eye_tracking_exp,2021.2.3,84.93535493890802,
270,180,12,180,180,0,180,-12,180,180,j,present,resp,freq_bottom,,,,,0,121,121,696,,,0.9684760225416763,,,,,,,,,,1293.12011576463,None,1293.12011576463,None,j,1,None,None,1.5243479684850172,003,001,2,23,f,2021_Nov_08_1002,eye_tracking_exp,2021.2.3,84.93535493890802,
168,180,0,-168,180,90,180,0,180,180,f,present,resp,freq_bottom,,,,,0,122,122,890,,,0.7684822867317256,,,,,,,,,,1295.791246960016,None,1295.791246960016,None,f,1,None,None,2.0052547431250787,003,001,2,23,f,2021_Nov_08_1002,eye_tracking_exp,2021.2.3,84.93535493890802,
180,0,0,12,180,-12,180,180,180,180,j,abs,resp,freq_bottom,,,,,0,123,123,209,,,0.8804194197145376,,,,,,,,,,1299.062956374857,None,1299.062956374857,None,j,1,None,None,1.373658050289123,003,001,2,23,f,2021_Nov_08_1002,eye_tracking_exp,2021.2.3,84.93535493890802,
-168,180,0,0,0,0,-168,0,0,0,f,abs,resp,freq_bottom,,,,,0,124,124,338,,,1.0961462979150085,,,,,,,,,,1301.5933707000659,None,1301.5933707000659,None,f,1,None,None,0.6991917396617282,003,001,2,23,f,2021_Nov_08_1002,eye_tracking_exp,2021.2.3,84.93535493890802,
0,0,12,0,0,0,90,0,0,168,None,present,inhibit,freq_bottom,,,,,0,125,125,932,,,0.7847822288695425,,,,,,,,,,1362.7595701568007,None,1362.7595701568007,None,None,1,None,None,,003,001,2,23,f,2021_Nov_08_1002,eye_tracking_exp,2021.2.3,84.93535493890802,
180,180,180,168,0,0,0,90,180,168,f,present,resp,freq_bottom,,,,,0,126,126,751,,,0.7537718944468709,,,,,,,,,,1366.7136470476726,None,1366.7136470476726,None,f,1,None,None,0.9998414064666576,003,001,2,23,f,2021_Nov_08_1002,eye_tracking_exp,2021.2.3,84.93535493890802,
0,0,0,0,0,0,12,0,270,168,None,present,inhibit,freq_bottom,,,,,0,127,127,936,,,0.9519714431152912,,,,,,,,,,1368.985015374612,None,1368.985015374612,None,None,1,None,None,,003,001,2,23,f,2021_Nov_08_1002,eye_tracking_exp,2021.2.3,84.93535493890802,
180,0,12,0,0,-12,180,180,90,180,j,present,resp,freq_bottom,,,,,0,128,128,712,,,0.8072667763053376,,,,,,,,,,1372.8096168073625,None,1372.8096168073625,None,j,1,None,None,1.3668945488680038,003,001,2,23,f,2021_Nov_08_1002,eye_tracking_exp,2021.2.3,84.93535493890802,
180,180,0,12,180,168,0,180,0,180,None,abs,inhibit,freq_bottom,,,,,0,129,129,489,,,0.8344246639673305,,,,,,,,,,1375.410975001275,None,1375.410975001275,None,None,1,None,None,,003,001,2,23,f,2021_Nov_08_1002,eye_tracking_exp,2021.2.3,84.93535493890802,
0,0,0,180,12,90,0,180,0,12,j,present,resp,freq_bottom,,,,,0,130,130,549,,,0.719110921397333,,,,,,,,,,1379.2459056623302,None,1379.2459056623302,None,j,1,None,None,0.8187988909166961,003,001,2,23,f,2021_Nov_08_1002,eye_tracking_exp,2021.2.3,84.93535493890802,
180,-168,180,-168,0,180,180,90,180,180,f,present,resp,freq_bottom,,,,,0,131,131,805,,,0.7202411892025923,,,,,,,,,,1381.0578720521926,None,1381.0578720521926,None,f,1,None,None,1.5188851288048681,003,001,2,23,f,2021_Nov_08_1002,eye_tracking_exp,2021.2.3,84.93535493890802,
0,-12,0,0,0,270,0,0,12,0,j,present,resp,freq_bottom,,,,,0,132,132,668,,,0.7777068009720134,,,,,,,,,,1383.611550987057,None,1383.611550987057,None,j,1,None,None,1.269208181306567,003,001,2,23,f,2021_Nov_08_1002,eye_tracking_exp,2021.2.3,84.93535493890802,
180,12,180,0,180,180,180,12,180,180,j,abs,resp,freq_bottom,,,,,0,133,133,25,,,0.8772971783814176,,,,,,,,,,1386.0353143698521,None,1386.0353143698521,None,j,1,None,None,0.796486912603541,003,001,2,23,f,2021_Nov_08_1002,eye_tracking_exp,2021.2.3,84.93535493890802,
180,180,168,180,180,0,0,168,180,0,f,abs,resp,freq_bottom,,,,,0,134,134,262,,,0.7991894553123007,,,,,,,,,,1387.9301874564771,None,1387.9301874564771,None,f,1,None,None,0.8056793824689521,003,001,2,23,f,2021_Nov_08_1002,eye_tracking_exp,2021.2.3,84.93535493890802,
180,90,0,0,180,180,-168,180,-168,180,f,present,resp,freq_bottom,,,,,0,135,135,789,,,0.8014344708585313,,,,,,,,,,1389.5786248362092,None,1389.5786248362092,None,f,1,None,None,0.9332127524876341,003,001,2,23,f,2021_Nov_08_1002,eye_tracking_exp,2021.2.3,84.93535493890802,
180,12,180,180,180,180,0,180,12,180,j,abs,resp,freq_bottom,,,,,0,136,136,1,,,0.7106316616700978,,,,,,,,,,1391.4721912241403,None,1391.4721912241403,None,j,1,None,None,0.7517422168984922,003,001,2,23,f,2021_Nov_08_1002,eye_tracking_exp,2021.2.3,84.93535493890802,
-12,0,0,0,0,0,0,180,-168,0,None,abs,inhibit,freq_bottom,,,,,0,137,137,490,,,0.9323242327893095,,,,,,,,,,1393.4254685204542,None,1393.4254685204542,None,None,1,None,None,,003,001,2,23,f,2021_Nov_08_1002,eye_tracking_exp,2021.2.3,84.93535493890802,
180,180,12,0,180,0,12,180,270,180,j,present,resp,freq_bottom,,,,,0,138,138,537,,,0.8662850071048225,,,,,,,,,,1397.3095919049274,None,1397.3095919049274,None,j,1,None,None,1.906707505921986,003,001,2,23,f,2021_Nov_08_1002,eye_tracking_exp,2021.2.3,84.93535493890802,
-168,180,0,0,0,0,168,0,0,0,f,abs,resp,freq_bottom,,,,,0,139,139,408,,,1.0871972201600717,,,,,,,,,,1400.616531474112,None,1400.616531474112,None,f,1,None,None,1.23851177942106,003,001,2,23,f,2021_Nov_08_1002,eye_tracking_exp,2021.2.3,84.93535493890802,
0,0,180,-168,0,0,270,180,180,-168,f,present,resp,freq_bottom,,,,,0,140,140,821,,,0.8643148794961846,,,,,,,,,,1402.9938429106087,None,1402.9938429106087,None,f,1,None,None,2.23762615826854,003,001,2,23,f,2021_Nov_08_1002,eye_tracking_exp,2021.2.3,84.93535493890802,
180,180,180,180,-12,0,0,0,-12,0,j,abs,resp,freq_bottom,,,,,0,141,141,74,,,0.7565636286606718,,,,,,,,,,1406.1843383905898,None,1406.1843383905898,None,j,1,None,None,1.2388199659226302,003,001,2,23,f,2021_Nov_08_1002,eye_tracking_exp,2021.2.3,84.93535493890802,
180,0,180,-12,180,180,12,180,180,0,j,abs,resp,freq_bottom,,,,,0,142,142,201,,,1.0642721187411013,,,,,,,,,,1408.6426579018143,None,1408.6426579018143,None,j,1,None,None,1.9815784132060799,003,001,2,23,f,2021_Nov_08_1002,eye_tracking_exp,2021.2.3,84.93535493890802,
0,180,0,180,168,0,0,270,0,168,f,present,resp,freq_bottom,,,,,0,143,143,759,,,0.7347997266341055,,,,,,,,,,1411.619425288015,None,1411.619425288015,None,f,1,None,None,0.9557459851648673,003,001,2,23,f,2021_Nov_08_1002,eye_tracking_exp,2021.2.3,84.93535493890802,
0,180,180,180,180,12,0,0,-168,0,None,abs,inhibit,freq_bottom,,,,,0,144,144,426,,,1.070476463588924,,,,,,,,,,1414.0317006491832,None,1414.0317006491832,None,None,1,None,None,,003,001,2,23,f,2021_Nov_08_1002,eye_tracking_exp,2021.2.3,84.93535493890802,
0,0,0,0,0,-168,0,0,-168,0,f,abs,resp,freq_bottom,,,,,0,145,145,286,,,1.0435820839836483,,,,,,,,,,1418.0920653596859,None,1418.0920653596859,None,f,1,None,None,0.8982135116339123,003,001,2,23,f,2021_Nov_08_1002,eye_tracking_exp,2021.2.3,84.93535493890802,
180,0,180,12,180,180,180,0,180,-12,j,abs,resp,freq_bottom,,,,,0,146,146,149,,,0.9823091737896125,,,,,,,,,,1420.1753297459736,None,1420.1753297459736,None,j,1,None,None,1.5510002148803324,003,001,2,23,f,2021_Nov_08_1002,eye_tracking_exp,2021.2.3,84.93535493890802,
0,0,0,-12,180,-12,0,0,90,0,j,present,resp,freq_bottom,,,,,0,147,147,643,,,0.900896445143882,,,,,,,,,,1422.9873921234048,None,1422.9873921234048,None,j,1,None,None,1.2514015817687323,003,001,2,23,f,2021_Nov_08_1002,eye_tracking_exp,2021.2.3,84.93535493890802,
0,12,180,0,180,180,0,180,180,12,j,abs,resp,freq_bottom,,,,,0,148,148,23,,,1.0853460159866934,,,,,,,,,,1425.7289437835825,None,1425.7289437835825,None,j,1,None,None,0.7494140655853698,003,001,2,23,f,2021_Nov_08_1002,eye_tracking_exp,2021.2.3,84.93535493890802,
0,0,0,0,0,0,0,168,0,12,None,abs,inhibit,freq_bottom,,,,,0,149,149,469,,,0.827489848053612,,,,,,,,,,1427.5409865409129,None,1427.5409865409129,None,None,1,None,None,,003,001,2,23,f,2021_Nov_08_1002,eye_tracking_exp,2021.2.3,84.93535493890802,
0,0,0,0,0,-12,0,0,-168,0,None,abs,inhibit,freq_bottom,,,,,0,150,150,496,,,0.8879397875439965,,,,,,,,,,1431.4479688517322,None,1431.4479688517322,None,None,1,None,None,,003,001,2,23,f,2021_Nov_08_1002,eye_tracking_exp,2021.2.3,84.93535493890802,
180,0,180,-168,180,180,-168,0,180,0,f,abs,resp,freq_bottom,,,,,0,151,151,341,,,0.9451844167736867,,,,,,,,,,1435.4031332998684,None,1435.4031332998684,None,j,0,1436.4639773445188,None,1.042429098505636,003,001,2,23,f,2021_Nov_08_1002,eye_tracking_exp,2021.2.3,84.93535493890802,
180,180,180,0,-168,0,270,180,180,-168,f,present,resp,freq_bottom,,,,,0,152,152,794,,,1.0868352500585237,,,,,,,,,,1438.0852994434827,None,1438.0852994434827,None,f,1,None,None,1.704262781026955,003,001,2,23,f,2021_Nov_08_1002,eye_tracking_exp,2021.2.3,84.93535493890802,
180,168,180,168,180,180,180,180,270,180,f,present,resp,freq_bottom,,,,,0,153,153,735,,,0.8262229100014719,,,,,,,,,,1440.991582976876,None,1440.991582976876,None,f,1,None,None,2.015307177088289,003,001,2,23,f,2021_Nov_08_1002,eye_tracking_exp,2021.2.3,84.93535493890802,
0,-12,0,0,0,0,0,0,12,0,j,abs,resp,freq_bottom,,,,,0,154,154,164,,,0.8031504582563176,,,,,,,,,,1444.2398074332405,None,1444.2398074332405,None,j,1,None,None,1.805839663597908,003,001,2,23,f,2021_Nov_08_1002,eye_tracking_exp,2021.2.3,84.93535493890802,
-168,180,0,0,0,0,-168,0,0,270,f,present,resp,freq_bottom,,,,,0,155,155,842,,,0.8984242346748229,,,,,,,,,,1447.2171413875758,None,1447.2171413875758,None,f,1,None,None,1.1965706451555889,003,001,2,23,f,2021_Nov_08_1002,eye_tracking_exp,2021.2.3,84.93535493890802,
180,180,0,180,180,12,0,12,0,270,j,present,resp,freq_bottom,,,,,0,156,156,559,,,0.8653266684313073,,,,,,,,,,1449.7358253074544,None,1449.7358253074544,None,j,1,None,None,1.3488763540917716,003,001,2,23,f,2021_Nov_08_1002,eye_tracking_exp,2021.2.3,84.93535493890802,
0,180,0,180,270,180,-168,180,168,180,f,present,resp,freq_bottom,,,,,0,157,157,859,,,0.7428428784143086,,,,,,,,,,1452.2541720634517,None,1452.2541720634517,None,f,1,None,None,0.8946692159379381,003,001,2,23,f,2021_Nov_08_1002,eye_tracking_exp,2021.2.3,84.93535493890802,
90,0,168,180,180,180,180,-168,0,0,f,present,resp,freq_bottom,,,,,0,158,158,886,,,0.7513933867535105,,,,,,,,,,1454.1605171737756,None,1454.1605171737756,None,f,1,None,None,1.036280460850321,003,001,2,23,f,2021_Nov_08_1002,eye_tracking_exp,2021.2.3,84.93535493890802,
0,12,0,0,12,0,0,0,0,0,j,abs,resp,freq_bottom,,,,,0,159,159,22,,,0.9325811360121785,,,,,,,,,,1456.2672472002869,None,1456.2672472002869,None,j,1,None,None,2.113854414292291,003,001,2,23,f,2021_Nov_08_1002,eye_tracking_exp,2021.2.3,84.93535493890802,
0,-168,0,0,-168,0,270,0,0,0,f,present,resp,freq_bottom,,,,,0,160,160,806,,,0.9403596137748625,,,,,,,,,,1459.5859742240173,None,1459.5859742240173,None,f,1,None,None,0.7789411094790921,003,001,2,23,f,2021_Nov_08_1002,eye_tracking_exp,2021.2.3,84.93535493890802,
180,0,168,0,0,90,0,180,168,180,f,present,resp,freq_bottom,,,,,0,161,161,745,,,0.9837085901072616,,,,,,,,,,1461.6572555584498,None,1461.6572555584498,None,f,1,None,None,0.9956605139695966,003,001,2,23,f,2021_Nov_08_1002,eye_tracking_exp,2021.2.3,84.93535493890802,
180,168,0,0,12,0,180,180,180,180,None,abs,inhibit,freq_bottom,,,,,0,162,162,442,,,0.7036029537636173,,,,,,,,,,1463.6927431888816,None,1463.6927431888816,None,None,1,None,None,,003,001,2,23,f,2021_Nov_08_1002,eye_tracking_exp,2021.2.3,84.93535493890802,
0,0,270,0,0,0,-168,0,0,-168,f,present,resp,freq_bottom,,,,,0,163,163,796,,,0.8866393705674538,,,,,,,,,,1468.140807726335,None,1468.140807726335,None,f,1,None,None,1.519684119667545,003,001,2,23,f,2021_Nov_08_1002,eye_tracking_exp,2021.2.3,84.93535493890802,
180,180,180,0,-12,0,-12,0,90,180,j,present,resp,freq_bottom,,,,,0,164,164,636,,,0.8071687923438989,,,,,,,,,,1470.7884919960552,None,1470.7884919960552,None,j,1,None,None,0.8715238361237425,003,001,2,23,f,2021_Nov_08_1002,eye_tracking_exp,2021.2.3,84.93535493890802,
0,180,180,180,180,168,0,-168,0,0,f,abs,resp,freq_bottom,,,,,0,165,165,405,,,0.7523765802640741,,,,,,,,,,1472.577098694237,None,1472.577098694237,None,None,0,1475.5781744794403,None,,003,001,2,23,f,2021_Nov_08_1002,eye_tracking_exp,2021.2.3,84.93535493890802,
0,0,0,-168,0,168,0,180,0,0,f,abs,resp,freq_bottom,,,,,0,166,166,391,,,1.0691816348333258,,,,,,,,,,1477.1663226105957,None,1477.1663226105957,None,f,1,None,None,0.7819179315001747,003,001,2,23,f,2021_Nov_08_1002,eye_tracking_exp,2021.2.3,84.93535493890802,
270,0,0,-168,0,0,0,168,0,0,f,present,resp,freq_bottom,,,,,0,167,167,893,,,0.8183295452189409,,,,,,,,,,1520.297110502519,None,1520.297110502519,None,f,1,None,None,1.4407382684275944,003,001,2,23,f,2021_Nov_08_1002,eye_tracking_exp,2021.2.3,84.93535493890802,
180,0,-12,0,0,270,0,180,-12,0,j,present,resp,freq_bottom,,,,,0,168,168,605,,,0.9781991626523925,,,,,,,,,,1523.085933323654,None,1523.085933323654,None,j,1,None,None,0.8918297346199324,003,001,2,23,f,2021_Nov_08_1002,eye_tracking_exp,2021.2.3,84.93535493890802,
0,180,0,0,0,0,-12,0,-12,0,j,abs,resp,freq_bottom,,,,,0,169,169,126,,,1.0609439057701457,,,,,,,,,,1525.1926705945098,None,1525.1926705945098,None,j,1,None,None,0.8322066639175318,003,001,2,23,f,2021_Nov_08_1002,eye_tracking_exp,2021.2.3,84.93535493890802,
180,180,0,0,168,180,180,0,168,180,f,abs,resp,freq_bottom,,,,,0,170,170,256,,,0.768189514412259,,,,,,,,,,1527.0049844110754,None,1527.0049844110754,None,f,1,None,None,0.8597904123171247,003,001,2,23,f,2021_Nov_08_1002,eye_tracking_exp,2021.2.3,84.93535493890802,
0,0,-12,0,0,0,0,0,12,0,j,abs,resp,freq_bottom,,,,,0,171,171,142,,,0.8721724518345515,,,,,,,,,,1529.170236971574,None,1529.170236971574,None,j,1,None,None,0.920173233681453,003,001,2,23,f,2021_Nov_08_1002,eye_tracking_exp,2021.2.3,84.93535493890802,
0,0,0,0,-12,0,270,0,12,0,j,present,resp,freq_bottom,,,,,0,172,172,648,,,0.9829068066823172,,,,,,,,,,1531.4178879173078,None,1531.4178879173078,None,j,1,None,None,1.0869975151554172,003,001,2,23,f,2021_Nov_08_1002,eye_tracking_exp,2021.2.3,84.93535493890802,
180,168,0,0,0,90,0,-168,180,180,f,present,resp,freq_bottom,,,,,0,173,173,905,,,1.029503155570724,,,,,,,,,,1533.7826515449015,None,1533.7826515449015,None,f,1,None,None,1.4422740695272296,003,001,2,23,f,2021_Nov_08_1002,eye_tracking_exp,2021.2.3,84.93535493890802,
0,180,180,180,180,-12,180,180,12,0,j,abs,resp,freq_bottom,,,,,0,174,174,204,,,0.8406566445476726,,,,,,,,,,1536.52487904208,None,1536.52487904208,None,j,1,None,None,1.2762668897776166,003,001,2,23,f,2021_Nov_08_1002,eye_tracking_exp,2021.2.3,84.93535493890802,
168,180,180,0,0,-168,180,90,0,0,f,present,resp,freq_bottom,,,,,0,175,175,920,,,0.7376099607627629,,,,,,,,,,1538.7959108088335,None,1538.7959108088335,None,f,1,None,None,2.1881216261763257,003,001,2,23,f,2021_Nov_08_1002,eye_tracking_exp,2021.2.3,84.93535493890802,
180,0,-168,0,0,0,-168,180,270,0,f,present,resp,freq_bottom,,,,,0,176,176,817,,,1.0479217008161152,,,,,,,,,,1542.3974398485443,None,1542.3974398485443,None,f,1,None,None,0.9865981404627746,003,001,2,23,f,2021_Nov_08_1002,eye_tracking_exp,2021.2.3,84.93535493890802,
180,180,0,-168,180,180,-168,0,270,180,f,present,resp,freq_bottom,,,,,0,177,177,824,,,1.0846096995802028,,,,,,,,,,1544.7506046764056,None,1544.7506046764056,None,f,1,None,None,0.6494943268889983,003,001,2,23,f,2021_Nov_08_1002,eye_tracking_exp,2021.2.3,84.93535493890802,
180,-168,180,180,180,-168,0,0,180,90,f,present,resp,freq_bottom,,,,,0,178,178,851,,,0.9164142465277445,,,,,,,,,,1546.715434891602,None,1546.715434891602,None,f,1,None,None,0.6046611898063929,003,001,2,23,f,2021_Nov_08_1002,eye_tracking_exp,2021.2.3,84.93535493890802,
-12,0,-12,0,0,0,90,0,0,0,j,present,resp,freq_bottom,,,,,0,179,179,588,,,0.722295146797056,,,,,,,,,,1548.4449159640908,None,1548.4449159640908,None,j,1,None,None,1.1952177637622299,003,001,2,23,f,2021_Nov_08_1002,eye_tracking_exp,2021.2.3,84.93535493890802,
-12,0,0,0,0,0,270,0,-12,0,j,present,resp,freq_bottom,,,,,0,180,180,574,,,1.0018728202443512,,,,,,,,,,1550.9397596507497,None,1550.9397596507497,None,j,1,None,None,1.373536405665618,003,001,2,23,f,2021_Nov_08_1002,eye_tracking_exp,2021.2.3,84.93535493890802,
180,0,180,180,180,12,180,90,180,-12,j,present,resp,freq_bottom,,,,,0,181,181,657,,,0.9955271628850557,,,,,,,,,,1553.8694058943001,None,1553.8694058943001,None,j,1,None,None,1.0030080906908552,003,001,2,23,f,2021_Nov_08_1002,eye_tracking_exp,2021.2.3,84.93535493890802,
0,0,180,180,180,90,0,12,0,12,j,present,resp,freq_bottom,,,,,0,182,182,553,,,0.8805793512107691,,,,,,,,,,1556.070682468595,None,1556.070682468595,None,j,1,None,None,1.2646225110420346,003,001,2,23,f,2021_Nov_08_1002,eye_tracking_exp,2021.2.3,84.93535493890802,
180,0,180,0,12,180,180,0,-12,0,j,abs,resp,freq_bottom,,,,,0,183,183,186,,,0.9750311957323865,,,,,,,,,,1558.9173003707592,None,1558.9173003707592,None,j,1,None,None,1.2820662896447175,003,001,2,23,f,2021_Nov_08_1002,eye_tracking_exp,2021.2.3,84.93535493890802,
180,0,180,0,-12,180,-12,180,270,180,j,present,resp,freq_bottom,,,,,0,184,184,622,,,1.0234150646155484,,,,,,,,,,1561.8706449791107,None,1561.8706449791107,None,j,1,None,None,0.7925692313019681,003,001,2,23,f,2021_Nov_08_1002,eye_tracking_exp,2021.2.3,84.93535493890802,
0,0,168,0,0,0,168,0,270,0,f,present,resp,freq_bottom,,,,,0,185,185,774,,,0.8884483426622791,,,,,,,,,,1563.694363205489,None,1563.694363205489,None,f,1,None,None,0.8730231136514703,003,001,2,23,f,2021_Nov_08_1002,eye_tracking_exp,2021.2.3,84.93535493890802,
0,-12,180,180,180,0,90,0,-12,0,j,present,resp,freq_bottom,,,,,0,186,186,598,,,0.9938144428229245,,,,,,,,,,1565.8944933622179,None,1565.8944933622179,None,j,1,None,None,1.506521145151055,003,001,2,23,f,2021_Nov_08_1002,eye_tracking_exp,2021.2.3,84.93535493890802,
0,-12,0,0,0,270,0,-12,0,0,j,present,resp,freq_bottom,,,,,0,187,187,625,,,0.8591745295539079,,,,,,,,,,1568.5074087008807,None,1568.5074087008807,None,j,1,None,None,1.1640239168682456,003,001,2,23,f,2021_Nov_08_1002,eye_tracking_exp,2021.2.3,84.93535493890802,
180,180,180,12,0,12,0,270,0,180,j,present,resp,freq_bottom,,,,,0,188,188,573,,,0.8646301620146782,,,,,,,,,,1570.8020564280123,None,1570.8020564280123,None,j,1,None,None,0.8205710387655927,003,001,2,23,f,2021_Nov_08_1002,eye_tracking_exp,2021.2.3,84.93535493890802,
180,0,180,168,180,180,168,180,180,90,f,present,resp,freq_bottom,,,,,0,189,189,775,,,1.0565540919182328,,,,,,,,,,1572.9668613483718,None,1572.9668613483718,None,f,1,None,None,0.7356217386140997,003,001,2,23,f,2021_Nov_08_1002,eye_tracking_exp,2021.2.3,84.93535493890802,
180,0,180,0,-168,0,180,0,-168,0,f,abs,resp,freq_bottom,,,,,0,190,190,326,,,0.7874089361061447,,,,,,,,,,1574.5790936056883,None,1574.5790936056883,None,f,1,None,None,2.132679749818635,003,001,2,23,f,2021_Nov_08_1002,eye_tracking_exp,2021.2.3,84.93535493890802,
180,12,0,-12,0,0,0,180,180,270,j,present,resp,freq_bottom,,,,,0,191,191,679,,,1.014604826832439,,,,,,,,,,1578.0510850066512,None,1578.0510850066512,None,j,1,None,None,2.10058156721243,003,001,2,23,f,2021_Nov_08_1002,eye_tracking_exp,2021.2.3,84.93535493890802,
0,0,0,-168,0,180,0,-168,0,0,f,abs,resp,freq_bottom,,,,,0,192,192,333,,,0.8415296218980002,,,,,,,,,,1581.0400059886579,None,1581.0400059886579,None,j,0,1581.8172849463417,None,0.7587145969282574,003,001,2,23,f,2021_Nov_08_1002,eye_tracking_exp,2021.2.3,84.93535493890802,
0,-12,180,180,180,180,0,180,0,12,j,abs,resp,freq_bottom,,,,,0,193,193,163,,,1.0297052965918483,,,,,,,,,,1583.487583947618,None,1583.487583947618,None,j,1,None,None,0.9830933868142893,003,001,2,23,f,2021_Nov_08_1002,eye_tracking_exp,2021.2.3,84.93535493890802,
0,12,0,0,0,180,0,12,0,90,j,present,resp,freq_bottom,,,,,0,194,194,555,,,0.7229863103943841,,,,,,,,,,1585.5345994435738,None,1585.5345994435738,None,j,1,None,None,0.8560767800599933,003,001,2,23,f,2021_Nov_08_1002,eye_tracking_exp,2021.2.3,84.93535493890802,
180,168,180,180,180,-168,0,0,180,0,f,abs,resp,freq_bottom,,,,,0,195,195,417,,,0.7448767713344437,,,,,,,,,,1587.8059780333351,None,1587.8059780333351,None,f,1,None,None,0.85576648062397,003,001,2,23,f,2021_Nov_08_1002,eye_tracking_exp,2021.2.3,84.93535493890802,
0,0,0,180,180,-12,0,-12,0,270,j,present,resp,freq_bottom,,,,,0,196,196,629,,,0.8465872591048762,,,,,,,,,,1589.9711436616963,None,1589.9711436616963,None,j,1,None,None,1.8746066066878484,003,001,2,23,f,2021_Nov_08_1002,eye_tracking_exp,2021.2.3,84.93535493890802,
180,0,180,-168,180,180,-168,0,180,0,f,abs,resp,freq_bottom,,,,,0,197,197,320,,,0.8114631385754295,,,,,,,,,,1592.8427605904017,None,1592.8427605904017,None,f,1,None,None,0.8430282058225202,003,001,2,23,f,2021_Nov_08_1002,eye_tracking_exp,2021.2.3,84.93535493890802,
0,0,0,0,0,0,0,-12,0,-12,j,abs,resp,freq_bottom,,,,,0,198,198,119,,,1.09383753085741,,,,,,,,,,1595.113990671095,None,1595.113990671095,None,j,1,None,None,0.8278600570320123,003,001,2,23,f,2021_Nov_08_1002,eye_tracking_exp,2021.2.3,84.93535493890802,
180,180,180,0,168,0,168,0,270,180,f,present,resp,freq_bottom,,,,,0,199,199,776,,,0.9716244657099243,,,,,,,,,,1597.0907604720778,None,1597.0907604720778,None,f,1,None,None,0.7711350261015468,003,001,2,23,f,2021_Nov_08_1002,eye_tracking_exp,2021.2.3,84.93535493890802,
0,0,0,12,0,0,270,180,180,12,j,present,resp,freq_bottom,,,,,0,200,200,541,,,0.9334541357398424,,,,,,,,,,1599.1033052625035,None,1599.1033052625035,None,j,1,None,None,0.8553541566643617,003,001,2,23,f,2021_Nov_08_1002,eye_tracking_exp,2021.2.3,84.93535493890802,
0,-168,180,0,180,180,180,168,0,180,f,abs,resp,freq_bottom,,,,,0,201,201,375,,,1.0300752026512006,,,,,,,,,,1601.1734374627404,None,1601.1734374627404,None,f,1,None,None,1.1524568111435656,003,001,2,23,f,2021_Nov_08_1002,eye_tracking_exp,2021.2.3,84.93535493890802,
0,0,180,180,180,90,180,168,180,168,f,present,resp,freq_bottom,,,,,0,202,202,725,,,0.849259389653794,,,,,,,,,,1603.4916821338456,None,1603.4916821338456,None,f,1,None,None,0.9612767405778868,003,001,2,23,f,2021_Nov_08_1002,eye_tracking_exp,2021.2.3,84.93535493890802,
180,0,180,12,180,180,12,0,270,180,j,present,resp,freq_bottom,,,,,0,203,203,544,,,0.9451567593852652,,,,,,,,,,1605.762501097971,None,1605.762501097971,None,j,1,None,None,0.7393405022821753,003,001,2,23,f,2021_Nov_08_1002,eye_tracking_exp,2021.2.3,84.93535493890802,
-168,0,0,0,-168,0,0,0,0,0,f,abs,resp,freq_bottom,,,,,0,204,204,296,,,0.9860856445898947,,,,,,,,,,1607.7632028938742,None,1607.7632028938742,None,f,1,None,None,1.1537731689641078,003,001,2,23,f,2021_Nov_08_1002,eye_tracking_exp,2021.2.3,84.93535493890802,
180,180,12,0,0,0,90,0,-168,180,None,present,inhibit,freq_bottom,,,,,0,205,205,926,,,1.0258133830902143,,,,,,,,,,1610.5282437383958,None,1610.5282437383958,None,None,1,None,None,,003,001,2,23,f,2021_Nov_08_1002,eye_tracking_exp,2021.2.3,84.93535493890802,
12,0,0,0,12,0,270,180,180,180,j,present,resp,freq_bottom,,,,,0,206,206,520,,,1.0037336578464293,,,,,,,,,,1614.5411081855354,None,1614.5411081855354,None,j,1,None,None,0.8400749279217052,003,001,2,23,f,2021_Nov_08_1002,eye_tracking_exp,2021.2.3,84.93535493890802,
180,12,180,180,180,270,180,180,-168,180,None,present,inhibit,freq_bottom,,,,,0,207,207,925,,,1.068606467924163,,,,,,,,,,1616.8589604546305,None,1616.8589604546305,None,None,1,None,None,,003,001,2,23,f,2021_Nov_08_1002,eye_tracking_exp,2021.2.3,84.93535493890802,
180,0,0,-12,0,270,0,12,180,180,j,present,resp,freq_bottom,,,,,0,208,208,683,,,0.9961356063823699,,,,,,,,,,1620.966148987799,None,1620.966148987799,None,j,1,None,None,1.0540463109482516,003,001,2,23,f,2021_Nov_08_1002,eye_tracking_exp,2021.2.3,84.93535493890802,
12,0,0,0,0,-12,180,0,0,0,j,abs,resp,freq_bottom,,,,,0,209,209,206,,,0.987175739229473,,,,,,,,,,1677.143994030659,None,1677.143994030659,None,j,1,None,None,0.8580556935830828,003,001,2,23,f,2021_Nov_08_1002,eye_tracking_exp,2021.2.3,84.93535493890802,
0,-168,0,0,-168,0,180,180,0,0,f,abs,resp,freq_bottom,,,,,0,210,210,302,,,0.815061179240664,,,,,,,,,,1679.1561524560284,None,1679.1561524560284,None,f,1,None,None,0.7658973648049141,003,001,2,23,f,2021_Nov_08_1002,eye_tracking_exp,2021.2.3,84.93535493890802,
168,0,0,0,168,0,0,0,0,0,f,abs,resp,freq_bottom,,,,,0,211,211,226,,,0.7408189010321772,,,,,,,,,,1680.8857162347877,None,1680.8857162347877,None,f,1,None,None,0.6835065257619135,003,001,2,23,f,2021_Nov_08_1002,eye_tracking_exp,2021.2.3,84.93535493890802,
0,0,168,180,180,-168,0,90,0,0,f,present,resp,freq_bottom,,,,,0,212,212,888,,,0.9899141817603136,,,,,,,,,,1682.6863790319676,None,1682.6863790319676,None,f,1,None,None,0.7706864804185898,003,001,2,23,f,2021_Nov_08_1002,eye_tracking_exp,2021.2.3,84.93535493890802,
0,180,0,0,168,180,180,168,180,0,f,abs,resp,freq_bottom,,,,,0,213,213,264,,,0.8841401957422281,,,,,,,,,,1684.6169905844645,None,1684.6169905844645,None,f,1,None,None,0.6813618978503655,003,001,2,23,f,2021_Nov_08_1002,eye_tracking_exp,2021.2.3,84.93535493890802,
-168,0,168,0,270,0,0,180,0,180,f,present,resp,freq_bottom,,,,,0,214,214,883,,,0.894462955377958,,,,,,,,,,1686.3806978658458,None,1686.3806978658458,None,f,1,None,None,1.124479453343156,003,001,2,23,f,2021_Nov_08_1002,eye_tracking_exp,2021.2.3,84.93535493890802,
180,180,168,0,168,180,180,0,0,180,f,abs,resp,freq_bottom,,,,,0,215,215,238,,,1.0763634061208485,,,,,,,,,,1688.8634196507073,None,1688.8634196507073,None,f,1,None,None,0.6737176048400215,003,001,2,23,f,2021_Nov_08_1002,eye_tracking_exp,2021.2.3,84.93535493890802,
180,0,180,0,180,-168,0,270,180,168,f,present,resp,freq_bottom,,,,,0,216,216,919,,,0.7866430213620313,,,,,,,,,,1690.722640298056,None,1690.722640298056,None,f,1,None,None,1.5345501189085553,003,001,2,23,f,2021_Nov_08_1002,eye_tracking_exp,2021.2.3,84.93535493890802,
0,0,-12,0,0,0,0,0,-12,0,j,abs,resp,freq_bottom,,,,,0,217,217,72,,,0.9856834067543305,,,,,,,,,,1693.5473660920588,None,1693.5473660920588,None,j,1,None,None,1.4459357839805307,003,001,2,23,f,2021_Nov_08_1002,eye_tracking_exp,2021.2.3,84.93535493890802,
0,-168,180,180,180,-168,0,90,180,180,f,present,resp,freq_bottom,,,,,0,218,218,811,,,0.7538942409314944,,,,,,,,,,1696.207236255289,None,1696.207236255289,None,f,1,None,None,0.8810184555377418,003,001,2,23,f,2021_Nov_08_1002,eye_tracking_exp,2021.2.3,84.93535493890802,
0,180,0,0,0,0,168,0,168,180,f,abs,resp,freq_bottom,,,,,0,219,219,266,,,1.0277280224109209,,,,,,,,,,1698.2196621177209,None,1698.2196621177209,None,f,1,None,None,0.7886418908719861,003,001,2,23,f,2021_Nov_08_1002,eye_tracking_exp,2021.2.3,84.93535493890802,
0,0,270,0,0,-168,0,0,-168,0,f,present,resp,freq_bottom,,,,,0,220,220,790,,,0.8229585562140296,,,,,,,,,,1700.1376531160186,None,1700.1376531160186,None,f,1,None,None,1.0466582866356475,003,001,2,23,f,2021_Nov_08_1002,eye_tracking_exp,2021.2.3,84.93535493890802,
0,0,0,180,-168,0,0,90,0,12,None,present,inhibit,freq_bottom,,,,,0,221,221,969,,,1.0665196448041763,,,,,,,,,,1702.444335812811,None,1702.444335812811,None,None,1,None,None,,003,001,2,23,f,2021_Nov_08_1002,eye_tracking_exp,2021.2.3,84.93535493890802,
-168,0,0,0,0,0,90,0,-168,0,f,present,resp,freq_bottom,,,,,0,222,222,784,,,1.0558514609685021,,,,,,,,,,1706.5160210194663,None,1706.5160210194663,None,f,1,None,None,1.4683911399506542,003,001,2,23,f,2021_Nov_08_1002,eye_tracking_exp,2021.2.3,84.93535493890802,
180,12,180,180,180,168,0,180,0,180,None,abs,inhibit,freq_bottom,,,,,0,223,223,487,,,0.8775701862423552,,,,,,,,,,1708.9750423265932,None,1708.9750423265932,None,None,1,None,None,,003,001,2,23,f,2021_Nov_08_1002,eye_tracking_exp,2021.2.3,84.93535493890802,
180,180,180,180,0,-168,180,180,-168,0,f,abs,resp,freq_bottom,,,,,0,224,224,344,,,0.9622547225311184,,,,,,,,,,1712.9414810881844,None,1712.9414810881844,None,f,1,None,None,0.9781301050779803,003,001,2,23,f,2021_Nov_08_1002,eye_tracking_exp,2021.2.3,84.93535493890802,
0,168,180,180,180,90,0,0,168,0,f,present,resp,freq_bottom,,,,,0,225,225,738,,,1.0182143460242123,,,,,,,,,,1715.1902506814959,None,1715.1902506814959,None,f,1,None,None,0.9053153843278778,003,001,2,23,f,2021_Nov_08_1002,eye_tracking_exp,2021.2.3,84.93535493890802,
0,0,-12,0,0,0,-12,0,90,0,j,present,resp,freq_bottom,,,,,0,226,226,634,,,0.78773644708983,,,,,,,,,,1717.3193210600039,None,1717.3193210600039,None,j,1,None,None,1.2402516295651367,003,001,2,23,f,2021_Nov_08_1002,eye_tracking_exp,2021.2.3,84.93535493890802,
0,0,0,-12,0,0,0,180,180,12,j,abs,resp,freq_bottom,,,,,0,227,227,177,,,1.0970330179062204,,,,,,,,,,1719.8490028008446,None,1719.8490028008446,None,j,1,None,None,1.1106125699898257,003,001,2,23,f,2021_Nov_08_1002,eye_tracking_exp,2021.2.3,84.93535493890802,
12,0,0,0,0,168,180,270,180,180,None,present,inhibit,freq_bottom,,,,,0,228,228,990,,,0.7438946980143549,,,,,,,,,,1722.0848134686858,None,1722.0848134686858,None,None,1,None,None,,003,001,2,23,f,2021_Nov_08_1002,eye_tracking_exp,2021.2.3,84.93535493890802,
180,180,-12,0,-12,180,180,0,0,180,j,abs,resp,freq_bottom,,,,,0,229,229,112,,,0.9951992575573032,,,,,,,,,,1726.0984391757256,None,1726.0984391757256,None,j,1,None,None,1.117246578747654,003,001,2,23,f,2021_Nov_08_1002,eye_tracking_exp,2021.2.3,84.93535493890802,
180,168,180,180,180,180,180,270,180,-168,f,present,resp,freq_bottom,,,,,0,230,230,861,,,0.7787283171239928,,,,,,,,,,1728.1459143857292,None,1728.1459143857292,None,f,1,None,None,1.724811365073947,003,001,2,23,f,2021_Nov_08_1002,eye_tracking_exp,2021.2.3,84.93535493890802,
0,180,180,180,168,0,90,0,0,-168,f,present,resp,freq_bottom,,,,,0,231,231,864,,,0.7160531528340529,,,,,,,,,,1730.877290458081,None,1730.877290458081,None,f,1,None,None,1.0901044335341794,003,001,2,23,f,2021_Nov_08_1002,eye_tracking_exp,2021.2.3,84.93535493890802,
180,180,180,12,180,168,0,0,90,0,None,present,inhibit,freq_bottom,,,,,0,232,232,993,,,0.8660301187412625,,,,,,,,,,1733.2063098846966,None,1733.2063098846966,None,None,1,None,None,,003,001,2,23,f,2021_Nov_08_1002,eye_tracking_exp,2021.2.3,84.93535493890802,
0,180,180,180,180,-168,180,90,0,168,f,present,resp,freq_bottom,,,,,0,233,233,918,,,0.8426572443999951,,,,,,,,,,1737.0546422817988,None,1737.0546422817988,None,f,1,None,None,1.2964191477949498,003,001,2,23,f,2021_Nov_08_1002,eye_tracking_exp,2021.2.3,84.93535493890802,
0,0,-12,0,0,0,270,0,-12,0,j,present,resp,freq_bottom,,,,,0,234,234,576,,,0.8698289642502423,,,,,,,,,,1739.7026027421653,None,1739.7026027421653,None,j,1,None,None,1.3528755342731529,003,001,2,23,f,2021_Nov_08_1002,eye_tracking_exp,2021.2.3,84.93535493890802,
0,0,0,0,0,-12,0,0,-12,0,j,abs,resp,freq_bottom,,,,,0,235,235,76,,,0.8957745299932943,,,,,,,,,,1742.2559737923748,None,1742.2559737923748,None,j,1,None,None,1.6940135423628817,003,001,2,23,f,2021_Nov_08_1002,eye_tracking_exp,2021.2.3,84.93535493890802,
168,0,0,0,0,-168,0,0,180,180,f,abs,resp,freq_bottom,,,,,0,236,236,370,,,0.9877525600685818,,,,,,,,,,1745.2455902314832,None,1745.2455902314832,None,f,1,None,None,1.0406011088334708,003,001,2,23,f,2021_Nov_08_1002,eye_tracking_exp,2021.2.3,84.93535493890802,
180,180,168,0,270,0,0,180,-168,180,f,present,resp,freq_bottom,,,,,0,237,237,885,,,0.9103668899044988,,,,,,,,,,1747.5045526179401,None,1747.5045526179401,None,f,1,None,None,0.9259059252053703,003,001,2,23,f,2021_Nov_08_1002,eye_tracking_exp,2021.2.3,84.93535493890802,
0,180,180,-12,180,180,-12,0,180,180,j,abs,resp,freq_bottom,,,,,0,238,238,110,,,0.974000701831879,,,,,,,,,,1749.4931482081256,None,1749.4931482081256,None,j,1,None,None,0.7608734116802225,003,001,2,23,f,2021_Nov_08_1002,eye_tracking_exp,2021.2.3,84.93535493890802,
180,180,180,-12,0,0,0,270,180,12,j,present,resp,freq_bottom,,,,,0,239,239,681,,,0.8786580839137745,,,,,,,,,,1751.6581275964554,None,1751.6581275964554,None,j,1,None,None,1.5879925560993797,003,001,2,23,f,2021_Nov_08_1002,eye_tracking_exp,2021.2.3,84.93535493890802,
0,168,0,0,0,0,168,0,0,0,f,abs,resp,freq_bottom,,,,,0,240,240,236,,,0.9398173774305759,,,,,,,,,,1754.5170394536071,None,1754.5170394536071,None,f,1,None,None,0.953118099085259,003,001,2,23,f,2021_Nov_08_1002,eye_tracking_exp,2021.2.3,84.93535493890802,
0,0,0,180,90,180,168,180,180,-168,f,present,resp,freq_bottom,,,,,0,241,241,911,,,1.0458115994740003,,,,,,,,,,1756.8112301833207,None,1756.8112301833207,None,f,1,None,None,1.2988076686469867,003,001,2,23,f,2021_Nov_08_1002,eye_tracking_exp,2021.2.3,84.93535493890802,
168,180,180,0,180,180,180,180,-168,180,f,abs,resp,freq_bottom,,,,,0,242,242,367,,,1.0458150769727481,,,,,,,,,,1759.4248044555134,None,1759.4248044555134,None,f,1,None,None,0.9245162183933644,003,001,2,23,f,2021_Nov_08_1002,eye_tracking_exp,2021.2.3,84.93535493890802,
180,180,-12,0,0,0,12,0,90,180,j,present,resp,freq_bottom,,,,,0,243,243,704,,,0.7159111432202374,,,,,,,,,,1761.4471273003428,None,1761.4471273003428,None,j,1,None,None,0.8060636345926468,003,001,2,23,f,2021_Nov_08_1002,eye_tracking_exp,2021.2.3,84.93535493890802,
0,0,0,0,-168,0,0,0,-168,0,f,abs,resp,freq_bottom,,,,,0,244,244,284,,,0.8679560685699514,,,,,,,,,,1763.3298908609268,None,1763.3298908609268,None,f,1,None,None,1.4033586566101803,003,001,2,23,f,2021_Nov_08_1002,eye_tracking_exp,2021.2.3,84.93535493890802,
0,168,0,180,168,0,0,180,0,0,f,abs,resp,freq_bottom,,,,,0,245,245,253,,,0.9441145076057105,,,,,,,,,,1765.9071582880279,None,1765.9071582880279,None,f,1,None,None,0.8906796948822375,003,001,2,23,f,2021_Nov_08_1002,eye_tracking_exp,2021.2.3,84.93535493890802,
0,0,180,180,180,0,0,-12,0,12,j,present,resp,freq_bottom,,,,,0,246,246,693,,,1.012220599513865,,,,,,,,,,1768.0484260302592,None,1768.0484260302592,None,j,1,None,None,0.9579669805434605,003,001,2,23,f,2021_Nov_08_1002,eye_tracking_exp,2021.2.3,84.93535493890802,
0,180,168,180,180,270,180,-168,0,180,f,present,resp,freq_bottom,,,,,0,247,247,906,,,0.9449057614669802,,,,,,,,,,1770.1072978020356,None,1770.1072978020356,None,f,1,None,None,1.1380508277989065,003,001,2,23,f,2021_Nov_08_1002,eye_tracking_exp,2021.2.3,84.93535493890802,
180,0,0,180,-12,0,0,-12,180,180,j,abs,resp,freq_bottom,,,,,0,248,248,117,,,1.0630467280672726,,,,,,,,,,1772.485588130624,None,1772.485588130624,None,j,1,None,None,0.7928834547574297,003,001,2,23,f,2021_Nov_08_1002,eye_tracking_exp,2021.2.3,84.93535493890802,
180,0,180,0,168,180,168,180,0,90,f,present,resp,freq_bottom,,,,,0,249,249,762,,,0.9927905166556932,,,,,,,,,,1774.4260399181503,None,1774.4260399181503,None,f,1,None,None,0.8504527537070317,003,001,2,23,f,2021_Nov_08_1002,eye_tracking_exp,2021.2.3,84.93535493890802,
0,180,0,180,180,180,180,12,180,-12,j,abs,resp,freq_bottom,,,,,0,250,250,151,,,0.9524282093485531,,,,,,,,,,1776.5908771362128,None,1776.5908771362128,None,j,1,None,None,0.973622009671999,003,001,2,23,f,2021_Nov_08_1002,eye_tracking_exp,2021.2.3,84.93535493890802,
0,0,0,-168,0,0,0,180,0,-168,f,abs,resp,freq_bottom,,,,,0,251,251,317,,,0.9965418665507806,,,,,,,,,,1822.568515654878,None,1822.568515654878,None,f,1,None,None,1.8896042115256932,003,001,2,23,f,2021_Nov_08_1002,eye_tracking_exp,2021.2.3,84.93535493890802,
0,-12,0,0,12,270,180,180,180,180,j,present,resp,freq_bottom,,,,,0,252,252,666,,,0.7269727943652381,,,,,,,,,,1825.2283556333377,None,1825.2283556333377,None,j,1,None,None,1.2777682802379786,003,001,2,23,f,2021_Nov_08_1002,eye_tracking_exp,2021.2.3,84.93535493890802,
0,180,90,0,180,180,180,12,180,168,None,present,inhibit,freq_bottom,,,,,0,253,253,935,,,0.7794408453494831,,,,,,,,,,1827.3703402638575,None,1827.3703402638575,None,None,1,None,None,,003,001,2,23,f,2021_Nov_08_1002,eye_tracking_exp,2021.2.3,84.93535493890802,
180,-12,0,180,180,180,12,180,0,180,j,abs,resp,freq_bottom,,,,,0,254,254,199,,,1.0731707022619408,,,,,,,,,,1831.7477129754361,None,1831.7477129754361,None,j,1,None,None,1.1596338439148894,003,001,2,23,f,2021_Nov_08_1002,eye_tracking_exp,2021.2.3,84.93535493890802,
180,12,180,0,180,0,180,0,180,168,None,abs,inhibit,freq_bottom,,,,,0,255,255,427,,,1.0448238299271055,,,,,,,,,,1834.0302735132564,None,1834.0302735132564,None,None,1,None,None,,003,001,2,23,f,2021_Nov_08_1002,eye_tracking_exp,2021.2.3,84.93535493890802,
180,180,-12,0,0,0,270,0,-168,180,None,present,inhibit,freq_bottom,,,,,0,256,256,996,,,0.7470011366681106,,,,,,,,,,1837.7843271014854,None,1837.7843271014854,None,None,1,None,None,,003,001,2,23,f,2021_Nov_08_1002,eye_tracking_exp,2021.2.3,84.93535493890802,
180,-168,180,0,180,90,180,180,168,0,f,present,resp,freq_bottom,,,,,0,257,257,855,,,0.7649377391146904,,,,,,,,,,1841.5620549066998,None,1841.5620549066998,None,f,1,None,None,1.1992419973021242,003,001,2,23,f,2021_Nov_08_1002,eye_tracking_exp,2021.2.3,84.93535493890802,
180,-168,0,0,0,0,168,0,270,180,f,present,resp,freq_bottom,,,,,0,258,258,880,,,0.9764086195249443,,,,,,,,,,1843.9275855293008,None,1843.9275855293008,None,f,1,None,None,1.0898155652857895,003,001,2,23,f,2021_Nov_08_1002,eye_tracking_exp,2021.2.3,84.93535493890802,
180,0,180,0,168,180,-168,180,180,0,f,abs,resp,freq_bottom,,,,,0,259,259,398,,,0.8042156973338562,,,,,,,,,,1846.0343451368853,None,1846.0343451368853,None,f,1,None,None,0.8231153130318489,003,001,2,23,f,2021_Nov_08_1002,eye_tracking_exp,2021.2.3,84.93535493890802,
0,0,168,180,180,180,180,0,0,168,f,abs,resp,freq_bottom,,,,,0,260,260,240,,,0.7815774647364273,,,,,,,,,,1848.1060025735524,None,1848.1060025735524,None,f,1,None,None,0.6714531433926823,003,001,2,23,f,2021_Nov_08_1002,eye_tracking_exp,2021.2.3,84.93535493890802,
180,-168,0,180,180,180,-168,180,90,180,f,present,resp,freq_bottom,,,,,0,261,261,843,,,0.8599319569071271,,,,,,,,,,1849.9640982345218,None,1849.9640982345218,None,f,1,None,None,0.669433178582949,003,001,2,23,f,2021_Nov_08_1002,eye_tracking_exp,2021.2.3,84.93535493890802,
180,-12,0,0,180,180,180,-12,180,270,j,present,resp,freq_bottom,,,,,0,262,262,599,,,0.9001446718160409,,,,,,,,,,1851.8938374471645,None,1851.8938374471645,None,j,1,None,None,0.9626866711851108,003,001,2,23,f,2021_Nov_08_1002,eye_tracking_exp,2021.2.3,84.93535493890802,
12,0,180,0,12,180,0,0,180,180,j,abs,resp,freq_bottom,,,,,0,263,263,16,,,1.0056764333198853,,,,,,,,,,1854.1530736094855,None,1854.1530736094855,None,j,1,None,None,1.1994804569867483,003,001,2,23,f,2021_Nov_08_1002,eye_tracking_exp,2021.2.3,84.93535493890802,
180,180,-168,0,0,270,0,180,-168,180,f,present,resp,freq_bottom,,,,,0,264,264,815,,,1.060534625752617,,,,,,,,,,1856.4711936174908,None,1856.4711936174908,None,f,1,None,None,1.0893229498369692,003,001,2,23,f,2021_Nov_08_1002,eye_tracking_exp,2021.2.3,84.93535493890802,
180,180,12,180,180,-12,0,180,180,180,j,abs,resp,freq_bottom,,,,,0,265,265,174,,,0.9669394336105448,,,,,,,,,,1858.5891237029218,None,1858.5891237029218,None,j,1,None,None,1.2115709666240946,003,001,2,23,f,2021_Nov_08_1002,eye_tracking_exp,2021.2.3,84.93535493890802,
0,0,12,0,0,0,0,0,0,-12,j,abs,resp,freq_bottom,,,,,0,266,266,148,,,1.0642956916212156,,,,,,,,,,1861.1657602683308,None,1861.1657602683308,None,j,1,None,None,1.306886018651312,003,001,2,23,f,2021_Nov_08_1002,eye_tracking_exp,2021.2.3,84.93535493890802,
180,12,180,0,180,12,0,0,90,0,j,present,resp,freq_bottom,,,,,0,267,267,531,,,0.9595652606117593,,,,,,,,,,1863.7083001175097,None,1863.7083001175097,None,j,1,None,None,0.765821299185518,003,001,2,23,f,2021_Nov_08_1002,eye_tracking_exp,2021.2.3,84.93535493890802,
12,0,180,0,180,180,12,180,90,180,j,present,resp,freq_bottom,,,,,0,268,268,523,,,0.9864016215250307,,,,,,,,,,1865.743989985901,None,1865.743989985901,None,j,1,None,None,0.8567254507679536,003,001,2,23,f,2021_Nov_08_1002,eye_tracking_exp,2021.2.3,84.93535493890802,
180,12,180,180,180,-12,0,0,180,180,j,abs,resp,freq_bottom,,,,,0,269,269,207,,,1.0244063958159881,,,,,,,,,,1867.673606044681,None,1867.673606044681,None,j,1,None,None,1.0231986833650808,003,001,2,23,f,2021_Nov_08_1002,eye_tracking_exp,2021.2.3,84.93535493890802,
12,180,180,180,0,270,0,12,0,0,j,present,resp,freq_bottom,,,,,0,270,270,522,,,0.7303934678027508,,,,,,,,,,1869.4740294766352,None,1869.4740294766352,None,j,1,None,None,0.8857508237842922,003,001,2,23,f,2021_Nov_08_1002,eye_tracking_exp,2021.2.3,84.93535493890802,
0,12,0,0,0,180,0,12,0,0,j,abs,resp,freq_bottom,,,,,0,271,271,51,,,0.7963092170162452,,,,,,,,,,1871.533296065204,None,1871.533296065204,None,j,1,None,None,0.6025114304857198,003,001,2,23,f,2021_Nov_08_1002,eye_tracking_exp,2021.2.3,84.93535493890802,
0,0,0,0,12,180,180,180,90,168,None,present,inhibit,freq_bottom,,,,,0,272,272,934,,,1.0662470387728715,,,,,,,,,,1873.474830882279,None,1873.474830882279,None,None,1,None,None,,003,001,2,23,f,2021_Nov_08_1002,eye_tracking_exp,2021.2.3,84.93535493890802,
0,0,0,-12,0,-12,0,180,90,0,j,present,resp,freq_bottom,,,,,0,273,273,615,,,0.9663904573814805,,,,,,,,,,1877.4543568546133,None,1877.4543568546133,None,j,1,None,None,0.969478244444872,003,001,2,23,f,2021_Nov_08_1002,eye_tracking_exp,2021.2.3,84.93535493890802,
180,180,0,180,12,0,0,12,0,90,j,present,resp,freq_bottom,,,,,0,274,274,551,,,0.9784173166667014,,,,,,,,,,1879.700607830714,None,1879.700607830714,None,j,1,None,None,0.6274648780245116,003,001,2,23,f,2021_Nov_08_1002,eye_tracking_exp,2021.2.3,84.93535493890802,
12,0,12,0,180,0,90,180,180,180,j,present,resp,freq_bottom,,,,,0,275,275,533,,,0.8643225387639335,,,,,,,,,,1881.5830037407986,None,1881.5830037407986,None,j,1,None,None,1.0329492696300804,003,001,2,23,f,2021_Nov_08_1002,eye_tracking_exp,2021.2.3,84.93535493890802,
180,-12,180,-12,180,180,180,0,180,0,j,abs,resp,freq_bottom,,,,,0,276,276,91,,,1.0956589412836435,,,,,,,,,,1884.1482549127968,None,1884.1482549127968,None,j,1,None,None,0.6427314291640869,003,001,2,23,f,2021_Nov_08_1002,eye_tracking_exp,2021.2.3,84.93535493890802,
180,180,0,12,180,180,12,180,180,0,j,abs,resp,freq_bottom,,,,,0,277,277,61,,,0.7786384701840686,,,,,,,,,,1885.760267726836,None,1885.760267726836,None,j,1,None,None,0.6147196607244041,003,001,2,23,f,2021_Nov_08_1002,eye_tracking_exp,2021.2.3,84.93535493890802,
180,-12,180,0,180,0,180,0,180,168,None,abs,inhibit,freq_bottom,,,,,0,278,278,497,,,1.004168175534068,,,,,,,,,,1887.6310265025304,None,1887.6310265025304,None,None,1,None,None,,003,001,2,23,f,2021_Nov_08_1002,eye_tracking_exp,2021.2.3,84.93535493890802,
0,0,12,180,180,12,0,0,180,180,j,abs,resp,freq_bottom,,,,,0,279,279,34,,,0.9573604731806287,,,,,,,,,,1891.597017322133,None,1891.597017322133,None,j,1,None,None,0.6500536506764547,003,001,2,23,f,2021_Nov_08_1002,eye_tracking_exp,2021.2.3,84.93535493890802,
0,270,0,180,180,180,12,180,180,12,j,present,resp,freq_bottom,,,,,0,280,280,561,,,0.8588859699081542,,,,,,,,,,1893.279750033883,None,1893.279750033883,None,j,1,None,None,1.6554226157231824,003,001,2,23,f,2021_Nov_08_1002,eye_tracking_exp,2021.2.3,84.93535493890802,
180,180,12,180,180,0,180,12,180,0,j,abs,resp,freq_bottom,,,,,0,281,281,52,,,0.9826942901449949,,,,,,,,,,1896.3158543391664,None,1896.3158543391664,None,j,1,None,None,0.7473781028465964,003,001,2,23,f,2021_Nov_08_1002,eye_tracking_exp,2021.2.3,84.93535493890802,
12,0,12,0,0,0,0,0,0,180,j,abs,resp,freq_bottom,,,,,0,282,282,29,,,0.8779286184828826,,,,,,,,,,1898.1163091632816,None,1898.1163091632816,None,j,1,None,None,0.7058767606822585,003,001,2,23,f,2021_Nov_08_1002,eye_tracking_exp,2021.2.3,84.93535493890802,
0,180,180,-168,180,270,180,180,-168,180,f,present,resp,freq_bottom,,,,,0,283,283,787,,,0.9407829727068773,,,,,,,,,,1900.1173970223927,None,1900.1173970223927,None,f,1,None,None,1.8408114363110144,003,001,2,23,f,2021_Nov_08_1002,eye_tracking_exp,2021.2.3,84.93535493890802,
180,168,0,0,0,0,168,0,270,180,f,present,resp,freq_bottom,,,,,0,284,284,740,,,1.0023732741977338,,,,,,,,,,1903.342005216532,None,1903.342005216532,None,f,1,None,None,0.8402355108983102,003,001,2,23,f,2021_Nov_08_1002,eye_tracking_exp,2021.2.3,84.93535493890802,
0,0,-12,0,0,0,0,270,0,168,None,present,inhibit,freq_bottom,,,,,0,285,285,1002,,,0.7327199923497785,,,,,,,,,,1905.2953854429115,None,1905.2953854429115,None,None,1,None,None,,003,001,2,23,f,2021_Nov_08_1002,eye_tracking_exp,2021.2.3,84.93535493890802,
180,0,180,0,180,-168,0,168,180,0,f,abs,resp,freq_bottom,,,,,0,286,286,413,,,0.7980679395015929,,,,,,,,,,1909.1082374539264,None,1909.1082374539264,None,f,1,None,None,1.3620906427158843,003,001,2,23,f,2021_Nov_08_1002,eye_tracking_exp,2021.2.3,84.93535493890802,
0,180,-168,180,180,0,180,-168,0,180,f,abs,resp,freq_bottom,,,,,0,287,287,332,,,0.7842299638403952,,,,,,,,,,1911.7086867844127,None,1911.7086867844127,None,f,1,None,None,0.6496621542110006,003,001,2,23,f,2021_Nov_08_1002,eye_tracking_exp,2021.2.3,84.93535493890802,
0,-12,0,0,0,180,0,-12,0,0,j,abs,resp,freq_bottom,,,,,0,288,288,121,,,1.0944841149191924,,,,,,,,,,1913.708736589283,None,1913.708736589283,None,j,1,None,None,0.8406725863687825,003,001,2,23,f,2021_Nov_08_1002,eye_tracking_exp,2021.2.3,84.93535493890802,
168,0,0,180,180,0,90,168,0,0,f,present,resp,freq_bottom,,,,,0,289,289,732,,,1.014792160012452,,,,,,,,,,1915.6975905611007,None,1915.6975905611007,None,f,1,None,None,1.0437997889139297,003,001,2,23,f,2021_Nov_08_1002,eye_tracking_exp,2021.2.3,84.93535493890802,
0,0,270,180,180,180,168,180,180,168,f,present,resp,freq_bottom,,,,,0,290,290,771,,,0.928891729870661,,,,,,,,,,1918.1688264372706,None,1918.1688264372706,None,f,1,None,None,1.0206332797597497,003,001,2,23,f,2021_Nov_08_1002,eye_tracking_exp,2021.2.3,84.93535493890802,
180,0,12,0,0,12,180,180,90,0,j,present,resp,freq_bottom,,,,,0,291,291,572,,,0.9095664185924527,,,,,,,,,,1920.57012993638,None,1920.57012993638,None,j,1,None,None,0.731978135022473,003,001,2,23,f,2021_Nov_08_1002,eye_tracking_exp,2021.2.3,84.93535493890802,
0,0,-12,180,0,180,0,0,0,-12,j,abs,resp,freq_bottom,,,,,0,292,292,100,,,1.0819610412685827,,,,,,,,,,1922.7809850437488,None,1922.7809850437488,None,j,1,None,None,1.0645406499452292,003,001,2,23,f,2021_Nov_08_1002,eye_tracking_exp,2021.2.3,84.93535493890802,
0,90,180,180,0,12,0,0,12,0,j,present,resp,freq_bottom,,,,,0,293,293,510,,,0.8395619064740594,,,,,,,,,,1969.205242853076,None,1969.205242853076,None,j,1,None,None,1.8220491869533362,003,001,2,23,f,2021_Nov_08_1002,eye_tracking_exp,2021.2.3,84.93535493890802,
180,12,0,180,180,168,0,0,90,0,None,present,inhibit,freq_bottom,,,,,0,294,294,991,,,0.9540680835120945,,,,,,,,,,1972.3015796595691,None,1972.3015796595691,None,None,1,None,None,,003,001,2,23,f,2021_Nov_08_1002,eye_tracking_exp,2021.2.3,84.93535493890802,
-168,180,0,180,180,180,90,180,-168,180,f,present,resp,freq_bottom,,,,,0,295,295,801,,,0.854793236007632,,,,,,,,,,1976.2775169645947,None,1976.2775169645947,None,f,1,None,None,1.900796422406529,003,001,2,23,f,2021_Nov_08_1002,eye_tracking_exp,2021.2.3,84.93535493890802,
180,0,90,180,180,180,-12,180,-168,0,None,present,inhibit,freq_bottom,,,,,0,296,296,999,,,0.9929206187977146,,,,,,,,,,1979.5849150404365,None,1979.5849150404365,None,None,1,None,None,,003,001,2,23,f,2021_Nov_08_1002,eye_tracking_exp,2021.2.3,84.93535493890802,
0,-12,0,0,0,0,12,0,270,0,j,present,resp,freq_bottom,,,,,0,297,297,670,,,0.8643200496323358,,,,,,,,,,1983.4668971173242,None,1983.4668971173242,None,j,1,None,None,1.2395066694416528,003,001,2,23,f,2021_Nov_08_1002,eye_tracking_exp,2021.2.3,84.93535493890802,
-12,180,180,-12,180,270,180,180,180,180,j,present,resp,freq_bottom,,,,,0,298,298,589,,,0.8439955409492852,,,,,,,,,,1985.596557909933,None,1985.596557909933,None,j,1,None,None,0.822051601734529,003,001,2,23,f,2021_Nov_08_1002,eye_tracking_exp,2021.2.3,84.93535493890802,
180,180,0,180,180,12,0,12,180,270,j,present,resp,freq_bottom,,,,,0,299,299,567,,,1.008344968969564,,,,,,,,,,1987.7853669668139,None,1987.7853669668139,None,j,1,None,None,1.7051474966365276,003,001,2,23,f,2021_Nov_08_1002,eye_tracking_exp,2021.2.3,84.93535493890802,
0,0,0,12,0,0,0,0,180,12,j,abs,resp,freq_bottom,,,,,0,300,300,37,,,1.0139878252392576,,,,,,,,,,1990.6918880543462,None,1990.6918880543462,None,j,1,None,None,0.8136961555419475,003,001,2,23,f,2021_Nov_08_1002,eye_tracking_exp,2021.2.3,84.93535493890802,
0,-12,0,0,-12,0,0,0,0,0,j,abs,resp,freq_bottom,,,,,0,301,301,92,,,0.9888792664831421,,,,,,,,,,1992.8575616923872,None,1992.8575616923872,None,j,1,None,None,0.9359879402445586,003,001,2,23,f,2021_Nov_08_1002,eye_tracking_exp,2021.2.3,84.93535493890802,
12,0,0,0,-12,0,0,180,180,180,j,abs,resp,freq_bottom,,,,,0,302,302,156,,,0.9926607608483963,,,,,,,,,,1994.8452550597967,None,1994.8452550597967,None,j,1,None,None,0.7564664352548789,003,001,2,23,f,2021_Nov_08_1002,eye_tracking_exp,2021.2.3,84.93535493890802,
-168,0,168,0,0,0,0,180,0,180,f,abs,resp,freq_bottom,,,,,0,303,303,379,,,0.8241159087595145,,,,,,,,,,1996.5161659063624,None,1996.5161659063624,None,f,1,None,None,1.5334308676365254,003,001,2,23,f,2021_Nov_08_1002,eye_tracking_exp,2021.2.3,84.93535493890802,
180,12,0,0,180,180,-168,180,180,180,None,abs,inhibit,freq_bottom,,,,,0,304,304,479,,,0.9350436154808959,,,,,,,,,,1999.0578358304692,None,1999.0578358304692,None,None,1,None,None,,003,001,2,23,f,2021_Nov_08_1002,eye_tracking_exp,2021.2.3,84.93535493890802,
180,168,0,168,0,0,0,180,0,180,f,abs,resp,freq_bottom,,,,,0,305,305,245,,,0.8383815547431558,,,,,,,,,,2002.9065361799176,None,2002.9065361799176,None,f,1,None,None,0.9192353928765442,003,001,2,23,f,2021_Nov_08_1002,eye_tracking_exp,2021.2.3,84.93535493890802,
0,0,180,0,-168,180,270,0,12,180,None,present,inhibit,freq_bottom,,,,,0,306,306,970,,,1.0546695908982495,,,,,,,,,,2004.918424149747,None,2004.918424149747,None,None,1,None,None,,003,001,2,23,f,2021_Nov_08_1002,eye_tracking_exp,2021.2.3,84.93535493890802,
0,0,0,-12,0,-12,0,180,0,0,j,abs,resp,freq_bottom,,,,,0,307,307,111,,,0.7013749794217281,,,,,,,,,,2008.6270294352826,None,2008.6270294352826,None,j,1,None,None,0.8937395250204645,003,001,2,23,f,2021_Nov_08_1002,eye_tracking_exp,2021.2.3,84.93535493890802,
180,168,0,180,180,180,168,0,0,90,f,present,resp,freq_bottom,,,,,0,308,308,773,,,0.7532675410728088,,,,,,,,,,2010.7320799811887,None,2010.7320799811887,None,f,1,None,None,1.0287074038960782,003,001,2,23,f,2021_Nov_08_1002,eye_tracking_exp,2021.2.3,84.93535493890802,
180,0,180,0,12,0,12,180,180,180,j,abs,resp,freq_bottom,,,,,0,309,309,48,,,0.9967541263790117,,,,,,,,,,2013.050142336283,None,2013.050142336283,None,j,1,None,None,1.4477538126784566,003,001,2,23,f,2021_Nov_08_1002,eye_tracking_exp,2021.2.3,84.93535493890802,
12,180,180,12,180,180,0,180,0,180,j,abs,resp,freq_bottom,,,,,0,310,310,15,,,0.7716762635321999,,,,,,,,,,2015.438874482369,None,2015.438874482369,None,j,1,None,None,0.7540419945262329,003,001,2,23,f,2021_Nov_08_1002,eye_tracking_exp,2021.2.3,84.93535493890802,
180,168,180,180,180,180,180,180,180,168,f,abs,resp,freq_bottom,,,,,0,311,311,217,,,0.7227411560025404,,,,,,,,,,2017.0862726004698,None,2017.0862726004698,None,f,1,None,None,1.858596000966827,003,001,2,23,f,2021_Nov_08_1002,eye_tracking_exp,2021.2.3,84.93535493890802,
180,-12,180,-12,180,180,270,180,0,180,j,present,resp,freq_bottom,,,,,0,312,312,595,,,0.818262213277028,,,,,,,,,,2020.0522362537804,None,2020.0522362537804,None,j,1,None,None,0.6847193498224442,003,001,2,23,f,2021_Nov_08_1002,eye_tracking_exp,2021.2.3,84.93535493890802,
0,168,0,0,0,180,0,168,0,0,f,abs,resp,freq_bottom,,,,,0,313,313,261,,,0.9457355716032398,,,,,,,,,,2022.005807247907,None,2022.005807247907,None,f,1,None,None,1.0511232178187129,003,001,2,23,f,2021_Nov_08_1002,eye_tracking_exp,2021.2.3,84.93535493890802,
180,0,180,0,180,180,180,12,180,12,j,abs,resp,freq_bottom,,,,,0,314,314,11,,,1.027348573790262,,,,,,,,,,2024.194448477464,None,2024.194448477464,None,j,1,None,None,1.5337306024021018,003,001,2,23,f,2021_Nov_08_1002,eye_tracking_exp,2021.2.3,84.93535493890802,
168,0,-168,0,0,0,0,180,180,180,f,abs,resp,freq_bottom,,,,,0,315,315,364,,,1.086641521323181,,,,,,,,,,2026.9126715362754,None,2026.9126715362754,None,f,1,None,None,1.1513577836676632,003,001,2,23,f,2021_Nov_08_1002,eye_tracking_exp,2021.2.3,84.93535493890802,
180,0,180,0,180,0,180,168,0,-168,f,abs,resp,freq_bottom,,,,,0,316,316,361,,,0.9393448075531575,,,,,,,,,,2029.313003387636,None,2029.313003387636,None,f,1,None,None,1.0710961783015591,003,001,2,23,f,2021_Nov_08_1002,eye_tracking_exp,2021.2.3,84.93535493890802,
270,0,180,180,180,-12,180,180,-12,0,j,present,resp,freq_bottom,,,,,0,317,317,638,,,1.0949267315879507,,,,,,,,,,2031.5488212998216,None,2031.5488212998216,None,j,1,None,None,1.4593375200265655,003,001,2,23,f,2021_Nov_08_1002,eye_tracking_exp,2021.2.3,84.93535493890802,
0,0,0,180,12,90,0,180,0,-12,j,present,resp,freq_bottom,,,,,0,318,318,689,,,1.0636671149348547,,,,,,,,,,2034.1375456582382,None,2034.1375456582382,None,j,1,None,None,2.1346167065121335,003,001,2,23,f,2021_Nov_08_1002,eye_tracking_exp,2021.2.3,84.93535493890802,
0,180,12,0,0,168,180,270,180,180,None,present,inhibit,freq_bottom,,,,,0,319,319,992,,,0.8881516361819651,,,,,,,,,,2037.4218843808603,None,2037.4218843808603,None,None,1,None,None,,003,001,2,23,f,2021_Nov_08_1002,eye_tracking_exp,2021.2.3,84.93535493890802,
180,0,180,0,-12,180,0,-12,180,0,j,abs,resp,freq_bottom,,,,,0,320,320,124,,,0.7835993747051826,,,,,,,,,,2041.2109529060226,None,2041.2109529060226,None,j,1,None,None,0.8202866982328487,003,001,2,23,f,2021_Nov_08_1002,eye_tracking_exp,2021.2.3,84.93535493890802,
-168,0,0,0,12,0,270,0,0,0,None,present,inhibit,freq_bottom,,,,,0,321,321,940,,,1.085257820861186,,,,,,,,,,2043.3998111640785,None,2043.3998111640785,None,None,1,None,None,,003,001,2,23,f,2021_Nov_08_1002,eye_tracking_exp,2021.2.3,84.93535493890802,
-168,0,12,0,0,0,270,180,180,180,None,present,inhibit,freq_bottom,,,,,0,322,322,938,,,0.7192521604320422,,,,,,,,,,2047.1414678672563,None,2047.1414678672563,None,None,1,None,None,,003,001,2,23,f,2021_Nov_08_1002,eye_tracking_exp,2021.2.3,84.93535493890802,
180,180,0,12,0,12,0,180,0,0,j,abs,resp,freq_bottom,,,,,0,323,323,41,,,0.7232547356421262,,,,,,,,,,2050.8837626764716,None,2050.8837626764716,None,j,1,None,None,1.0995930159942873,003,001,2,23,f,2021_Nov_08_1002,eye_tracking_exp,2021.2.3,84.93535493890802,
0,0,-12,0,0,0,0,0,0,-12,j,abs,resp,freq_bottom,,,,,0,324,324,78,,,0.840184131881557,,,,,,,,,,2053.155964404911,None,2053.155964404911,None,j,1,None,None,1.083488535638935,003,001,2,23,f,2021_Nov_08_1002,eye_tracking_exp,2021.2.3,84.93535493890802,
0,180,0,0,168,180,90,0,168,180,f,present,resp,freq_bottom,,,,,0,325,325,760,,,0.9221282046748045,,,,,,,,,,2055.4492390268542,None,2055.4492390268542,None,f,1,None,None,1.7331985052760501,003,001,2,23,f,2021_Nov_08_1002,eye_tracking_exp,2021.2.3,84.93535493890802,
0,0,180,0,168,180,90,0,-168,180,f,present,resp,freq_bottom,,,,,0,326,326,900,,,1.0135983542552214,,,,,,,,,,2058.2618984590363,None,2058.2618984590363,None,f,1,None,None,1.3046106906867863,003,001,2,23,f,2021_Nov_08_1002,eye_tracking_exp,2021.2.3,84.93535493890802,
0,0,0,180,180,12,0,-12,0,270,j,present,resp,freq_bottom,,,,,0,327,327,699,,,0.8661208529203687,,,,,,,,,,2060.4741224457275,None,2060.4741224457275,None,None,0,2063.4520443993815,None,,003,001,2,23,f,2021_Nov_08_1002,eye_tracking_exp,2021.2.3,84.93535493890802,
180,180,180,168,0,12,0,180,0,0,None,abs,inhibit,freq_bottom,,,,,0,328,328,461,,,0.7535880483108094,,,,,,,,,,2064.7343236151455,None,2064.7343236151455,None,None,1,None,None,,003,001,2,23,f,2021_Nov_08_1002,eye_tracking_exp,2021.2.3,84.93535493890802,
-168,180,180,-168,180,90,180,180,180,180,f,present,resp,freq_bottom,,,,,0,329,329,799,,,0.8608208816094709,,,,,,,,,,2068.607530375689,None,2068.607530375689,None,f,1,None,None,0.7191450800446546,003,001,2,23,f,2021_Nov_08_1002,eye_tracking_exp,2021.2.3,84.93535493890802,
0,-12,0,0,0,0,0,0,-12,0,j,abs,resp,freq_bottom,,,,,0,330,330,94,,,0.8533262804777645,,,,,,,,,,2070.477135489472,None,2070.477135489472,None,j,1,None,None,1.3285348375675312,003,001,2,23,f,2021_Nov_08_1002,eye_tracking_exp,2021.2.3,84.93535493890802,
180,-168,180,180,180,180,0,180,180,168,f,abs,resp,freq_bottom,,,,,0,331,331,373,,,0.8607912353532685,,,,,,,,,,2072.9484555811478,None,2072.9484555811478,None,f,1,None,None,1.0332230454941964,003,001,2,23,f,2021_Nov_08_1002,eye_tracking_exp,2021.2.3,84.93535493890802,
0,0,-12,0,0,0,0,0,-168,0,None,abs,inhibit,freq_bottom,,,,,0,332,332,492,,,1.0792336706916095,,,,,,,,,,2075.348727364818,None,2075.348727364818,None,None,1,None,None,,003,001,2,23,f,2021_Nov_08_1002,eye_tracking_exp,2021.2.3,84.93535493890802,
0,180,-168,0,0,0,0,180,12,0,None,abs,inhibit,freq_bottom,,,,,0,333,333,451,,,0.9751849196450251,,,,,,,,,,2079.3381844283404,None,2079.3381844283404,None,None,1,None,None,,003,001,2,23,f,2021_Nov_08_1002,eye_tracking_exp,2021.2.3,84.93535493890802,
0,0,-168,180,180,-168,0,0,0,0,f,abs,resp,freq_bottom,,,,,0,334,334,314,,,0.9285177637915616,,,,,,,,,,2083.2701328643025,None,2083.2701328643025,None,f,1,None,None,0.8877089098159558,003,001,2,23,f,2021_Nov_08_1002,eye_tracking_exp,2021.2.3,84.93535493890802,
