ori10,ori11,ori12,ori13,ori14,ori16,ori17,ori18,ori19,ori20,corrAns,distractor,respon,dist_freq,practice_trials.thisRepN,practice_trials.thisTrialN,practice_trials.thisN,practice_trials.thisIndex,trials.thisRepN,trials.thisTrialN,trials.thisN,trials.thisIndex,key_resp.keys,key_resp.rt,fixdur,int14_2.started,int14_2.stopped,per15_2.started,per15_2.stopped,response_pract.keys,response_pract.corr,response_pract.rt,key_resp_2.keys,key_resp_2.rt,int14.started,int14.stopped,per15.started,per15.stopped,response.keys,response.corr,response.rt,text_7.started,text_7.stopped,participant,session,1=top 2=bottom,age,gender,date,expName,psychopyVersion,frameRate,
,,,,,,,,,,,,,,,,,,,,,,space,134.26985738222174,,,,,,,,,,,,,,,,,,,,004,001,2,26,m,2021_Nov_08_1130,eye_tracking_exp,2021.2.3,85.01011008160881,
0,0,168,0,0,0,0,0,180,168,f,abs,resp,pract,0,0,0,19,,,,,,,1.0811971736113186,1599.5008018584158,None,1599.5008018584158,None,f,1,2.5204118009842205,,,,,,,,,,,,004,001,2,26,m,2021_Nov_08_1130,eye_tracking_exp,2021.2.3,85.01011008160881,
168,0,180,0,0,180,180,0,168,0,f,abs,resp,pract,0,1,1,13,,,,,,,0.8061363746510081,1603.0908389524793,None,1603.0908389524793,None,f,1,1.4426208190452599,,,,,,,,,,,,004,001,2,26,m,2021_Nov_08_1130,eye_tracking_exp,2021.2.3,85.01011008160881,
180,180,0,168,180,180,180,0,0,168,f,abs,resp,pract,0,2,2,18,,,,,,,0.8439782872960554,1605.7025302987167,None,1605.7025302987167,None,f,1,0.8464326725461433,,,,,,,,,,,,004,001,2,26,m,2021_Nov_08_1130,eye_tracking_exp,2021.2.3,85.01011008160881,
180,270,0,0,0,0,0,168,0,168,f,present,resp,pract,0,3,3,43,,,,,,,0.8870406726178763,1607.4792466122872,None,1607.4792466122872,None,f,1,1.6137763131719112,,,,,,,,,,,,004,001,2,26,m,2021_Nov_08_1130,eye_tracking_exp,2021.2.3,85.01011008160881,
0,168,180,90,0,180,0,168,0,0,f,present,resp,pract,0,4,4,48,,,,,,,0.9374814003827563,1610.2095604825827,None,1610.2095604825827,None,f,1,1.1385611787700327,,,,,,,,,,,,004,001,2,26,m,2021_Nov_08_1130,eye_tracking_exp,2021.2.3,85.01011008160881,
180,270,0,0,168,0,0,168,180,0,f,present,resp,pract,0,5,5,45,,,,,,,1.0553881933580669,1612.5274891191457,None,1612.5274891191457,None,f,1,1.3805923240197444,,,,,,,,,,,,004,001,2,26,m,2021_Nov_08_1130,eye_tracking_exp,2021.2.3,85.01011008160881,
180,0,180,0,168,180,0,180,12,180,None,abs,inhibit,pract,0,6,6,30,,,,,,,0.7590097856755521,1614.727705604315,None,1614.727705604315,None,None,1,,,,,,,,,,,,,004,001,2,26,m,2021_Nov_08_1130,eye_tracking_exp,2021.2.3,85.01011008160881,
90,0,0,12,0,0,0,12,0,0,j,present,resp,pract,0,7,7,34,,,,,,,0.9970641662444466,1618.740338836118,None,1618.740338836118,None,None,0,,,,,,,,,,,,,004,001,2,26,m,2021_Nov_08_1130,eye_tracking_exp,2021.2.3,85.01011008160881,
180,0,180,0,12,180,180,180,12,180,j,abs,resp,pract,0,8,8,9,,,,,,,0.9404878170340081,1623.2358671133607,None,1623.2358671133607,None,j,1,0.9284848384668294,,,,,,,,,,,,004,001,2,26,m,2021_Nov_08_1130,eye_tracking_exp,2021.2.3,85.01011008160881,
0,270,0,0,12,0,180,180,180,12,j,present,resp,pract,0,9,9,42,,,,,,,0.8758761198571854,1625.3302343636096,None,1625.3302343636096,None,j,1,1.2980584091656056,,,,,,,,,,,,004,001,2,26,m,2021_Nov_08_1130,eye_tracking_exp,2021.2.3,85.01011008160881,
90,0,0,12,0,180,180,180,0,12,j,present,resp,pract,0,10,10,36,,,,,,,0.8197443085202236,1627.5658406805578,None,1627.5658406805578,None,j,1,2.757477853410819,,,,,,,,,,,,004,001,2,26,m,2021_Nov_08_1130,eye_tracking_exp,2021.2.3,85.01011008160881,
168,0,270,180,180,180,180,168,180,180,f,present,resp,pract,0,11,11,49,,,,,,,0.8197208305086248,1631.202688919684,None,1631.202688919684,None,f,1,1.8406773424430867,,,,,,,,,,,,004,001,2,26,m,2021_Nov_08_1130,eye_tracking_exp,2021.2.3,85.01011008160881,
0,180,0,0,180,168,180,0,0,168,f,abs,resp,pract,0,12,12,16,,,,,,,0.9693109412555172,1635.7099690334453,None,1635.7099690334453,None,f,1,1.8934415278508823,,,,,,,,,,,,004,001,2,26,m,2021_Nov_08_1130,eye_tracking_exp,2021.2.3,85.01011008160881,
0,0,180,0,0,0,168,0,180,168,f,abs,resp,pract,0,13,13,15,,,,,,,0.8767161320837362,1638.5337859640222,None,1638.5337859640222,None,f,1,1.3736646174493217,,,,,,,,,,,,004,001,2,26,m,2021_Nov_08_1130,eye_tracking_exp,2021.2.3,85.01011008160881,
0,180,0,12,0,12,0,180,180,180,j,abs,resp,pract,0,14,14,0,,,,,,,0.8231103192046043,1641.169597658145,None,1641.169597658145,None,j,1,1.616962315649289,,,,,,,,,,,,004,001,2,26,m,2021_Nov_08_1130,eye_tracking_exp,2021.2.3,85.01011008160881,
180,0,90,180,12,0,180,180,12,180,j,present,resp,pract,0,15,15,41,,,,,,,0.9670030432039802,1643.9968761781493,None,1643.9968761781493,None,j,1,1.3186555906941066,,,,,,,,,,,,004,001,2,26,m,2021_Nov_08_1130,eye_tracking_exp,2021.2.3,85.01011008160881,
0,0,180,0,168,0,0,0,180,168,f,abs,resp,pract,0,16,16,17,,,,,,,1.07005429058431,1646.4429101861224,None,1646.4429101861224,None,f,1,1.239661443822115,,,,,,,,,,,,004,001,2,26,m,2021_Nov_08_1130,eye_tracking_exp,2021.2.3,85.01011008160881,
180,180,180,-168,180,180,12,180,0,180,None,abs,inhibit,pract,0,17,17,22,,,,,,,0.8254067069755573,1648.7384595323347,None,1648.7384595323347,None,None,1,,,,,,,,,,,,,004,001,2,26,m,2021_Nov_08_1130,eye_tracking_exp,2021.2.3,85.01011008160881,
0,0,0,-168,0,0,0,12,0,0,None,abs,inhibit,pract,0,18,18,23,,,,,,,0.945804287337544,1653.4103199917663,None,1653.4103199917663,None,None,1,,,,,,,,,,,,,004,001,2,26,m,2021_Nov_08_1130,eye_tracking_exp,2021.2.3,85.01011008160881,
0,180,0,180,168,180,12,180,0,180,None,abs,inhibit,pract,0,19,19,28,,,,,,,0.7199369416989403,1657.1765006132027,None,1657.1765006132027,None,None,1,,,,,,,,,,,,,004,001,2,26,m,2021_Nov_08_1130,eye_tracking_exp,2021.2.3,85.01011008160881,
0,180,0,0,180,0,180,168,0,168,f,abs,resp,pract,0,20,20,14,,,,,,,0.9824581410485246,1661.1679613417618,None,1661.1679613417618,None,f,1,0.9138165494714485,,,,,,,,,,,,004,001,2,26,m,2021_Nov_08_1130,eye_tracking_exp,2021.2.3,85.01011008160881,
90,0,0,12,0,12,180,180,180,0,j,present,resp,pract,0,21,21,32,,,,,,,0.9391464310926382,1663.2146288073181,None,1663.2146288073181,None,j,1,1.4753571076889784,,,,,,,,,,,,004,001,2,26,m,2021_Nov_08_1130,eye_tracking_exp,2021.2.3,85.01011008160881,
0,180,180,180,12,0,180,12,0,0,j,abs,resp,pract,0,22,22,8,,,,,,,0.9286497333960809,1665.885881949176,None,1665.885881949176,None,j,1,0.8999931321868644,,,,,,,,,,,,004,001,2,26,m,2021_Nov_08_1130,eye_tracking_exp,2021.2.3,85.01011008160881,
0,180,0,12,0,180,180,180,0,12,j,abs,resp,pract,0,23,23,4,,,,,,,0.840456428110226,1667.7669132058072,None,1667.7669132058072,None,j,1,0.9710275551988161,,,,,,,,,,,,004,001,2,26,m,2021_Nov_08_1130,eye_tracking_exp,2021.2.3,85.01011008160881,
0,180,180,180,168,0,0,0,0,12,None,abs,inhibit,pract,0,24,24,31,,,,,,,0.8764838040056084,1669.8967128483582,None,1669.8967128483582,None,None,1,,,,,,,,,,,,,004,001,2,26,m,2021_Nov_08_1130,eye_tracking_exp,2021.2.3,85.01011008160881,
0,0,168,0,0,0,0,0,168,0,f,abs,resp,pract,0,25,25,11,,,,,,,0.717077149149416,1673.968137258602,None,1673.968137258602,None,f,1,1.1688268439866079,,,,,,,,,,,,004,001,2,26,m,2021_Nov_08_1130,eye_tracking_exp,2021.2.3,85.01011008160881,
90,0,180,180,180,168,0,168,0,0,f,present,resp,pract,0,26,26,44,,,,,,,0.9214218674343703,1676.3584248258867,None,1676.3584248258867,None,f,1,1.2585984629986342,,,,,,,,,,,,004,001,2,26,m,2021_Nov_08_1130,eye_tracking_exp,2021.2.3,85.01011008160881,
0,0,0,-168,180,180,180,180,0,12,None,abs,inhibit,pract,0,27,27,25,,,,,,,0.9610323383305521,1679.0526793662048,None,1679.0526793662048,None,None,1,,,,,,,,,,,,,004,001,2,26,m,2021_Nov_08_1130,eye_tracking_exp,2021.2.3,85.01011008160881,
180,0,180,12,180,180,12,180,180,180,j,abs,resp,pract,0,28,28,1,,,,,,,0.7738676256869411,1683.0882865283256,None,1683.0882865283256,None,j,1,1.280889613819454,,,,,,,,,,,,004,001,2,26,m,2021_Nov_08_1130,eye_tracking_exp,2021.2.3,85.01011008160881,
12,0,0,12,0,0,180,0,180,180,j,abs,resp,pract,0,29,29,6,,,,,,,0.9825661700010383,1685.6062571820894,None,1685.6062571820894,None,j,1,0.874892382969847,,,,,,,,,,,,004,001,2,26,m,2021_Nov_08_1130,eye_tracking_exp,2021.2.3,85.01011008160881,
180,0,180,0,12,0,12,180,180,180,j,abs,resp,pract,0,30,30,7,,,,,,,0.798780249123407,1687.5594898049421,None,1687.5594898049421,None,j,1,1.5457917593230377,,,,,,,,,,,,004,001,2,26,m,2021_Nov_08_1130,eye_tracking_exp,2021.2.3,85.01011008160881,
0,180,0,-168,180,0,180,0,12,180,None,abs,inhibit,pract,0,31,31,24,,,,,,,1.0193778678268903,1702.24309425285,None,1702.24309425285,None,None,1,,,,,,,,,,,,,004,001,2,26,m,2021_Nov_08_1130,eye_tracking_exp,2021.2.3,85.01011008160881,
180,12,180,-168,180,180,0,180,180,180,None,abs,inhibit,pract,0,32,32,26,,,,,,,1.0881876338017313,1706.3396188086135,None,1706.3396188086135,None,None,1,,,,,,,,,,,,,004,001,2,26,m,2021_Nov_08_1130,eye_tracking_exp,2021.2.3,85.01011008160881,
180,0,180,12,0,180,180,0,12,180,j,abs,resp,pract,0,33,33,3,,,,,,,0.7382334180458994,1710.105041188628,None,1710.105041188628,None,j,1,0.9184930758929113,,,,,,,,,,,,004,001,2,26,m,2021_Nov_08_1130,eye_tracking_exp,2021.2.3,85.01011008160881,
180,270,180,12,180,0,12,180,0,180,j,present,resp,pract,0,34,34,33,,,,,,,0.8424948814373348,1712.1419266757603,None,1712.1419266757603,None,j,1,1.5216083252671524,,,,,,,,,,,,004,001,2,26,m,2021_Nov_08_1130,eye_tracking_exp,2021.2.3,85.01011008160881,
180,12,180,12,0,180,0,180,180,180,j,abs,resp,pract,0,35,35,5,,,,,,,1.08003688871496,1715.037647048881,None,1715.037647048881,None,j,1,0.8499579518374958,,,,,,,,,,,,004,001,2,26,m,2021_Nov_08_1130,eye_tracking_exp,2021.2.3,85.01011008160881,
180,270,180,12,180,180,180,180,12,180,j,present,resp,pract,0,36,36,35,,,,,,,0.7330594894149524,1716.8951930451876,None,1716.8951930451876,None,j,1,0.9773056855192408,,,,,,,,,,,,004,001,2,26,m,2021_Nov_08_1130,eye_tracking_exp,2021.2.3,85.01011008160881,
180,168,180,0,180,0,180,0,0,168,f,abs,resp,pract,0,37,37,20,,,,,,,0.7795558232745549,1718.9072186575686,None,1718.9072186575686,None,j,0,1.1874414898193209,,,,,,,,,,,,004,001,2,26,m,2021_Nov_08_1130,eye_tracking_exp,2021.2.3,85.01011008160881,
0,0,0,-168,0,12,0,0,0,0,None,abs,inhibit,pract,0,38,38,21,,,,,,,0.9589199185784447,1721.6030778202603,None,1721.6030778202603,None,None,1,,,,,,,,,,,,,004,001,2,26,m,2021_Nov_08_1130,eye_tracking_exp,2021.2.3,85.01011008160881,
12,0,0,-168,0,0,180,180,180,180,None,abs,inhibit,pract,0,39,39,27,,,,,,,0.9588862948471335,1725.5680686184332,None,1725.5680686184332,None,None,1,,,,,,,,,,,,,004,001,2,26,m,2021_Nov_08_1130,eye_tracking_exp,2021.2.3,85.01011008160881,
180,180,90,180,12,180,12,0,0,180,j,present,resp,pract,0,40,40,39,,,,,,,0.8538206216929799,1729.439818360128,None,1729.439818360128,None,j,1,1.2304828589512908,,,,,,,,,,,,004,001,2,26,m,2021_Nov_08_1130,eye_tracking_exp,2021.2.3,85.01011008160881,
90,0,180,168,180,180,0,168,0,0,f,present,resp,pract,0,41,41,46,,,,,,,0.9015253927137963,1731.7347015284668,None,1731.7347015284668,None,f,1,1.2241310777935723,,,,,,,,,,,,004,001,2,26,m,2021_Nov_08_1130,eye_tracking_exp,2021.2.3,85.01011008160881,
0,180,0,12,0,180,180,12,0,0,j,abs,resp,pract,0,42,42,2,,,,,,,0.9692679286042938,1733.9936931941502,None,1733.9936931941502,None,j,1,0.8051344738832995,,,,,,,,,,,,004,001,2,26,m,2021_Nov_08_1130,eye_tracking_exp,2021.2.3,85.01011008160881,
180,12,180,12,180,90,180,180,0,180,j,present,resp,pract,0,43,43,37,,,,,,,0.9355017643443849,1736.0182457879419,None,1736.0182457879419,None,j,1,1.0356262833956862,,,,,,,,,,,,004,001,2,26,m,2021_Nov_08_1130,eye_tracking_exp,2021.2.3,85.01011008160881,
12,0,0,12,0,0,90,180,180,0,j,present,resp,pract,0,44,44,38,,,,,,,0.7202957950758502,1738.0299961152195,None,1738.0299961152195,None,j,1,0.7046252266263764,,,,,,,,,,,,004,001,2,26,m,2021_Nov_08_1130,eye_tracking_exp,2021.2.3,85.01011008160881,
180,168,0,180,0,180,180,180,168,180,f,abs,resp,pract,0,45,45,12,,,,,,,0.8103930484479324,1739.7949998324748,None,1739.7949998324748,None,f,1,0.8433034174358909,,,,,,,,,,,,004,001,2,26,m,2021_Nov_08_1130,eye_tracking_exp,2021.2.3,85.01011008160881,
180,180,0,168,180,180,180,180,168,180,f,abs,resp,pract,0,46,46,10,,,,,,,0.7227176856327823,1741.618613921397,None,1741.618613921397,None,f,1,0.6673077954346809,,,,,,,,,,,,004,001,2,26,m,2021_Nov_08_1130,eye_tracking_exp,2021.2.3,85.01011008160881,
0,270,0,0,12,0,0,12,0,0,j,present,resp,pract,0,47,47,40,,,,,,,0.8012056449939815,1743.1493648067917,None,1743.1493648067917,None,j,1,1.0566650681084866,,,,,,,,,,,,004,001,2,26,m,2021_Nov_08_1130,eye_tracking_exp,2021.2.3,85.01011008160881,
0,0,0,0,168,0,0,12,0,0,None,abs,inhibit,pract,0,48,48,29,,,,,,,0.9692540172768223,1745.2191073216472,None,1745.2191073216472,None,None,1,,,,,,,,,,,,,004,001,2,26,m,2021_Nov_08_1130,eye_tracking_exp,2021.2.3,85.01011008160881,
180,180,168,0,270,0,0,168,0,180,f,present,resp,pract,0,49,49,47,,,,,,,0.9787675861397286,1749.220614145368,None,1749.220614145368,None,f,1,0.9054807233787869,,,,,,,,,,,,004,001,2,26,m,2021_Nov_08_1130,eye_tracking_exp,2021.2.3,85.01011008160881,
,,,,,,,,,,,,,,,,,,,,,,,,,,,,,,,,space,61.2616640282431,,,,,,,,,,004,001,2,26,m,2021_Nov_08_1130,eye_tracking_exp,2021.2.3,85.01011008160881,
0,0,12,0,12,180,0,180,180,0,j,abs,resp,freq_bottom,,,,,0,0,0,28,,,0.9122686678230406,,,,,,,,,,1813.574489824563,None,1813.574489824563,None,j,1,0.7875581841399253,None,None,004,001,2,26,m,2021_Nov_08_1130,eye_tracking_exp,2021.2.3,85.01011008160881,
12,0,12,0,180,0,90,180,180,180,j,present,resp,freq_bottom,,,,,0,1,1,533,,,1.096766263466749,,,,,,,,,,1815.7760169324483,None,1815.7760169324483,None,None,0,,1818.7538908923198,None,004,001,2,26,m,2021_Nov_08_1130,eye_tracking_exp,2021.2.3,85.01011008160881,
180,180,180,180,90,168,0,0,168,0,f,present,resp,freq_bottom,,,,,0,2,2,720,,,0.7362216962076353,,,,,,,,,,1820.0239347115494,None,1820.0239347115494,None,None,0,,1823.0135783169517,None,004,001,2,26,m,2021_Nov_08_1130,eye_tracking_exp,2021.2.3,85.01011008160881,
0,0,270,0,0,-168,0,0,-168,0,f,present,resp,freq_bottom,,,,,0,3,3,790,,,0.7337723833035452,,,,,,,,,,1824.2722246688663,None,1824.2722246688663,None,None,0,,1827.2617913031045,None,004,001,2,26,m,2021_Nov_08_1130,eye_tracking_exp,2021.2.3,85.01011008160881,
180,180,180,0,180,270,180,168,180,-168,f,present,resp,freq_bottom,,,,,0,4,4,865,,,1.0093858510966376,,,,,,,,,,1979.8751346618046,None,1979.8751346618046,None,None,0,,1982.8510671372678,None,004,001,2,26,m,2021_Nov_08_1130,eye_tracking_exp,2021.2.3,85.01011008160881,
180,-168,0,0,180,180,168,180,90,180,f,present,resp,freq_bottom,,,,,0,5,5,913,,,1.050723566283154,,,,,,,,,,1984.428355693708,None,1984.428355693708,None,f,1,1.221108978617849,None,None,004,001,2,26,m,2021_Nov_08_1130,eye_tracking_exp,2021.2.3,85.01011008160881,
180,180,168,0,0,168,180,0,180,0,f,abs,resp,freq_bottom,,,,,0,6,6,278,,,1.0363695225119387,,,,,,,,,,1986.9457042393606,None,1986.9457042393606,None,f,1,0.927772477896724,None,None,004,001,2,26,m,2021_Nov_08_1130,eye_tracking_exp,2021.2.3,85.01011008160881,
-168,0,0,0,0,0,0,-168,0,0,f,abs,resp,freq_bottom,,,,,0,7,7,298,,,0.7608208093118438,,,,,,,,,,1988.8993298679197,None,1988.8993298679197,None,f,1,0.9581416768724011,None,None,004,001,2,26,m,2021_Nov_08_1130,eye_tracking_exp,2021.2.3,85.01011008160881,
0,12,0,0,0,180,0,12,0,90,j,present,resp,freq_bottom,,,,,0,8,8,555,,,0.718894255641613,,,,,,,,,,1990.8645093209052,None,1990.8645093209052,None,j,1,1.0410628623249067,None,None,004,001,2,26,m,2021_Nov_08_1130,eye_tracking_exp,2021.2.3,85.01011008160881,
0,180,0,180,180,-168,0,90,180,-168,f,present,resp,freq_bottom,,,,,0,9,9,849,,,0.7180300935273666,,,,,,,,,,1992.7944405086855,None,1992.7944405086855,None,f,1,1.7671206800441723,None,None,004,001,2,26,m,2021_Nov_08_1130,eye_tracking_exp,2021.2.3,85.01011008160881,
0,180,12,0,0,12,0,180,0,180,j,abs,resp,freq_bottom,,,,,0,10,10,68,,,1.0242260915135426,,,,,,,,,,1995.8196411694917,None,1995.8196411694917,None,j,1,0.9659972632744029,None,None,004,001,2,26,m,2021_Nov_08_1130,eye_tracking_exp,2021.2.3,85.01011008160881,
180,180,-12,0,0,0,-12,180,180,0,j,abs,resp,freq_bottom,,,,,0,11,11,103,,,0.9292530086271301,,,,,,,,,,1997.9833217071664,None,1997.9833217071664,None,j,1,0.8342718323947338,None,None,004,001,2,26,m,2021_Nov_08_1130,eye_tracking_exp,2021.2.3,85.01011008160881,
0,0,-12,180,0,180,180,-12,0,0,j,abs,resp,freq_bottom,,,,,0,12,12,102,,,0.8466155871952938,,,,,,,,,,1999.9129914948371,None,1999.9129914948371,None,j,1,0.8237138035328826,None,None,004,001,2,26,m,2021_Nov_08_1130,eye_tracking_exp,2021.2.3,85.01011008160881,
168,180,0,180,180,180,-168,180,180,180,f,abs,resp,freq_bottom,,,,,0,13,13,369,,,1.084473697587657,,,,,,,,,,2002.0901093865887,None,2002.0901093865887,None,f,1,0.8226135686654743,None,None,004,001,2,26,m,2021_Nov_08_1130,eye_tracking_exp,2021.2.3,85.01011008160881,
0,180,180,12,180,180,0,90,180,12,j,present,resp,freq_bottom,,,,,0,14,14,513,,,0.967920550988778,,,,,,,,,,2003.9375585773196,None,2003.9375585773196,None,j,1,1.231175901270035,None,None,004,001,2,26,m,2021_Nov_08_1130,eye_tracking_exp,2021.2.3,85.01011008160881,
180,180,168,180,180,168,0,270,180,180,f,present,resp,freq_bottom,,,,,0,15,15,748,,,0.7333985241009655,,,,,,,,,,2005.9496327871802,None,2005.9496327871802,None,f,1,1.0431413855894789,None,None,004,001,2,26,m,2021_Nov_08_1130,eye_tracking_exp,2021.2.3,85.01011008160881,
0,-12,0,0,0,0,12,0,270,0,j,present,resp,freq_bottom,,,,,0,16,16,670,,,0.756291424355224,,,,,,,,,,2008.020893595969,None,2008.020893595969,None,j,1,0.9719158929838159,None,None,004,001,2,26,m,2021_Nov_08_1130,eye_tracking_exp,2021.2.3,85.01011008160881,
0,180,0,-168,180,180,168,0,180,180,f,abs,resp,freq_bottom,,,,,0,17,17,390,,,0.8312125728519395,,,,,,,,,,2010.1035138392635,None,2010.1035138392635,None,f,1,1.3053229777706292,None,None,004,001,2,26,m,2021_Nov_08_1130,eye_tracking_exp,2021.2.3,85.01011008160881,
180,180,180,180,12,0,0,0,0,12,j,abs,resp,freq_bottom,,,,,0,18,18,10,,,0.7168818435156201,,,,,,,,,,2012.303746020516,None,2012.303746020516,None,j,1,0.993097451657377,None,None,004,001,2,26,m,2021_Nov_08_1130,eye_tracking_exp,2021.2.3,85.01011008160881,
180,168,180,180,180,0,180,0,180,168,f,abs,resp,freq_bottom,,,,,0,19,19,233,,,0.7633054424314278,,,,,,,,,,2014.1158358660869,None,2014.1158358660869,None,f,1,1.6760538325506786,None,None,004,001,2,26,m,2021_Nov_08_1130,eye_tracking_exp,2021.2.3,85.01011008160881,
180,180,180,180,-168,0,168,0,0,0,f,abs,resp,freq_bottom,,,,,0,20,20,412,,,1.0121248133333929,,,,,,,,,,2017.0930261409158,None,2017.0930261409158,None,f,1,1.0668859330889973,None,None,004,001,2,26,m,2021_Nov_08_1130,eye_tracking_exp,2021.2.3,85.01011008160881,
180,180,0,180,0,-168,0,0,180,-168,f,abs,resp,freq_bottom,,,,,0,21,21,345,,,1.073414389365972,,,,,,,,,,2019.3876246668733,None,2019.3876246668733,None,f,1,0.9163327519017912,None,None,004,001,2,26,m,2021_Nov_08_1130,eye_tracking_exp,2021.2.3,85.01011008160881,
0,-12,180,180,180,180,0,180,180,-12,j,abs,resp,freq_bottom,,,,,0,22,22,93,,,0.987550240060989,,,,,,,,,,2021.329567582039,None,2021.329567582039,None,j,1,1.2303711753011157,None,None,004,001,2,26,m,2021_Nov_08_1130,eye_tracking_exp,2021.2.3,85.01011008160881,
180,-12,0,180,180,180,12,0,0,270,j,present,resp,freq_bottom,,,,,0,23,23,703,,,0.837655544956212,,,,,,,,,,2023.448661592205,None,2023.448661592205,None,j,1,1.1913461916683445,None,None,004,001,2,26,m,2021_Nov_08_1130,eye_tracking_exp,2021.2.3,85.01011008160881,
0,-168,0,180,0,0,-168,0,270,0,f,present,resp,freq_bottom,,,,,0,24,24,810,,,1.026433662524937,,,,,,,,,,2025.7187790622738,None,2025.7187790622738,None,f,1,0.7452478901377617,None,None,004,001,2,26,m,2021_Nov_08_1130,eye_tracking_exp,2021.2.3,85.01011008160881,
-12,180,180,180,180,0,0,-12,0,0,j,abs,resp,freq_bottom,,,,,0,25,25,88,,,0.8664299281767094,,,,,,,,,,2027.3789139459368,None,2027.3789139459368,None,j,1,0.8291349882310897,None,None,004,001,2,26,m,2021_Nov_08_1130,eye_tracking_exp,2021.2.3,85.01011008160881,
0,0,270,-168,0,168,0,180,0,0,f,present,resp,freq_bottom,,,,,0,26,26,895,,,0.8812833551438404,,,,,,,,,,2029.1678680708228,None,2029.1678680708228,None,f,1,1.2646840144843736,None,None,004,001,2,26,m,2021_Nov_08_1130,eye_tracking_exp,2021.2.3,85.01011008160881,
180,-168,0,180,180,180,-168,0,180,0,f,abs,resp,freq_bottom,,,,,0,27,27,339,,,0.9813661532274737,,,,,,,,,,2031.460634683086,None,2031.460634683086,None,f,1,0.7625350097823684,None,None,004,001,2,26,m,2021_Nov_08_1130,eye_tracking_exp,2021.2.3,85.01011008160881,
12,180,180,180,180,270,180,-12,180,180,j,present,resp,freq_bottom,,,,,0,28,28,694,,,0.8965072831617215,,,,,,,,,,2033.1668671438474,None,2033.1668671438474,None,j,1,1.0882715408079093,None,None,004,001,2,26,m,2021_Nov_08_1130,eye_tracking_exp,2021.2.3,85.01011008160881,
-12,0,0,0,0,0,0,0,-12,0,j,abs,resp,freq_bottom,,,,,0,29,29,70,,,0.8590167782175021,,,,,,,,,,2035.2150743345246,None,2035.2150743345246,None,j,1,0.960098857362027,None,None,004,001,2,26,m,2021_Nov_08_1130,eye_tracking_exp,2021.2.3,85.01011008160881,
180,180,12,180,180,0,180,12,180,0,j,abs,resp,freq_bottom,,,,,0,30,30,52,,,0.8879667271460037,,,,,,,,,,2037.1218009803415,None,2037.1218009803415,None,j,1,0.621372310550214,None,None,004,001,2,26,m,2021_Nov_08_1130,eye_tracking_exp,2021.2.3,85.01011008160881,
180,12,180,180,180,168,0,180,0,180,None,abs,inhibit,freq_bottom,,,,,0,31,31,487,,,1.0557523327778202,,,,,,,,,,2039.038361824234,None,2039.038361824234,None,None,1,,None,None,004,001,2,26,m,2021_Nov_08_1130,eye_tracking_exp,2021.2.3,85.01011008160881,
180,180,270,0,0,0,168,0,0,168,f,present,resp,freq_bottom,,,,,0,32,32,726,,,0.9821675934463532,,,,,,,,,,2043.0509911320169,None,2043.0509911320169,None,f,1,1.0603482137466926,None,None,004,001,2,26,m,2021_Nov_08_1130,eye_tracking_exp,2021.2.3,85.01011008160881,
0,-12,0,0,12,270,180,180,180,180,j,present,resp,freq_bottom,,,,,0,33,33,666,,,0.9861287851848928,,,,,,,,,,2045.3453019971148,None,2045.3453019971148,None,j,1,1.1820181921866606,None,None,004,001,2,26,m,2021_Nov_08_1130,eye_tracking_exp,2021.2.3,85.01011008160881,
0,0,12,180,0,-12,0,0,0,90,j,present,resp,freq_bottom,,,,,0,34,34,678,,,0.9262440155995554,,,,,,,,,,2047.7220299620058,None,2047.7220299620058,None,j,1,0.8682837294181809,None,None,004,001,2,26,m,2021_Nov_08_1130,eye_tracking_exp,2021.2.3,85.01011008160881,
180,180,0,270,0,168,180,180,12,180,None,present,inhibit,freq_bottom,,,,,0,35,35,988,,,1.0602430581760698,,,,,,,,,,2049.7117979286613,None,2049.7117979286613,None,None,1,,None,None,004,001,2,26,m,2021_Nov_08_1130,eye_tracking_exp,2021.2.3,85.01011008160881,
180,0,180,-12,180,90,180,180,-168,0,None,present,inhibit,freq_bottom,,,,,0,36,36,997,,,0.7047445280318039,,,,,,,,,,2053.4190261849853,None,2053.4190261849853,None,None,1,,None,None,004,001,2,26,m,2021_Nov_08_1130,eye_tracking_exp,2021.2.3,85.01011008160881,
168,0,0,0,0,-168,0,0,180,180,f,abs,resp,freq_bottom,,,,,0,37,37,370,,,0.9944742034959861,,,,,,,,,,2057.4315739938884,None,2057.4315739938884,None,f,1,0.9189790506898134,None,None,004,001,2,26,m,2021_Nov_08_1130,eye_tracking_exp,2021.2.3,85.01011008160881,
180,0,180,0,-168,180,-168,180,90,180,f,present,resp,freq_bottom,,,,,0,38,38,832,,,1.0619091801756284,,,,,,,,,,2059.467718746764,None,2059.467718746764,None,f,1,0.9782145489461982,None,None,004,001,2,26,m,2021_Nov_08_1130,eye_tracking_exp,2021.2.3,85.01011008160881,
0,180,180,-12,180,180,-12,0,180,180,j,abs,resp,freq_bottom,,,,,0,39,39,110,,,0.7963435693207743,,,,,,,,,,2061.4095892184832,None,2061.4095892184832,None,j,1,1.3080365885962237,None,None,004,001,2,26,m,2021_Nov_08_1130,eye_tracking_exp,2021.2.3,85.01011008160881,
180,12,180,180,180,0,180,0,180,-12,j,abs,resp,freq_bottom,,,,,0,40,40,147,,,0.9877004215481207,,,,,,,,,,2063.9393654376527,None,2063.9393654376527,None,j,1,1.1942282335130585,None,None,004,001,2,26,m,2021_Nov_08_1130,eye_tracking_exp,2021.2.3,85.01011008160881,
0,168,0,0,168,0,0,90,0,0,f,present,resp,freq_bottom,,,,,0,41,41,736,,,0.9533182583261164,,,,,,,,,,2066.3646609993757,None,2066.3646609993757,None,f,1,0.9290006961873587,None,None,004,001,2,26,m,2021_Nov_08_1130,eye_tracking_exp,2021.2.3,85.01011008160881,
168,0,0,0,-168,0,0,0,0,0,f,abs,resp,freq_bottom,,,,,0,42,42,366,,,0.8919973916105127,,,,,,,,,,2071.6813756044885,None,2071.6813756044885,None,f,1,0.7322657223921851,None,None,004,001,2,26,m,2021_Nov_08_1130,eye_tracking_exp,2021.2.3,85.01011008160881,
12,180,180,12,180,180,0,180,0,180,j,abs,resp,freq_bottom,,,,,0,43,43,15,,,0.9146719040357946,,,,,,,,,,2073.610797877045,None,2073.610797877045,None,j,1,0.7549794599945017,None,None,004,001,2,26,m,2021_Nov_08_1130,eye_tracking_exp,2021.2.3,85.01011008160881,
0,0,-12,0,0,0,270,0,0,-12,j,present,resp,freq_bottom,,,,,0,44,44,582,,,0.9770112621714815,,,,,,,,,,2075.6347748472726,None,2075.6347748472726,None,j,1,1.3389850333114737,None,None,004,001,2,26,m,2021_Nov_08_1130,eye_tracking_exp,2021.2.3,85.01011008160881,
0,180,0,0,168,180,90,0,168,180,f,present,resp,freq_bottom,,,,,0,45,45,760,,,0.7886990330732413,,,,,,,,,,2077.811817277099,None,2077.811817277099,None,j,0,1.3049791732391895,2079.1425665928855,None,004,001,2,26,m,2021_Nov_08_1130,eye_tracking_exp,2021.2.3,85.01011008160881,
12,180,180,-12,180,180,0,180,0,180,j,abs,resp,freq_bottom,,,,,0,46,46,155,,,0.8740320487377513,,,,,,,,,,2080.553616452389,None,2080.553616452389,None,j,1,0.8831886670141103,None,None,004,001,2,26,m,2021_Nov_08_1130,eye_tracking_exp,2021.2.3,85.01011008160881,
-168,180,0,0,168,180,180,90,0,180,f,present,resp,freq_bottom,,,,,0,47,47,898,,,0.8321526561760029,,,,,,,,,,2082.5662828874392,None,2082.5662828874392,None,f,1,0.806609603592733,None,None,004,001,2,26,m,2021_Nov_08_1130,eye_tracking_exp,2021.2.3,85.01011008160881,
0,0,12,0,0,0,0,0,0,168,None,abs,inhibit,freq_bottom,,,,,0,48,48,428,,,1.082358334801265,,,,,,,,,,2084.6846035637955,None,2084.6846035637955,None,None,1,,None,None,004,001,2,26,m,2021_Nov_08_1130,eye_tracking_exp,2021.2.3,85.01011008160881,
180,12,180,0,180,270,180,180,180,168,None,present,inhibit,freq_bottom,,,,,0,49,49,931,,,0.7870079407517088,,,,,,,,,,2088.473414914717,None,2088.473414914717,None,None,1,,None,None,004,001,2,26,m,2021_Nov_08_1130,eye_tracking_exp,2021.2.3,85.01011008160881,
180,180,168,0,168,180,270,0,180,180,f,present,resp,freq_bottom,,,,,0,50,50,756,,,0.839737803561477,,,,,,,,,,2092.3335972488385,None,2092.3335972488385,None,f,1,0.8624583706514386,None,None,004,001,2,26,m,2021_Nov_08_1130,eye_tracking_exp,2021.2.3,85.01011008160881,
180,-12,0,180,0,90,180,12,180,180,j,present,resp,freq_bottom,,,,,0,51,51,669,,,0.9265695486224547,,,,,,,,,,2094.1931864522303,None,2094.1931864522303,None,j,1,1.0349371650954708,None,None,004,001,2,26,m,2021_Nov_08_1130,eye_tracking_exp,2021.2.3,85.01011008160881,
0,12,0,0,0,180,0,168,0,0,None,abs,inhibit,freq_bottom,,,,,0,52,52,471,,,0.7739459151518425,,,,,,,,,,2096.0517164720404,None,2096.0517164720404,None,None,1,,None,None,004,001,2,26,m,2021_Nov_08_1130,eye_tracking_exp,2021.2.3,85.01011008160881,
12,0,0,0,12,0,270,180,180,180,j,present,resp,freq_bottom,,,,,0,53,53,520,,,0.7401760410492805,,,,,,,,,,2099.7939826057245,None,2099.7939826057245,None,j,1,0.7784106895815057,None,None,004,001,2,26,m,2021_Nov_08_1130,eye_tracking_exp,2021.2.3,85.01011008160881,
0,168,0,180,168,0,0,180,0,0,f,abs,resp,freq_bottom,,,,,0,54,54,253,,,0.8473783894021921,,,,,,,,,,2101.664975615233,None,2101.664975615233,None,f,1,0.8600840366398188,None,None,004,001,2,26,m,2021_Nov_08_1130,eye_tracking_exp,2021.2.3,85.01011008160881,
180,0,180,0,180,168,0,0,180,168,f,abs,resp,freq_bottom,,,,,0,55,55,275,,,0.7536321477107157,,,,,,,,,,2103.512103338164,None,2103.512103338164,None,f,1,1.2040041749842203,None,None,004,001,2,26,m,2021_Nov_08_1130,eye_tracking_exp,2021.2.3,85.01011008160881,
0,0,0,12,180,12,0,180,180,180,j,abs,resp,freq_bottom,,,,,0,56,56,69,,,0.7579764106947193,,,,,,,,,,2105.5713107645824,None,2105.5713107645824,None,j,1,0.824922703570337,None,None,004,001,2,26,m,2021_Nov_08_1130,eye_tracking_exp,2021.2.3,85.01011008160881,
180,-168,180,180,180,180,0,180,0,-168,f,abs,resp,freq_bottom,,,,,0,57,57,287,,,0.9074196031840235,,,,,,,,,,2107.572098888928,None,2107.572098888928,None,f,1,1.0791672104714962,None,None,004,001,2,26,m,2021_Nov_08_1130,eye_tracking_exp,2021.2.3,85.01011008160881,
0,180,0,168,180,180,168,0,270,180,f,present,resp,freq_bottom,,,,,0,58,58,754,,,0.9718284805764852,,,,,,,,,,2109.6897395024153,None,2109.6897395024153,None,f,1,1.0735416748793796,None,None,004,001,2,26,m,2021_Nov_08_1130,eye_tracking_exp,2021.2.3,85.01011008160881,
180,0,0,180,-168,90,0,12,0,180,None,present,inhibit,freq_bottom,,,,,0,59,59,971,,,0.9198348779893413,,,,,,,,,,2111.7253056132504,None,2111.7253056132504,None,None,1,,None,None,004,001,2,26,m,2021_Nov_08_1130,eye_tracking_exp,2021.2.3,85.01011008160881,
12,180,180,180,180,0,180,168,180,0,None,abs,inhibit,freq_bottom,,,,,0,60,60,470,,,0.8989254342808117,,,,,,,,,,2115.655197560829,None,2115.655197560829,None,None,1,,None,None,004,001,2,26,m,2021_Nov_08_1130,eye_tracking_exp,2021.2.3,85.01011008160881,
0,0,0,0,0,-12,0,0,-12,0,j,abs,resp,freq_bottom,,,,,0,61,61,76,,,1.0561744075487098,,,,,,,,,,2119.714859871732,None,2119.714859871732,None,j,1,0.9207415394121199,None,None,004,001,2,26,m,2021_Nov_08_1130,eye_tracking_exp,2021.2.3,85.01011008160881,
180,0,180,168,180,270,180,0,12,0,None,present,inhibit,freq_bottom,,,,,0,62,62,962,,,1.0540936613020926,,,,,,,,,,2121.821362305078,None,2121.821362305078,None,None,1,,None,None,004,001,2,26,m,2021_Nov_08_1130,eye_tracking_exp,2021.2.3,85.01011008160881,
180,180,168,0,-168,180,180,90,0,0,f,present,resp,freq_bottom,,,,,0,63,63,882,,,0.8295817552139899,,,,,,,,,,2125.669798839637,None,2125.669798839637,None,f,1,1.3806656730102986,None,None,004,001,2,26,m,2021_Nov_08_1130,eye_tracking_exp,2021.2.3,85.01011008160881,
0,180,180,-12,180,180,180,0,-12,180,j,abs,resp,freq_bottom,,,,,0,64,64,108,,,0.9603185244079716,,,,,,,,,,2128.2588760580147,None,2128.2588760580147,None,j,1,1.0156294769440137,None,None,004,001,2,26,m,2021_Nov_08_1130,eye_tracking_exp,2021.2.3,85.01011008160881,
0,168,0,0,0,0,0,0,12,0,None,abs,inhibit,freq_bottom,,,,,0,65,65,444,,,1.0743276567774291,,,,,,,,,,2130.494192299322,None,2130.494192299322,None,None,1,,None,None,004,001,2,26,m,2021_Nov_08_1130,eye_tracking_exp,2021.2.3,85.01011008160881,
180,168,180,180,180,180,0,168,180,0,f,abs,resp,freq_bottom,,,,,0,66,66,235,,,0.8176876259493376,,,,,,,,,,2134.3188042967413,None,2134.3188042967413,None,f,1,0.8437712813720282,None,None,004,001,2,26,m,2021_Nov_08_1130,eye_tracking_exp,2021.2.3,85.01011008160881,
0,0,168,180,180,180,180,0,0,168,f,abs,resp,freq_bottom,,,,,0,67,67,240,,,1.0138922351018056,,,,,,,,,,2136.237381785122,None,2136.237381785122,None,f,1,1.3093242708855541,None,None,004,001,2,26,m,2021_Nov_08_1130,eye_tracking_exp,2021.2.3,85.01011008160881,
12,180,0,180,0,0,180,-12,180,180,j,abs,resp,freq_bottom,,,,,0,68,68,190,,,0.8557047460861422,,,,,,,,,,2138.6495273517776,None,2138.6495273517776,None,j,1,0.9931831764042727,None,None,004,001,2,26,m,2021_Nov_08_1130,eye_tracking_exp,2021.2.3,85.01011008160881,
180,180,0,12,0,12,0,180,0,0,j,abs,resp,freq_bottom,,,,,0,69,69,41,,,1.0222993050001827,,,,,,,,,,2140.745892531955,None,2140.745892531955,None,j,1,0.9278829541526648,None,None,004,001,2,26,m,2021_Nov_08_1130,eye_tracking_exp,2021.2.3,85.01011008160881,
0,0,0,180,-168,0,0,-168,0,0,f,abs,resp,freq_bottom,,,,,0,70,70,327,,,1.032973011157285,,,,,,,,,,2142.862667144391,None,2142.862667144391,None,f,1,0.8590649988036603,None,None,004,001,2,26,m,2021_Nov_08_1130,eye_tracking_exp,2021.2.3,85.01011008160881,
180,-168,180,168,180,180,270,0,180,0,f,present,resp,freq_bottom,,,,,0,71,71,875,,,0.852102653781194,,,,,,,,,,2144.8396530683276,None,2144.8396530683276,None,f,1,0.8181495430253563,None,None,004,001,2,26,m,2021_Nov_08_1130,eye_tracking_exp,2021.2.3,85.01011008160881,
0,180,180,180,0,0,12,0,0,168,None,abs,inhibit,freq_bottom,,,,,0,72,72,502,,,0.7421227208456745,,,,,,,,,,2146.4400882119717,None,2146.4400882119717,None,None,1,,None,None,004,001,2,26,m,2021_Nov_08_1130,eye_tracking_exp,2021.2.3,85.01011008160881,
180,0,180,0,168,180,-168,180,180,0,f,abs,resp,freq_bottom,,,,,0,73,73,398,,,0.873154203958171,,,,,,,,,,2150.3354853062046,None,2150.3354853062046,None,f,1,1.194645688881792,None,None,004,001,2,26,m,2021_Nov_08_1130,eye_tracking_exp,2021.2.3,85.01011008160881,
-168,0,0,0,0,0,0,0,-168,0,f,abs,resp,freq_bottom,,,,,0,74,74,280,,,0.9107800441752125,,,,,,,,,,2152.513137770233,None,2152.513137770233,None,f,1,0.7450000731751061,None,None,004,001,2,26,m,2021_Nov_08_1130,eye_tracking_exp,2021.2.3,85.01011008160881,
180,180,180,180,-12,0,0,0,12,0,j,abs,resp,freq_bottom,,,,,0,75,75,144,,,0.8670505897180544,,,,,,,,,,2154.184139774803,None,2154.184139774803,None,j,1,0.992789868851105,None,None,004,001,2,26,m,2021_Nov_08_1130,eye_tracking_exp,2021.2.3,85.01011008160881,
180,0,0,-12,180,180,180,0,12,0,j,abs,resp,freq_bottom,,,,,0,76,76,178,,,0.9802785722233589,,,,,,,,,,2156.21855192188,None,2156.21855192188,None,j,1,0.7023864222337579,None,None,004,001,2,26,m,2021_Nov_08_1130,eye_tracking_exp,2021.2.3,85.01011008160881,
180,180,180,180,12,0,-168,0,90,0,None,present,inhibit,freq_bottom,,,,,0,77,77,986,,,0.8243536068616583,,,,,,,,,,2157.7951730930545,None,2157.7951730930545,None,None,1,,None,None,004,001,2,26,m,2021_Nov_08_1130,eye_tracking_exp,2021.2.3,85.01011008160881,
180,0,0,12,180,-12,180,180,180,180,j,abs,resp,freq_bottom,,,,,0,78,78,209,,,0.8306176125596922,,,,,,,,,,2161.643382336295,None,2161.643382336295,None,j,1,1.1817893916286266,None,None,004,001,2,26,m,2021_Nov_08_1130,eye_tracking_exp,2021.2.3,85.01011008160881,
180,0,0,180,180,180,270,180,168,180,f,present,resp,freq_bottom,,,,,0,79,79,719,,,1.0627285952075678,,,,,,,,,,2163.9376153246867,None,2163.9376153246867,None,None,0,,2166.926568604398,None,004,001,2,26,m,2021_Nov_08_1130,eye_tracking_exp,2021.2.3,85.01011008160881,
0,180,0,180,180,12,0,0,12,0,j,abs,resp,freq_bottom,,,,,0,80,80,6,,,1.0498323379896914,,,,,,,,,,2168.514823287791,None,2168.514823287791,None,j,1,1.1095077339177806,None,None,004,001,2,26,m,2021_Nov_08_1130,eye_tracking_exp,2021.2.3,85.01011008160881,
0,0,180,0,168,180,90,0,-168,180,f,present,resp,freq_bottom,,,,,0,81,81,900,,,1.0860550820828982,,,,,,,,,,2170.975403638291,None,2170.975403638291,None,f,1,1.3528169023302326,None,None,004,001,2,26,m,2021_Nov_08_1130,eye_tracking_exp,2021.2.3,85.01011008160881,
0,-12,180,180,180,180,0,180,0,12,j,abs,resp,freq_bottom,,,,,0,82,82,163,,,0.9247315494108326,,,,,,,,,,2173.328471271192,None,2173.328471271192,None,j,1,0.8717558835160162,None,None,004,001,2,26,m,2021_Nov_08_1130,eye_tracking_exp,2021.2.3,85.01011008160881,
0,180,180,180,180,0,12,0,0,12,j,abs,resp,freq_bottom,,,,,0,83,83,12,,,0.8517315315994378,,,,,,,,,,2176.2945749818355,None,2176.2945749818355,None,j,1,0.9616017570624535,None,None,004,001,2,26,m,2021_Nov_08_1130,eye_tracking_exp,2021.2.3,85.01011008160881,
180,180,180,0,-168,0,168,0,270,180,f,present,resp,freq_bottom,,,,,0,84,84,916,,,0.7759301567279113,,,,,,,,,,2178.3056183818007,None,2178.3056183818007,None,f,1,0.9185694433599565,None,None,004,001,2,26,m,2021_Nov_08_1130,eye_tracking_exp,2021.2.3,85.01011008160881,
0,0,-168,180,180,180,90,0,0,-168,f,present,resp,freq_bottom,,,,,0,85,85,814,,,1.0922361966859437,,,,,,,,,,2180.589679706387,None,2180.589679706387,None,f,1,0.7625986996481515,None,None,004,001,2,26,m,2021_Nov_08_1130,eye_tracking_exp,2021.2.3,85.01011008160881,
-168,180,0,180,180,180,90,180,-168,180,f,present,resp,freq_bottom,,,,,0,86,86,801,,,1.08588991505867,,,,,,,,,,2182.717853899072,None,2182.717853899072,None,f,1,0.6984943979859963,None,None,004,001,2,26,m,2021_Nov_08_1130,eye_tracking_exp,2021.2.3,85.01011008160881,
180,0,180,0,-12,180,0,0,-12,0,j,abs,resp,freq_bottom,,,,,0,87,87,116,,,1.0183049269543378,,,,,,,,,,2184.588630785627,None,2184.588630785627,None,j,1,1.0508378982522117,None,None,004,001,2,26,m,2021_Nov_08_1130,eye_tracking_exp,2021.2.3,85.01011008160881,
168,0,0,0,168,0,0,0,0,0,f,abs,resp,freq_bottom,,,,,0,88,88,226,,,0.9968716608810418,,,,,,,,,,2186.694695539807,None,2186.694695539807,None,f,1,0.7048817971717654,None,None,004,001,2,26,m,2021_Nov_08_1130,eye_tracking_exp,2021.2.3,85.01011008160881,
180,0,180,168,180,180,168,180,180,0,f,abs,resp,freq_bottom,,,,,0,89,89,271,,,0.8398814904498398,,,,,,,,,,2188.54239134011,None,2188.54239134011,None,f,1,0.6809980978832755,None,None,004,001,2,26,m,2021_Nov_08_1130,eye_tracking_exp,2021.2.3,85.01011008160881,
0,180,0,180,180,90,180,-12,180,-12,j,present,resp,freq_bottom,,,,,0,90,90,585,,,1.0512120639309885,,,,,,,,,,2190.5311656241356,None,2190.5311656241356,None,j,1,0.9487195009078278,None,None,004,001,2,26,m,2021_Nov_08_1130,eye_tracking_exp,2021.2.3,85.01011008160881,
12,0,180,0,180,90,180,168,180,180,None,present,inhibit,freq_bottom,,,,,0,91,91,974,,,0.9141135482103621,,,,,,,,,,2192.437549370965,None,2192.437549370965,None,None,1,,None,None,004,001,2,26,m,2021_Nov_08_1130,eye_tracking_exp,2021.2.3,85.01011008160881,
0,0,0,12,0,0,0,0,180,12,j,abs,resp,freq_bottom,,,,,0,92,92,37,,,0.7094400186492353,,,,,,,,,,2196.156949032111,None,2196.156949032111,None,j,1,0.7305780919014069,None,None,004,001,2,26,m,2021_Nov_08_1130,eye_tracking_exp,2021.2.3,85.01011008160881,
0,0,270,-168,0,0,0,180,180,168,f,present,resp,freq_bottom,,,,,0,93,93,891,,,0.7635328377921942,,,,,,,,,,2197.698227157902,None,2197.698227157902,None,f,1,1.6212908116722247,None,None,004,001,2,26,m,2021_Nov_08_1130,eye_tracking_exp,2021.2.3,85.01011008160881,
0,0,0,0,0,0,0,-12,0,-12,j,abs,resp,freq_bottom,,,,,0,94,94,119,,,0.9561969092638583,,,,,,,,,,2200.3460382036556,None,2200.3460382036556,None,j,1,1.0215010184110724,None,None,004,001,2,26,m,2021_Nov_08_1130,eye_tracking_exp,2021.2.3,85.01011008160881,
180,0,0,0,168,180,180,-168,180,0,f,abs,resp,freq_bottom,,,,,0,95,95,404,,,0.8493143115038966,,,,,,,,,,2202.2875832835543,None,2202.2875832835543,None,f,1,0.887007040424578,None,None,004,001,2,26,m,2021_Nov_08_1130,eye_tracking_exp,2021.2.3,85.01011008160881,
180,180,180,0,-12,0,270,0,-168,0,None,present,inhibit,freq_bottom,,,,,0,96,96,998,,,1.0873989314223653,,,,,,,,,,2204.5364057002134,None,2204.5364057002134,None,None,1,,None,None,004,001,2,26,m,2021_Nov_08_1130,eye_tracking_exp,2021.2.3,85.01011008160881,
0,0,-12,0,0,180,180,180,0,168,None,abs,inhibit,freq_bottom,,,,,0,97,97,498,,,0.7708352828316961,,,,,,,,,,2208.3246009799786,None,2208.3246009799786,None,None,1,,None,None,004,001,2,26,m,2021_Nov_08_1130,eye_tracking_exp,2021.2.3,85.01011008160881,
0,0,0,180,180,180,12,180,180,-12,j,abs,resp,freq_bottom,,,,,0,98,98,197,,,0.9713930083062694,,,,,,,,,,2212.303130553055,None,2212.303130553055,None,j,1,0.9035887419922801,None,None,004,001,2,26,m,2021_Nov_08_1130,eye_tracking_exp,2021.2.3,85.01011008160881,
180,180,0,168,0,90,0,12,0,0,None,present,inhibit,freq_bottom,,,,,0,99,99,963,,,1.0980947055503516,,,,,,,,,,2214.5984840001092,None,2214.5984840001092,None,None,1,,None,None,004,001,2,26,m,2021_Nov_08_1130,eye_tracking_exp,2021.2.3,85.01011008160881,
180,-168,0,180,180,-168,0,0,180,0,f,abs,resp,freq_bottom,,,,,0,100,100,307,,,0.735850568240151,,,,,,,,,,2218.339416872501,None,2218.339416872501,None,f,1,0.7864636843787594,None,None,004,001,2,26,m,2021_Nov_08_1130,eye_tracking_exp,2021.2.3,85.01011008160881,
0,180,180,-168,180,180,168,180,0,180,f,abs,resp,freq_bottom,,,,,0,101,101,411,,,1.0195508084895497,,,,,,,,,,2220.21017232787,None,2220.21017232787,None,f,1,1.027668974318658,None,None,004,001,2,26,m,2021_Nov_08_1130,eye_tracking_exp,2021.2.3,85.01011008160881,
0,180,0,168,0,180,180,0,12,180,None,abs,inhibit,freq_bottom,,,,,0,102,102,458,,,1.031299946667664,,,,,,,,,,2222.3295087217375,None,2222.3295087217375,None,None,1,,None,None,004,001,2,26,m,2021_Nov_08_1130,eye_tracking_exp,2021.2.3,85.01011008160881,
180,0,180,-168,180,180,180,0,180,-168,f,abs,resp,freq_bottom,,,,,0,103,103,289,,,1.0946198912756528,,,,,,,,,,2226.459356056226,None,2226.459356056226,None,f,1,0.9385674572022253,None,None,004,001,2,26,m,2021_Nov_08_1130,eye_tracking_exp,2021.2.3,85.01011008160881,
168,0,168,0,0,0,0,180,0,180,f,abs,resp,freq_bottom,,,,,0,104,104,239,,,1.0947028104316832,,,,,,,,,,2228.589890094234,None,2228.589890094234,None,f,1,0.7120096287671913,None,None,004,001,2,26,m,2021_Nov_08_1130,eye_tracking_exp,2021.2.3,85.01011008160881,
180,180,0,180,-168,0,0,270,0,-168,f,present,resp,freq_bottom,,,,,0,105,105,829,,,1.0638398884138862,,,,,,,,,,2230.847773978856,None,2230.847773978856,None,f,1,0.74226442746658,None,None,004,001,2,26,m,2021_Nov_08_1130,eye_tracking_exp,2021.2.3,85.01011008160881,
-168,0,0,0,0,-168,180,180,0,0,f,abs,resp,freq_bottom,,,,,0,106,106,346,,,0.8386093129670799,,,,,,,,,,2232.636227942103,None,2232.636227942103,None,f,1,0.7784043507799652,None,None,004,001,2,26,m,2021_Nov_08_1130,eye_tracking_exp,2021.2.3,85.01011008160881,
180,180,180,-12,0,270,0,-12,0,180,j,present,resp,freq_bottom,,,,,0,107,107,613,,,0.7101264239140902,,,,,,,,,,2234.1660430996253,None,2234.1660430996253,None,j,1,1.0709798934476567,None,None,004,001,2,26,m,2021_Nov_08_1130,eye_tracking_exp,2021.2.3,85.01011008160881,
180,0,180,0,180,-168,0,270,180,168,f,present,resp,freq_bottom,,,,,0,108,108,919,,,1.0946850433460522,,,,,,,,,,2236.5904702455136,None,2236.5904702455136,None,f,1,0.9825919442955637,None,None,004,001,2,26,m,2021_Nov_08_1130,eye_tracking_exp,2021.2.3,85.01011008160881,
12,0,-168,0,0,270,0,180,0,180,None,present,inhibit,freq_bottom,,,,,0,109,109,953,,,0.8602816364697267,,,,,,,,,,2238.768633737698,None,2238.768633737698,None,None,1,,None,None,004,001,2,26,m,2021_Nov_08_1130,eye_tracking_exp,2021.2.3,85.01011008160881,
0,-168,180,180,0,270,0,-168,0,0,f,present,resp,freq_bottom,,,,,0,110,110,835,,,0.861753127549616,,,,,,,,,,2242.6737998309054,None,2242.6737998309054,None,f,1,0.7554101966634335,None,None,004,001,2,26,m,2021_Nov_08_1130,eye_tracking_exp,2021.2.3,85.01011008160881,
180,0,180,168,180,180,168,180,180,90,f,present,resp,freq_bottom,,,,,0,111,111,775,,,0.8573381129247827,,,,,,,,,,2244.332813954057,None,2244.332813954057,None,f,1,1.0643645992477104,None,None,004,001,2,26,m,2021_Nov_08_1130,eye_tracking_exp,2021.2.3,85.01011008160881,
0,0,0,-168,0,168,0,180,0,0,f,abs,resp,freq_bottom,,,,,0,112,112,391,,,0.9187754850455239,,,,,,,,,,2246.4978262437853,None,2246.4978262437853,None,f,1,0.8834871943890903,None,None,004,001,2,26,m,2021_Nov_08_1130,eye_tracking_exp,2021.2.3,85.01011008160881,
180,-168,0,180,180,180,168,180,0,180,f,abs,resp,freq_bottom,,,,,0,113,113,409,,,0.7966050242794953,,,,,,,,,,2248.3457158303117,None,2248.3457158303117,None,f,1,0.6515232736401231,None,None,004,001,2,26,m,2021_Nov_08_1130,eye_tracking_exp,2021.2.3,85.01011008160881,
168,180,0,180,180,180,-168,180,270,180,f,present,resp,freq_bottom,,,,,0,114,114,873,,,1.0770451066429299,,,,,,,,,,2250.2631785951344,None,2250.2631785951344,None,f,1,0.909089614482582,None,None,004,001,2,26,m,2021_Nov_08_1130,eye_tracking_exp,2021.2.3,85.01011008160881,
180,180,180,180,180,90,0,12,0,12,j,present,resp,freq_bottom,,,,,0,115,115,515,,,1.0451718048891148,,,,,,,,,,2252.5339927296955,None,2252.5339927296955,None,j,1,0.8783307301237073,None,None,004,001,2,26,m,2021_Nov_08_1130,eye_tracking_exp,2021.2.3,85.01011008160881,
180,0,180,0,168,180,168,180,0,90,f,present,resp,freq_bottom,,,,,0,116,116,762,,,0.7075996679912062,,,,,,,,,,2254.369939711958,None,2254.369939711958,None,f,1,0.7547032693491929,None,None,004,001,2,26,m,2021_Nov_08_1130,eye_tracking_exp,2021.2.3,85.01011008160881,
0,180,180,0,12,90,180,168,180,0,None,present,inhibit,freq_bottom,,,,,0,117,117,978,,,0.7805909422968104,,,,,,,,,,2256.181804077298,None,2256.181804077298,None,None,1,,None,None,004,001,2,26,m,2021_Nov_08_1130,eye_tracking_exp,2021.2.3,85.01011008160881,
180,168,0,0,0,0,12,0,90,180,None,present,inhibit,freq_bottom,,,,,0,118,118,950,,,0.9004934438202632,,,,,,,,,,2260.100791474855,None,2260.100791474855,None,None,1,,None,None,004,001,2,26,m,2021_Nov_08_1130,eye_tracking_exp,2021.2.3,85.01011008160881,
180,12,0,168,0,0,90,180,180,180,None,present,inhibit,freq_bottom,,,,,0,119,119,959,,,1.0693431889840708,,,,,,,,,,2264.1732744649817,None,2264.1732744649817,None,None,1,,None,None,004,001,2,26,m,2021_Nov_08_1130,eye_tracking_exp,2021.2.3,85.01011008160881,
0,180,0,180,168,0,0,270,0,168,f,present,resp,freq_bottom,,,,,0,120,120,759,,,1.082914091367468,,,,,,,,,,2268.6095980324353,None,2268.6095980324353,None,f,1,1.6503505953260174,None,None,004,001,2,26,m,2021_Nov_08_1130,eye_tracking_exp,2021.2.3,85.01011008160881,
180,168,180,168,180,0,180,0,180,180,f,abs,resp,freq_bottom,,,,,0,121,121,231,,,0.7996077436896932,,,,,,,,,,2271.223842104675,None,2271.223842104675,None,f,1,0.79582488710912,None,None,004,001,2,26,m,2021_Nov_08_1130,eye_tracking_exp,2021.2.3,85.01011008160881,
180,0,180,180,180,180,12,180,-168,180,None,abs,inhibit,freq_bottom,,,,,0,122,122,425,,,1.0476041477825733,,,,,,,,,,2273.7283026590667,None,2273.7283026590667,None,None,1,,None,None,004,001,2,26,m,2021_Nov_08_1130,eye_tracking_exp,2021.2.3,85.01011008160881,
168,180,180,0,0,-168,180,90,0,0,f,present,resp,freq_bottom,,,,,0,123,123,920,,,0.9476088875664662,,,,,,,,,,2277.7062511753193,None,2277.7062511753193,None,f,1,0.873488791165073,None,None,004,001,2,26,m,2021_Nov_08_1130,eye_tracking_exp,2021.2.3,85.01011008160881,
180,12,180,0,180,12,0,0,90,0,j,present,resp,freq_bottom,,,,,0,124,124,531,,,0.8851737601716833,,,,,,,,,,2280.306589124004,None,2280.306589124004,None,j,1,0.8003637709771283,None,None,004,001,2,26,m,2021_Nov_08_1130,eye_tracking_exp,2021.2.3,85.01011008160881,
180,168,180,180,180,180,180,180,180,168,f,abs,resp,freq_bottom,,,,,0,125,125,217,,,1.099433785137377,,,,,,,,,,2283.4247099771837,None,2283.4247099771837,None,f,1,1.0594791942185111,None,None,004,001,2,26,m,2021_Nov_08_1130,eye_tracking_exp,2021.2.3,85.01011008160881,
180,180,180,168,0,12,0,180,0,0,None,abs,inhibit,freq_bottom,,,,,0,126,126,461,,,0.8268150975943149,,,,,,,,,,2285.542484611049,None,2285.542484611049,None,None,1,,None,None,004,001,2,26,m,2021_Nov_08_1130,eye_tracking_exp,2021.2.3,85.01011008160881,
168,0,0,0,0,0,0,-168,0,0,f,abs,resp,freq_bottom,,,,,0,127,127,368,,,0.7414452072178427,,,,,,,,,,2289.2969133959705,None,2289.2969133959705,None,f,1,0.9619229230156634,None,None,004,001,2,26,m,2021_Nov_08_1130,eye_tracking_exp,2021.2.3,85.01011008160881,
0,-12,180,180,180,90,180,180,0,168,None,present,inhibit,freq_bottom,,,,,0,128,128,1001,,,0.9797953526898604,,,,,,,,,,2291.3678992215046,None,2291.3678992215046,None,None,1,,None,None,004,001,2,26,m,2021_Nov_08_1130,eye_tracking_exp,2021.2.3,85.01011008160881,
0,180,180,0,180,180,0,168,180,168,f,abs,resp,freq_bottom,,,,,0,129,129,221,,,0.7267796555187309,,,,,,,,,,2295.110510065262,None,2295.110510065262,None,f,1,0.7794294255691057,None,None,004,001,2,26,m,2021_Nov_08_1130,eye_tracking_exp,2021.2.3,85.01011008160881,
0,0,0,-168,0,0,0,180,180,168,f,abs,resp,freq_bottom,,,,,0,130,130,387,,,0.7537618675427702,,,,,,,,,,2296.817377311738,None,2296.817377311738,None,f,1,0.8165545797746745,None,None,004,001,2,26,m,2021_Nov_08_1130,eye_tracking_exp,2021.2.3,85.01011008160881,
180,180,0,-168,180,-168,0,90,180,180,f,present,resp,freq_bottom,,,,,0,131,131,853,,,1.0708442471548474,,,,,,,,,,2298.793099701201,None,2298.793099701201,None,f,1,1.2568894013184035,None,None,004,001,2,26,m,2021_Nov_08_1130,eye_tracking_exp,2021.2.3,85.01011008160881,
180,180,12,180,180,270,180,-12,180,180,j,present,resp,freq_bottom,,,,,0,132,132,676,,,0.9437345677992711,,,,,,,,,,2301.2644478647144,None,2301.2644478647144,None,j,1,1.2975576438311691,None,None,004,001,2,26,m,2021_Nov_08_1130,eye_tracking_exp,2021.2.3,85.01011008160881,
180,180,0,12,180,168,0,180,0,180,None,abs,inhibit,freq_bottom,,,,,0,133,133,489,,,0.8154858839101877,,,,,,,,,,2303.641386519301,None,2303.641386519301,None,None,1,,None,None,004,001,2,26,m,2021_Nov_08_1130,eye_tracking_exp,2021.2.3,85.01011008160881,
0,0,-168,180,180,180,180,-168,0,0,f,abs,resp,freq_bottom,,,,,0,134,134,312,,,0.8184870004303578,,,,,,,,,,2308.244217729991,None,2308.244217729991,None,f,1,0.8618543734028208,None,None,004,001,2,26,m,2021_Nov_08_1130,eye_tracking_exp,2021.2.3,85.01011008160881,
-168,180,180,0,180,180,-168,180,180,0,f,abs,resp,freq_bottom,,,,,0,135,135,299,,,0.7850124831259634,,,,,,,,,,2309.961118394025,None,2309.961118394025,None,f,1,1.0011510501499288,None,None,004,001,2,26,m,2021_Nov_08_1130,eye_tracking_exp,2021.2.3,85.01011008160881,
-12,0,0,0,0,-12,0,90,0,0,j,present,resp,freq_bottom,,,,,0,136,136,594,,,1.0911624542438552,,,,,,,,,,2313.7027735879637,None,2313.7027735879637,None,j,1,0.8903823014079535,None,None,004,001,2,26,m,2021_Nov_08_1130,eye_tracking_exp,2021.2.3,85.01011008160881,
180,0,180,0,180,180,-168,180,168,0,f,abs,resp,freq_bottom,,,,,0,137,137,355,,,0.8898500788500526,,,,,,,,,,2315.5266161755953,None,2315.5266161755953,None,f,1,1.1785520750436262,None,None,004,001,2,26,m,2021_Nov_08_1130,eye_tracking_exp,2021.2.3,85.01011008160881,
0,-168,0,0,0,0,0,0,-168,0,f,abs,resp,freq_bottom,,,,,0,138,138,304,,,0.9144919796119741,,,,,,,,,,2317.6679536446445,None,2317.6679536446445,None,f,1,1.149300618100824,None,None,004,001,2,26,m,2021_Nov_08_1130,eye_tracking_exp,2021.2.3,85.01011008160881,
180,90,0,180,180,168,0,-168,180,180,f,present,resp,freq_bottom,,,,,0,139,139,909,,,0.7657758642805154,,,,,,,,,,2319.6333480131925,None,2319.6333480131925,None,f,1,1.3441227830171556,None,None,004,001,2,26,m,2021_Nov_08_1130,eye_tracking_exp,2021.2.3,85.01011008160881,
0,168,0,0,168,0,0,0,0,0,f,abs,resp,freq_bottom,,,,,0,140,140,232,,,1.057755086717356,,,,,,,,,,2322.06992845304,None,2322.06992845304,None,f,1,1.3074636816618295,None,None,004,001,2,26,m,2021_Nov_08_1130,eye_tracking_exp,2021.2.3,85.01011008160881,
12,0,0,0,0,168,180,0,0,180,None,abs,inhibit,freq_bottom,,,,,0,141,141,486,,,0.7037393431624105,,,,,,,,,,2324.1170468790606,None,2324.1170468790606,None,None,1,,None,None,004,001,2,26,m,2021_Nov_08_1130,eye_tracking_exp,2021.2.3,85.01011008160881,
0,-12,180,180,180,0,90,0,-12,0,j,present,resp,freq_bottom,,,,,0,142,142,598,,,0.7134669479833564,,,,,,,,,,2327.861563891047,None,2327.861563891047,None,j,1,0.85881537075511,None,None,004,001,2,26,m,2021_Nov_08_1130,eye_tracking_exp,2021.2.3,85.01011008160881,
0,0,168,0,0,0,0,0,168,0,f,abs,resp,freq_bottom,,,,,0,143,143,212,,,0.9612673321243328,,,,,,,,,,2329.7330187275365,None,2329.7330187275365,None,f,1,0.9393918032710644,None,None,004,001,2,26,m,2021_Nov_08_1130,eye_tracking_exp,2021.2.3,85.01011008160881,
180,168,0,180,168,90,0,180,0,0,f,present,resp,freq_bottom,,,,,0,144,144,757,,,0.9677350913322698,,,,,,,,,,2331.8841282140365,None,2331.8841282140365,None,f,1,0.6603203230206418,None,None,004,001,2,26,m,2021_Nov_08_1130,eye_tracking_exp,2021.2.3,85.01011008160881,
0,180,0,0,-168,180,12,180,270,180,None,present,inhibit,freq_bottom,,,,,0,145,145,972,,,1.0178331645691856,,,,,,,,,,2333.7317358748096,None,2333.7317358748096,None,None,1,,None,None,004,001,2,26,m,2021_Nov_08_1130,eye_tracking_exp,2021.2.3,85.01011008160881,
180,168,180,180,180,90,180,168,180,180,f,present,resp,freq_bottom,,,,,0,146,146,739,,,1.063160882813439,,,,,,,,,,2337.7914999083896,None,2337.7914999083896,None,f,1,0.7204930583848181,None,None,004,001,2,26,m,2021_Nov_08_1130,eye_tracking_exp,2021.2.3,85.01011008160881,
-168,180,0,-168,180,180,0,180,0,180,f,abs,resp,freq_bottom,,,,,0,147,147,295,,,0.8979129008688477,,,,,,,,,,2339.4760811354536,None,2339.4760811354536,None,f,1,0.8123142232816463,None,None,004,001,2,26,m,2021_Nov_08_1130,eye_tracking_exp,2021.2.3,85.01011008160881,
0,0,-12,180,0,180,0,0,0,-12,j,abs,resp,freq_bottom,,,,,0,148,148,100,,,0.818031346969726,,,,,,,,,,2341.3922073186604,None,2341.3922073186604,None,j,1,0.704492715485685,None,None,004,001,2,26,m,2021_Nov_08_1130,eye_tracking_exp,2021.2.3,85.01011008160881,
-168,180,180,180,180,180,12,180,180,180,None,abs,inhibit,freq_bottom,,,,,0,149,149,439,,,1.080676623033629,,,,,,,,,,2343.4275742100126,None,2343.4275742100126,None,None,1,,None,None,004,001,2,26,m,2021_Nov_08_1130,eye_tracking_exp,2021.2.3,85.01011008160881,
-168,0,0,0,0,0,270,0,168,0,f,present,resp,freq_bottom,,,,,0,150,150,854,,,1.0240157440954796,,,,,,,,,,2347.4635360431803,None,2347.4635360431803,None,f,1,1.4481352746824996,None,None,004,001,2,26,m,2021_Nov_08_1130,eye_tracking_exp,2021.2.3,85.01011008160881,
12,180,180,0,-168,180,180,0,180,180,None,abs,inhibit,freq_bottom,,,,,0,151,151,464,,,1.0252175211001562,,,,,,,,,,2349.993683233175,None,2349.993683233175,None,None,1,,None,None,004,001,2,26,m,2021_Nov_08_1130,eye_tracking_exp,2021.2.3,85.01011008160881,
180,0,180,0,180,168,180,0,180,168,f,abs,resp,freq_bottom,,,,,0,152,152,223,,,0.8006285122169924,,,,,,,,,,2353.8300422375487,None,2353.8300422375487,None,f,1,0.8097442919606692,None,None,004,001,2,26,m,2021_Nov_08_1130,eye_tracking_exp,2021.2.3,85.01011008160881,
180,180,0,-168,0,-168,0,180,0,180,f,abs,resp,freq_bottom,,,,,0,153,153,321,,,0.8961904212495354,,,,,,,,,,2355.690654402795,None,2355.690654402795,None,f,1,0.7731313733020215,None,None,004,001,2,26,m,2021_Nov_08_1130,eye_tracking_exp,2021.2.3,85.01011008160881,
0,180,168,0,0,0,0,180,-168,180,f,abs,resp,freq_bottom,,,,,0,154,154,381,,,0.7725182376049666,,,,,,,,,,2357.4430472249787,None,2357.4430472249787,None,f,1,1.0838141558178904,None,None,004,001,2,26,m,2021_Nov_08_1130,eye_tracking_exp,2021.2.3,85.01011008160881,
0,-168,0,180,0,0,270,0,-168,0,f,present,resp,freq_bottom,,,,,0,155,155,808,,,0.9851933525522361,,,,,,,,,,2359.73765027865,None,2359.73765027865,None,f,1,0.7251716977407341,None,None,004,001,2,26,m,2021_Nov_08_1130,eye_tracking_exp,2021.2.3,85.01011008160881,
180,180,0,12,0,0,0,12,0,180,j,abs,resp,freq_bottom,,,,,0,156,156,39,,,1.073697684193771,,,,,,,,,,2361.6083181981867,None,2361.6083181981867,None,j,1,0.7425988747181691,None,None,004,001,2,26,m,2021_Nov_08_1130,eye_tracking_exp,2021.2.3,85.01011008160881,
180,180,0,180,168,270,0,-168,180,180,f,present,resp,freq_bottom,,,,,0,157,157,901,,,0.8094276207181621,,,,,,,,,,2363.2569058980735,None,2363.2569058980735,None,f,1,0.8219893476198195,None,None,004,001,2,26,m,2021_Nov_08_1130,eye_tracking_exp,2021.2.3,85.01011008160881,
0,12,180,180,180,0,12,0,0,270,j,present,resp,freq_bottom,,,,,0,158,158,530,,,1.0453538136382376,,,,,,,,,,2365.1742310203445,None,2365.1742310203445,None,j,1,0.8086947675074043,None,None,004,001,2,26,m,2021_Nov_08_1130,eye_tracking_exp,2021.2.3,85.01011008160881,
180,0,168,0,0,0,168,180,90,0,f,present,resp,freq_bottom,,,,,0,159,159,747,,,0.816497758690745,,,,,,,,,,2366.857843316293,None,2366.857843316293,None,f,1,0.6938133438488876,None,None,004,001,2,26,m,2021_Nov_08_1130,eye_tracking_exp,2021.2.3,85.01011008160881,
-168,0,180,180,180,90,180,180,12,180,None,present,inhibit,freq_bottom,,,,,0,160,160,941,,,0.786501811147109,,,,,,,,,,2368.4098892550974,None,2368.4098892550974,None,None,1,,None,None,004,001,2,26,m,2021_Nov_08_1130,eye_tracking_exp,2021.2.3,85.01011008160881,
180,0,168,0,0,168,180,0,90,180,f,present,resp,freq_bottom,,,,,0,161,161,782,,,0.9154631279274265,,,,,,,,,,2372.329510532825,None,2372.329510532825,None,f,1,0.6617377998209122,None,None,004,001,2,26,m,2021_Nov_08_1130,eye_tracking_exp,2021.2.3,85.01011008160881,
-12,180,180,180,180,0,270,0,12,0,j,present,resp,freq_bottom,,,,,0,162,162,644,,,0.7994480617089178,,,,,,,,,,2373.8471195730417,None,2373.8471195730417,None,j,1,1.1909652598715184,None,None,004,001,2,26,m,2021_Nov_08_1130,eye_tracking_exp,2021.2.3,85.01011008160881,
168,180,180,168,180,180,180,0,0,0,f,abs,resp,freq_bottom,,,,,0,163,163,246,,,1.0925104353600203,,,,,,,,,,2376.3889380062174,None,2376.3889380062174,None,f,1,0.9371892206017947,None,None,004,001,2,26,m,2021_Nov_08_1130,eye_tracking_exp,2021.2.3,85.01011008160881,
0,0,180,180,180,0,12,0,0,-12,j,abs,resp,freq_bottom,,,,,0,164,164,152,,,0.8058633884668776,,,,,,,,,,2378.389113077883,None,2378.389113077883,None,f,0,0.8089836357557942,2379.224716255616,None,004,001,2,26,m,2021_Nov_08_1130,eye_tracking_exp,2021.2.3,85.01011008160881,
0,168,0,0,0,0,168,0,0,0,f,abs,resp,freq_bottom,,,,,0,165,165,236,,,0.8326884038052376,,,,,,,,,,2380.5898903960824,None,2380.5898903960824,None,f,1,0.8803944628507452,None,None,004,001,2,26,m,2021_Nov_08_1130,eye_tracking_exp,2021.2.3,85.01011008160881,
180,0,-168,0,0,-168,180,0,180,270,f,present,resp,freq_bottom,,,,,0,166,166,852,,,0.8307857579020197,,,,,,,,,,2382.342854615961,None,2382.342854615961,None,f,1,0.7113054180808831,None,None,004,001,2,26,m,2021_Nov_08_1130,eye_tracking_exp,2021.2.3,85.01011008160881,
0,180,180,-12,180,180,12,0,180,0,j,abs,resp,freq_bottom,,,,,0,167,167,180,,,0.9755333590817974,,,,,,,,,,2386.543282394521,None,2386.543282394521,None,j,1,0.7663198780974199,None,None,004,001,2,26,m,2021_Nov_08_1130,eye_tracking_exp,2021.2.3,85.01011008160881,
12,180,180,180,-12,0,270,0,0,0,j,present,resp,freq_bottom,,,,,0,168,168,660,,,1.0366862747439225,,,,,,,,,,2388.6142298853974,None,2388.6142298853974,None,j,1,0.7110316422167671,None,None,004,001,2,26,m,2021_Nov_08_1130,eye_tracking_exp,2021.2.3,85.01011008160881,
0,180,180,180,180,90,0,-168,0,168,f,present,resp,freq_bottom,,,,,0,169,169,903,,,1.0494857287626196,,,,,,,,,,2390.4381397850666,None,2390.4381397850666,None,f,1,0.8711642620237399,None,None,004,001,2,26,m,2021_Nov_08_1130,eye_tracking_exp,2021.2.3,85.01011008160881,
180,0,180,0,180,-168,180,90,180,-168,f,present,resp,freq_bottom,,,,,0,170,170,797,,,1.008221666573888,,,,,,,,,,2392.605364014744,None,2392.605364014744,None,f,1,0.7839942683422123,None,None,004,001,2,26,m,2021_Nov_08_1130,eye_tracking_exp,2021.2.3,85.01011008160881,
180,180,180,168,180,180,270,0,168,180,f,present,resp,freq_bottom,,,,,0,171,171,752,,,0.8832311291631008,,,,,,,,,,2394.5686303570037,None,2394.5686303570037,None,f,1,0.9007574105635285,None,None,004,001,2,26,m,2021_Nov_08_1130,eye_tracking_exp,2021.2.3,85.01011008160881,
180,180,180,168,0,90,0,-168,0,0,f,present,resp,freq_bottom,,,,,0,172,172,907,,,0.919758935356818,,,,,,,,,,2396.439792703073,None,2396.439792703073,None,f,1,1.109125594730358,None,None,004,001,2,26,m,2021_Nov_08_1130,eye_tracking_exp,2021.2.3,85.01011008160881,
270,0,180,180,180,-12,180,180,-12,0,j,present,resp,freq_bottom,,,,,0,173,173,638,,,1.0300760826950708,,,,,,,,,,2398.629821224662,None,2398.629821224662,None,j,1,1.047724641071909,None,None,004,001,2,26,m,2021_Nov_08_1130,eye_tracking_exp,2021.2.3,85.01011008160881,
0,180,180,180,0,270,0,-168,0,-168,f,present,resp,freq_bottom,,,,,0,174,174,833,,,1.081425243213286,,,,,,,,,,2401.0640541949433,None,2401.0640541949433,None,f,1,1.2375297953622066,None,None,004,001,2,26,m,2021_Nov_08_1130,eye_tracking_exp,2021.2.3,85.01011008160881,
0,180,180,12,180,0,12,180,0,270,j,present,resp,freq_bottom,,,,,0,175,175,565,,,1.0735090912691305,,,,,,,,,,2403.4528506345887,None,2403.4528506345887,None,j,1,1.0076911842734262,None,None,004,001,2,26,m,2021_Nov_08_1130,eye_tracking_exp,2021.2.3,85.01011008160881,
0,180,180,-168,180,270,180,180,-168,180,f,present,resp,freq_bottom,,,,,0,176,176,787,,,1.0072886061969515,,,,,,,,,,2405.547268595252,None,2405.547268595252,None,f,1,0.7852221847879264,None,None,004,001,2,26,m,2021_Nov_08_1130,eye_tracking_exp,2021.2.3,85.01011008160881,
180,-12,180,180,180,180,270,180,180,-12,j,present,resp,freq_bottom,,,,,0,177,177,597,,,0.8244704838793464,,,,,,,,,,2407.2189654532285,None,2407.2189654532285,None,j,1,1.0015938607266435,None,None,004,001,2,26,m,2021_Nov_08_1130,eye_tracking_exp,2021.2.3,85.01011008160881,
180,180,180,90,0,-168,180,180,-168,180,f,present,resp,freq_bottom,,,,,0,178,178,848,,,0.7774362500944858,,,,,,,,,,2409.0545761771536,None,2409.0545761771536,None,f,1,1.022100789790784,None,None,004,001,2,26,m,2021_Nov_08_1130,eye_tracking_exp,2021.2.3,85.01011008160881,
180,180,180,168,180,180,180,180,180,168,f,abs,resp,freq_bottom,,,,,0,179,179,219,,,0.9988722677844253,,,,,,,,,,2411.3729578871153,None,2411.3729578871153,None,f,1,0.7516651722453389,None,None,004,001,2,26,m,2021_Nov_08_1130,eye_tracking_exp,2021.2.3,85.01011008160881,
0,180,180,180,90,12,180,180,12,0,j,present,resp,freq_bottom,,,,,0,180,180,568,,,0.9457248960937483,,,,,,,,,,2413.1154962874243,None,2413.1154962874243,None,j,1,1.1531733240954054,None,None,004,001,2,26,m,2021_Nov_08_1130,eye_tracking_exp,2021.2.3,85.01011008160881,
0,0,-168,0,0,0,0,0,-168,0,f,abs,resp,freq_bottom,,,,,0,181,181,282,,,0.9647469885880704,,,,,,,,,,2415.46765777353,None,2415.46765777353,None,f,1,0.7850537537706259,None,None,004,001,2,26,m,2021_Nov_08_1130,eye_tracking_exp,2021.2.3,85.01011008160881,
180,180,0,-12,0,180,0,-12,0,180,j,abs,resp,freq_bottom,,,,,0,182,182,123,,,1.078405691959805,,,,,,,,,,2417.373669643992,None,2417.373669643992,None,j,1,0.9110709427895927,None,None,004,001,2,26,m,2021_Nov_08_1130,eye_tracking_exp,2021.2.3,85.01011008160881,
12,0,180,0,180,180,180,180,-12,180,j,abs,resp,freq_bottom,,,,,0,183,183,157,,,0.7423595073018106,,,,,,,,,,2419.091561575875,None,2419.091561575875,None,j,1,0.8586801429846673,None,None,004,001,2,26,m,2021_Nov_08_1130,eye_tracking_exp,2021.2.3,85.01011008160881,
0,180,-168,0,0,270,0,0,12,180,None,present,inhibit,freq_bottom,,,,,0,184,184,955,,,0.735877743438186,,,,,,,,,,2420.9507269850947,None,2420.9507269850947,None,j,0,0.6770275932340155,2421.657052716795,None,004,001,2,26,m,2021_Nov_08_1130,eye_tracking_exp,2021.2.3,85.01011008160881,
180,0,180,180,180,90,180,12,180,-12,j,present,resp,freq_bottom,,,,,0,185,185,655,,,0.7656520966122292,,,,,,,,,,2422.9511332720976,None,2422.9511332720976,None,j,1,0.9805991457760683,None,None,004,001,2,26,m,2021_Nov_08_1130,eye_tracking_exp,2021.2.3,85.01011008160881,
180,180,12,0,-168,180,180,0,180,180,None,abs,inhibit,freq_bottom,,,,,0,186,186,462,,,0.9092997567657661,,,,,,,,,,2425.1516778657187,None,2425.1516778657187,None,None,1,,None,None,004,001,2,26,m,2021_Nov_08_1130,eye_tracking_exp,2021.2.3,85.01011008160881,
180,-12,0,180,0,-12,0,0,90,180,j,present,resp,freq_bottom,,,,,0,187,187,641,,,1.080228815541949,,,,,,,,,,2429.2459663337195,None,2429.2459663337195,None,j,1,0.8470611194570665,None,None,004,001,2,26,m,2021_Nov_08_1130,eye_tracking_exp,2021.2.3,85.01011008160881,
0,-168,0,0,-168,0,180,180,0,0,f,abs,resp,freq_bottom,,,,,0,188,188,302,,,0.9585009904039397,,,,,,,,,,2431.3056636589554,None,2431.3056636589554,None,f,1,0.7071625583957939,None,None,004,001,2,26,m,2021_Nov_08_1130,eye_tracking_exp,2021.2.3,85.01011008160881,
0,0,0,168,0,0,0,168,0,0,f,abs,resp,freq_bottom,,,,,0,189,189,249,,,0.7037430404401867,,,,,,,,,,2432.976905330601,None,2432.976905330601,None,f,1,1.0032196124411712,None,None,004,001,2,26,m,2021_Nov_08_1130,eye_tracking_exp,2021.2.3,85.01011008160881,
0,0,12,0,0,0,270,0,0,-12,j,present,resp,freq_bottom,,,,,0,190,190,652,,,0.9339699062805988,,,,,,,,,,2434.9663445851093,None,2434.9663445851093,None,j,1,0.7888295666543854,None,None,004,001,2,26,m,2021_Nov_08_1130,eye_tracking_exp,2021.2.3,85.01011008160881,
180,-168,180,180,180,168,0,180,180,0,f,abs,resp,freq_bottom,,,,,0,191,191,377,,,1.0554501006083457,,,,,,,,,,2437.3656761131915,None,2437.3656761131915,None,f,1,0.8693465351716441,None,None,004,001,2,26,m,2021_Nov_08_1130,eye_tracking_exp,2021.2.3,85.01011008160881,
12,0,0,0,-12,0,0,180,180,180,j,abs,resp,freq_bottom,,,,,0,192,192,156,,,1.015347489273874,,,,,,,,,,2439.3082963745983,None,2439.3082963745983,None,j,1,0.7827521650542622,None,None,004,001,2,26,m,2021_Nov_08_1130,eye_tracking_exp,2021.2.3,85.01011008160881,
0,0,0,168,180,168,0,0,0,0,f,abs,resp,freq_bottom,,,,,0,193,193,279,,,1.0800271862992712,,,,,,,,,,2441.213611278721,None,2441.213611278721,None,f,1,0.7494737579418143,None,None,004,001,2,26,m,2021_Nov_08_1130,eye_tracking_exp,2021.2.3,85.01011008160881,
180,-168,180,180,180,-168,0,0,180,90,f,present,resp,freq_bottom,,,,,0,194,194,851,,,0.9630549529001284,,,,,,,,,,2443.202087940912,None,2443.202087940912,None,f,1,0.8569976439030143,None,None,004,001,2,26,m,2021_Nov_08_1130,eye_tracking_exp,2021.2.3,85.01011008160881,
-12,0,0,0,-12,0,0,0,0,0,j,abs,resp,freq_bottom,,,,,0,195,195,86,,,0.7994827027757964,,,,,,,,,,2444.943363712293,None,2444.943363712293,None,j,1,0.843358051868563,None,None,004,001,2,26,m,2021_Nov_08_1130,eye_tracking_exp,2021.2.3,85.01011008160881,
180,180,-168,0,168,180,180,0,180,180,f,abs,resp,freq_bottom,,,,,0,196,196,392,,,1.073851183394152,,,,,,,,,,2447.1084620286165,None,2447.1084620286165,None,f,1,0.7106971949651779,None,None,004,001,2,26,m,2021_Nov_08_1130,eye_tracking_exp,2021.2.3,85.01011008160881,
0,180,-12,0,0,0,-12,180,270,180,j,present,resp,freq_bottom,,,,,0,197,197,607,,,1.070491141564748,,,,,,,,,,2448.944346226557,None,2448.944346226557,None,j,1,0.986779779290373,None,None,004,001,2,26,m,2021_Nov_08_1130,eye_tracking_exp,2021.2.3,85.01011008160881,
180,180,0,0,180,180,-168,180,180,12,None,abs,inhibit,freq_bottom,,,,,0,198,198,477,,,0.8135624521120374,,,,,,,,,,2450.803747076983,None,2450.803747076983,None,None,1,,None,None,004,001,2,26,m,2021_Nov_08_1130,eye_tracking_exp,2021.2.3,85.01011008160881,
0,0,0,180,12,90,0,180,0,12,j,present,resp,freq_bottom,,,,,0,199,199,549,,,1.0637435982082548,,,,,,,,,,2454.9003763738983,None,2454.9003763738983,None,j,1,0.7738334710520576,None,None,004,001,2,26,m,2021_Nov_08_1130,eye_tracking_exp,2021.2.3,85.01011008160881,
180,168,0,168,0,0,90,180,180,180,f,present,resp,freq_bottom,,,,,0,200,200,749,,,0.8798534297829511,,,,,,,,,,2456.5932879937973,None,2456.5932879937973,None,f,1,0.7770019663639687,None,None,004,001,2,26,m,2021_Nov_08_1130,eye_tracking_exp,2021.2.3,85.01011008160881,
0,0,0,12,0,180,0,-12,0,90,j,present,resp,freq_bottom,,,,,0,201,201,697,,,0.7674141312602407,,,,,,,,,,2458.1826444212966,None,2458.1826444212966,None,j,1,1.2364899300355319,None,None,004,001,2,26,m,2021_Nov_08_1130,eye_tracking_exp,2021.2.3,85.01011008160881,
-12,180,0,180,180,270,180,180,-12,180,j,present,resp,freq_bottom,,,,,0,202,202,591,,,0.9184159532497114,,,,,,,,,,2463.853102798159,None,2463.853102798159,None,j,1,1.0052392754023458,None,None,004,001,2,26,m,2021_Nov_08_1130,eye_tracking_exp,2021.2.3,85.01011008160881,
-12,180,180,-12,0,90,180,0,0,0,j,present,resp,freq_bottom,,,,,0,203,203,610,,,1.075213449576492,,,,,,,,,,2465.983318084993,None,2465.983318084993,None,j,1,0.9549801240609668,None,None,004,001,2,26,m,2021_Nov_08_1130,eye_tracking_exp,2021.2.3,85.01011008160881,
0,180,180,-12,0,90,180,180,-12,0,j,present,resp,freq_bottom,,,,,0,204,204,577,,,0.7652770839881147,,,,,,,,,,2467.761071245415,None,2467.761071245415,None,j,1,0.7923346221487009,None,None,004,001,2,26,m,2021_Nov_08_1130,eye_tracking_exp,2021.2.3,85.01011008160881,
180,-12,180,180,180,12,0,180,180,90,j,present,resp,freq_bottom,,,,,0,205,205,671,,,0.947795730369432,,,,,,,,,,2469.5602066932315,None,2469.5602066932315,None,j,1,1.1212656073894323,None,None,004,001,2,26,m,2021_Nov_08_1130,eye_tracking_exp,2021.2.3,85.01011008160881,
180,0,180,180,180,12,0,0,180,12,j,abs,resp,freq_bottom,,,,,0,206,206,65,,,0.7130318787443967,,,,,,,,,,2471.4432820624897,None,2471.4432820624897,None,j,1,0.98218143142185,None,None,004,001,2,26,m,2021_Nov_08_1130,eye_tracking_exp,2021.2.3,85.01011008160881,
0,-12,0,180,12,0,0,90,0,0,j,present,resp,freq_bottom,,,,,0,207,207,687,,,0.858551438629918,,,,,,,,,,2473.573464749772,None,2473.573464749772,None,j,1,0.7400262267674407,None,None,004,001,2,26,m,2021_Nov_08_1130,eye_tracking_exp,2021.2.3,85.01011008160881,
0,0,-12,0,0,0,12,0,0,0,j,abs,resp,freq_bottom,,,,,0,208,208,200,,,0.74433549228533,,,,,,,,,,2475.114838561285,None,2475.114838561285,None,j,1,0.8306626394423802,None,None,004,001,2,26,m,2021_Nov_08_1130,eye_tracking_exp,2021.2.3,85.01011008160881,
180,0,180,-12,180,0,180,0,180,168,None,abs,inhibit,freq_bottom,,,,,0,209,209,499,,,0.7455928412033606,,,,,,,,,,2478.1980371447735,None,2478.1980371447735,None,None,1,,None,None,004,001,2,26,m,2021_Nov_08_1130,eye_tracking_exp,2021.2.3,85.01011008160881,
12,180,0,180,180,0,180,12,0,180,j,abs,resp,freq_bottom,,,,,0,210,210,50,,,0.8396459542953798,,,,,,,,,,2482.058442242498,None,2482.058442242498,None,j,1,0.7662003464065492,None,None,004,001,2,26,m,2021_Nov_08_1130,eye_tracking_exp,2021.2.3,85.01011008160881,
0,0,-12,0,0,0,0,270,0,168,None,present,inhibit,freq_bottom,,,,,0,211,211,1002,,,0.816833287609137,,,,,,,,,,2483.6842654943703,None,2483.6842654943703,None,None,1,,None,None,004,001,2,26,m,2021_Nov_08_1130,eye_tracking_exp,2021.2.3,85.01011008160881,
0,-12,0,0,0,0,-12,0,90,0,j,present,resp,freq_bottom,,,,,0,212,212,600,,,0.9743971817411988,,,,,,,,,,2487.683382288,None,2487.683382288,None,j,1,0.9813148266748613,None,None,004,001,2,26,m,2021_Nov_08_1130,eye_tracking_exp,2021.2.3,85.01011008160881,
180,0,180,0,-168,180,12,180,180,0,None,abs,inhibit,freq_bottom,,,,,0,213,213,468,,,0.7256050996422102,,,,,,,,,,2489.6727273660254,None,2489.6727273660254,None,None,1,,None,None,004,001,2,26,m,2021_Nov_08_1130,eye_tracking_exp,2021.2.3,85.01011008160881,
180,0,180,-12,0,0,12,180,0,270,j,present,resp,freq_bottom,,,,,0,214,214,705,,,0.9243292654783295,,,,,,,,,,2493.603433095004,None,2493.603433095004,None,j,1,0.997307925228597,None,None,004,001,2,26,m,2021_Nov_08_1130,eye_tracking_exp,2021.2.3,85.01011008160881,
0,0,0,180,180,180,168,180,180,168,f,abs,resp,freq_bottom,,,,,0,215,215,267,,,1.0531270276455347,,,,,,,,,,2495.7099907664797,None,2495.7099907664797,None,f,1,0.8588657793206949,None,None,004,001,2,26,m,2021_Nov_08_1130,eye_tracking_exp,2021.2.3,85.01011008160881,
180,180,180,180,-168,0,0,12,0,180,None,abs,inhibit,freq_bottom,,,,,0,216,216,467,,,0.764400188904633,,,,,,,,,,2497.580914954713,None,2497.580914954713,None,None,1,,None,None,004,001,2,26,m,2021_Nov_08_1130,eye_tracking_exp,2021.2.3,85.01011008160881,
180,-12,0,180,180,180,12,180,0,180,j,abs,resp,freq_bottom,,,,,0,217,217,199,,,1.0928626640563799,,,,,,,,,,2502.678445568861,None,2502.678445568861,None,j,1,0.7534548272597021,None,None,004,001,2,26,m,2021_Nov_08_1130,eye_tracking_exp,2021.2.3,85.01011008160881,
180,180,168,0,0,0,90,0,0,-168,f,present,resp,freq_bottom,,,,,0,218,218,862,,,1.070662022327919,,,,,,,,,,2504.7363459947373,None,2504.7363459947373,None,f,1,0.8081713635947381,None,None,004,001,2,26,m,2021_Nov_08_1130,eye_tracking_exp,2021.2.3,85.01011008160881,
180,-168,0,0,168,90,0,0,180,180,f,present,resp,freq_bottom,,,,,0,219,219,876,,,0.921499837759453,,,,,,,,,,2506.585304725819,None,2506.585304725819,None,f,1,0.7186789537063305,None,None,004,001,2,26,m,2021_Nov_08_1130,eye_tracking_exp,2021.2.3,85.01011008160881,
270,180,12,180,180,0,180,-12,180,180,j,present,resp,freq_bottom,,,,,0,220,220,696,,,0.7919825841439505,,,,,,,,,,2508.1607809886664,None,2508.1607809886664,None,j,1,1.2872024566240725,None,None,004,001,2,26,m,2021_Nov_08_1130,eye_tracking_exp,2021.2.3,85.01011008160881,
0,0,12,0,0,0,90,0,0,168,None,present,inhibit,freq_bottom,,,,,0,221,221,932,,,1.0407753057519802,,,,,,,,,,2510.549658625343,None,2510.549658625343,None,None,1,,None,None,004,001,2,26,m,2021_Nov_08_1130,eye_tracking_exp,2021.2.3,85.01011008160881,
0,0,-12,0,0,0,270,0,12,0,j,present,resp,freq_bottom,,,,,0,222,222,646,,,0.734965112240291,,,,,,,,,,2514.2924146578443,None,2514.2924146578443,None,j,1,0.7558342926822661,None,None,004,001,2,26,m,2021_Nov_08_1130,eye_tracking_exp,2021.2.3,85.01011008160881,
180,0,180,0,180,-12,0,-12,180,270,j,present,resp,freq_bottom,,,,,0,223,223,637,,,0.8609987529087634,,,,,,,,,,2515.9646110737667,None,2515.9646110737667,None,j,1,0.7945408269897598,None,None,004,001,2,26,m,2021_Nov_08_1130,eye_tracking_exp,2021.2.3,85.01011008160881,
180,168,180,180,0,180,180,12,180,0,None,abs,inhibit,freq_bottom,,,,,0,224,224,445,,,1.0988563733553238,,,,,,,,,,2518.1521985530017,None,2518.1521985530017,None,None,1,,None,None,004,001,2,26,m,2021_Nov_08_1130,eye_tracking_exp,2021.2.3,85.01011008160881,
180,180,0,180,12,0,0,12,0,90,j,present,resp,freq_bottom,,,,,0,225,225,551,,,1.0004730600546452,,,,,,,,,,2522.212424413563,None,2522.212424413563,None,j,1,0.8028132650651969,None,None,004,001,2,26,m,2021_Nov_08_1130,eye_tracking_exp,2021.2.3,85.01011008160881,
180,180,180,12,180,168,0,0,90,0,None,present,inhibit,freq_bottom,,,,,0,226,226,993,,,0.8228419058333012,,,,,,,,,,2524.118835628533,None,2524.118835628533,None,None,1,,None,None,004,001,2,26,m,2021_Nov_08_1130,eye_tracking_exp,2021.2.3,85.01011008160881,
0,0,12,0,0,90,0,0,12,0,j,present,resp,freq_bottom,,,,,0,227,227,506,,,0.7417571076493115,,,,,,,,,,2528.203092490059,None,2528.203092490059,None,j,1,0.8922054615177331,None,None,004,001,2,26,m,2021_Nov_08_1130,eye_tracking_exp,2021.2.3,85.01011008160881,
180,168,180,0,180,180,180,0,180,12,None,abs,inhibit,freq_bottom,,,,,0,228,228,443,,,0.7559684474431435,,,,,,,,,,2530.146016410252,None,2530.146016410252,None,None,1,,None,None,004,001,2,26,m,2021_Nov_08_1130,eye_tracking_exp,2021.2.3,85.01011008160881,
0,168,0,0,0,0,0,0,168,0,f,abs,resp,freq_bottom,,,,,0,229,229,234,,,0.7747618952061534,,,,,,,,,,2533.947995867102,None,2533.947995867102,None,f,1,1.690351150724382,None,None,004,001,2,26,m,2021_Nov_08_1130,eye_tracking_exp,2021.2.3,85.01011008160881,
180,0,0,168,0,12,0,90,180,180,None,present,inhibit,freq_bottom,,,,,0,230,230,965,,,1.0372186615616825,,,,,,,,,,2536.9355509882644,None,2536.9355509882644,None,None,1,,None,None,004,001,2,26,m,2021_Nov_08_1130,eye_tracking_exp,2021.2.3,85.01011008160881,
90,0,168,180,180,180,180,-168,0,0,f,present,resp,freq_bottom,,,,,0,231,231,886,,,0.8122118946145651,,,,,,,,,,2541.6424592860276,None,2541.6424592860276,None,f,1,1.3399971286507935,None,None,004,001,2,26,m,2021_Nov_08_1130,eye_tracking_exp,2021.2.3,85.01011008160881,
-168,180,0,0,0,0,-168,0,0,0,f,abs,resp,freq_bottom,,,,,0,232,232,338,,,0.929172637335418,,,,,,,,,,2543.960579897728,None,2543.960579897728,None,f,1,0.7979139750405011,None,None,004,001,2,26,m,2021_Nov_08_1130,eye_tracking_exp,2021.2.3,85.01011008160881,
-168,0,12,0,0,0,270,180,180,180,None,present,inhibit,freq_bottom,,,,,0,233,233,938,,,0.8503013896560545,,,,,,,,,,2545.7036106116375,None,2545.7036106116375,None,None,1,,None,None,004,001,2,26,m,2021_Nov_08_1130,eye_tracking_exp,2021.2.3,85.01011008160881,
12,0,0,180,180,12,180,180,90,0,j,present,resp,freq_bottom,,,,,0,234,234,570,,,0.8311763071320033,,,,,,,,,,2551.9859686096497,None,2551.9859686096497,None,j,1,0.7557594344525569,None,None,004,001,2,26,m,2021_Nov_08_1130,eye_tracking_exp,2021.2.3,85.01011008160881,
0,0,-168,0,180,180,180,0,0,12,None,abs,inhibit,freq_bottom,,,,,0,235,235,450,,,1.0769582441138785,,,,,,,,,,2553.8805941811606,None,2553.8805941811606,None,None,1,,None,None,004,001,2,26,m,2021_Nov_08_1130,eye_tracking_exp,2021.2.3,85.01011008160881,
180,180,180,180,180,168,180,90,180,-168,f,present,resp,freq_bottom,,,,,0,236,236,867,,,1.0015961798545365,,,,,,,,,,2562.881465615472,None,2562.881465615472,None,f,1,0.8673045354807982,None,None,004,001,2,26,m,2021_Nov_08_1130,eye_tracking_exp,2021.2.3,85.01011008160881,
0,0,0,168,0,0,0,180,0,168,f,abs,resp,freq_bottom,,,,,0,237,237,247,,,0.9102604892709958,,,,,,,,,,2564.9643855935337,None,2564.9643855935337,None,f,1,0.7363895656762907,None,None,004,001,2,26,m,2021_Nov_08_1130,eye_tracking_exp,2021.2.3,85.01011008160881,
90,0,12,0,0,0,12,0,0,0,j,present,resp,freq_bottom,,,,,0,238,238,564,,,0.8787605604538197,,,,,,,,,,2566.8232295349517,None,2566.8232295349517,None,j,1,0.7816036345557222,None,None,004,001,2,26,m,2021_Nov_08_1130,eye_tracking_exp,2021.2.3,85.01011008160881,
0,-12,0,0,0,0,0,0,-12,0,j,abs,resp,freq_bottom,,,,,0,239,239,94,,,1.0535170976083021,,,,,,,,,,2568.7646662515253,None,2568.7646662515253,None,j,1,0.8402094785087684,None,None,004,001,2,26,m,2021_Nov_08_1130,eye_tracking_exp,2021.2.3,85.01011008160881,
180,0,0,180,180,168,180,90,180,168,f,present,resp,freq_bottom,,,,,0,240,240,727,,,0.7102186009644196,,,,,,,,,,2570.529781652429,None,2570.529781652429,None,f,1,0.819059613841091,None,None,004,001,2,26,m,2021_Nov_08_1130,eye_tracking_exp,2021.2.3,85.01011008160881,
180,12,0,0,0,0,12,0,180,180,j,abs,resp,freq_bottom,,,,,0,241,241,26,,,0.7140208938890672,,,,,,,,,,2572.3063078019477,None,2572.3063078019477,None,j,1,0.7386440661484812,None,None,004,001,2,26,m,2021_Nov_08_1130,eye_tracking_exp,2021.2.3,85.01011008160881,
168,180,180,-168,180,180,0,0,180,0,f,abs,resp,freq_bottom,,,,,0,242,242,386,,,0.7822253868167266,,,,,,,,,,2573.872304839615,None,2573.872304839615,None,j,0,1.0926456158358633,2574.9797001384577,None,004,001,2,26,m,2021_Nov_08_1130,eye_tracking_exp,2021.2.3,85.01011008160881,
180,180,0,-168,0,-168,0,90,0,180,f,present,resp,freq_bottom,,,,,0,243,243,825,,,1.0968648475216625,,,,,,,,,,2576.613007402211,None,2576.613007402211,None,f,1,0.7829522900792654,None,None,004,001,2,26,m,2021_Nov_08_1130,eye_tracking_exp,2021.2.3,85.01011008160881,
0,180,12,0,0,0,180,180,180,12,j,abs,resp,freq_bottom,,,,,0,244,244,8,,,0.8080849466891233,,,,,,,,,,2578.4130390358496,None,2578.4130390358496,None,j,1,0.806962161706906,None,None,004,001,2,26,m,2021_Nov_08_1130,eye_tracking_exp,2021.2.3,85.01011008160881,
168,180,0,180,180,180,168,180,0,180,f,abs,resp,freq_bottom,,,,,0,245,245,229,,,0.8782082416967947,,,,,,,,,,2580.3072169672214,None,2580.3072169672214,None,f,1,0.7049014172716852,None,None,004,001,2,26,m,2021_Nov_08_1130,eye_tracking_exp,2021.2.3,85.01011008160881,
180,0,180,12,180,90,180,180,180,-12,j,present,resp,freq_bottom,,,,,0,246,246,653,,,0.815305149174401,,,,,,,,,,2581.9077903571124,None,2581.9077903571124,None,j,1,0.9442325348427403,None,None,004,001,2,26,m,2021_Nov_08_1130,eye_tracking_exp,2021.2.3,85.01011008160881,
-168,0,0,0,0,90,0,12,180,180,None,present,inhibit,freq_bottom,,,,,0,247,247,942,,,1.089648747954067,,,,,,,,,,2584.0030673763304,None,2584.0030673763304,None,None,1,,None,None,004,001,2,26,m,2021_Nov_08_1130,eye_tracking_exp,2021.2.3,85.01011008160881,
0,0,-12,0,0,0,-12,0,90,0,j,present,resp,freq_bottom,,,,,0,248,248,634,,,0.924165207401514,,,,,,,,,,2587.94709696465,None,2587.94709696465,None,j,1,0.7941239753163245,None,None,004,001,2,26,m,2021_Nov_08_1130,eye_tracking_exp,2021.2.3,85.01011008160881,
0,0,0,0,0,168,180,180,168,0,f,abs,resp,freq_bottom,,,,,0,249,249,274,,,0.8602870445313122,,,,,,,,,,2589.651330288092,None,2589.651330288092,None,f,1,0.8648145937986556,None,None,004,001,2,26,m,2021_Nov_08_1130,eye_tracking_exp,2021.2.3,85.01011008160881,
0,180,-168,0,180,0,180,-168,180,90,f,present,resp,freq_bottom,,,,,0,250,250,836,,,0.9023730604938448,,,,,,,,,,2591.6771548680936,None,2591.6771548680936,None,f,1,0.7420501155993406,None,None,004,001,2,26,m,2021_Nov_08_1130,eye_tracking_exp,2021.2.3,85.01011008160881,
180,0,180,0,180,12,180,90,0,168,None,present,inhibit,freq_bottom,,,,,0,251,251,937,,,0.8270459056928654,,,,,,,,,,2594.663684914467,None,2594.663684914467,None,None,1,,None,None,004,001,2,26,m,2021_Nov_08_1130,eye_tracking_exp,2021.2.3,85.01011008160881,
0,0,12,0,0,0,-168,0,90,0,None,present,inhibit,freq_bottom,,,,,0,252,252,984,,,0.8286781193510024,,,,,,,,,,2598.5120577591606,None,2598.5120577591606,None,None,1,,None,None,004,001,2,26,m,2021_Nov_08_1130,eye_tracking_exp,2021.2.3,85.01011008160881,
0,0,0,12,0,0,270,180,180,12,j,present,resp,freq_bottom,,,,,0,253,253,541,,,1.0008316995923399,,,,,,,,,,2603.291172554558,None,2603.291172554558,None,j,1,0.9201855359478941,None,None,004,001,2,26,m,2021_Nov_08_1130,eye_tracking_exp,2021.2.3,85.01011008160881,
0,180,180,180,180,12,0,0,-168,0,None,abs,inhibit,freq_bottom,,,,,0,254,254,426,,,0.8141436828125141,,,,,,,,,,2605.0669021279955,None,2605.0669021279955,None,None,1,,None,None,004,001,2,26,m,2021_Nov_08_1130,eye_tracking_exp,2021.2.3,85.01011008160881,
12,0,-12,0,0,0,270,0,0,0,j,present,resp,freq_bottom,,,,,0,255,255,658,,,1.0966075060125475,,,,,,,,,,2609.1877079164697,None,2609.1877079164697,None,j,1,0.8627076968514302,None,None,004,001,2,26,m,2021_Nov_08_1130,eye_tracking_exp,2021.2.3,85.01011008160881,
180,12,0,0,180,180,-168,180,180,180,None,abs,inhibit,freq_bottom,,,,,0,256,256,479,,,0.8375529813408437,,,,,,,,,,2611.021176125416,None,2611.021176125416,None,None,1,,None,None,004,001,2,26,m,2021_Nov_08_1130,eye_tracking_exp,2021.2.3,85.01011008160881,
0,0,-168,180,180,180,90,0,0,12,None,present,inhibit,freq_bottom,,,,,0,257,257,954,,,1.0404497222658189,,,,,,,,,,2615.340576571367,None,2615.340576571367,None,None,1,,None,None,004,001,2,26,m,2021_Nov_08_1130,eye_tracking_exp,2021.2.3,85.01011008160881,
180,180,0,180,180,-12,0,12,180,90,j,present,resp,freq_bottom,,,,,0,258,258,707,,,1.0672713587798452,,,,,,,,,,2627.5535017502643,None,2627.5535017502643,None,j,1,1.2322097296455468,None,None,004,001,2,26,m,2021_Nov_08_1130,eye_tracking_exp,2021.2.3,85.01011008160881,
-12,0,0,0,-12,0,90,0,0,0,j,present,resp,freq_bottom,,,,,0,259,259,590,,,0.942077114101878,,,,,,,,,,2630.049564901632,None,2630.049564901632,None,j,1,0.7361731408727792,None,None,004,001,2,26,m,2021_Nov_08_1130,eye_tracking_exp,2021.2.3,85.01011008160881,
0,180,0,180,270,180,-168,180,168,180,f,present,resp,freq_bottom,,,,,0,260,260,859,,,0.7977917929778902,,,,,,,,,,2631.6363375128167,None,2631.6363375128167,None,f,1,1.0534217145686853,None,None,004,001,2,26,m,2021_Nov_08_1130,eye_tracking_exp,2021.2.3,85.01011008160881,
180,0,180,0,12,180,180,0,-12,0,j,abs,resp,freq_bottom,,,,,0,261,261,186,,,1.07949056530186,,,,,,,,,,2634.095354292229,None,2634.095354292229,None,j,1,0.8664352141022391,None,None,004,001,2,26,m,2021_Nov_08_1130,eye_tracking_exp,2021.2.3,85.01011008160881,
12,0,0,0,0,-12,180,0,0,0,j,abs,resp,freq_bottom,,,,,0,262,262,206,,,1.0640585328252943,,,,,,,,,,2636.3088526799093,None,2636.3088526799093,None,j,1,0.7170215079841,None,None,004,001,2,26,m,2021_Nov_08_1130,eye_tracking_exp,2021.2.3,85.01011008160881,
-168,0,0,0,-168,0,0,0,0,0,f,abs,resp,freq_bottom,,,,,0,263,263,296,,,1.0571286373817355,,,,,,,,,,2638.119910810041,None,2638.119910810041,None,f,1,0.7129483751141379,2638.851800325332,None,004,001,2,26,m,2021_Nov_08_1130,eye_tracking_exp,2021.2.3,85.01011008160881,
180,168,180,0,180,270,180,180,168,180,f,present,resp,freq_bottom,,,,,0,264,264,715,,,1.0171544597500306,,,,,,,,,,2640.4026717747347,None,2640.4026717747347,None,f,1,1.0062057917384664,None,None,004,001,2,26,m,2021_Nov_08_1130,eye_tracking_exp,2021.2.3,85.01011008160881,
180,180,-12,0,0,0,12,0,90,180,j,present,resp,freq_bottom,,,,,0,265,265,704,,,1.0301711750994542,,,,,,,,,,2642.70901398732,None,2642.70901398732,None,j,1,0.9079597985419241,None,None,004,001,2,26,m,2021_Nov_08_1130,eye_tracking_exp,2021.2.3,85.01011008160881,
0,-12,0,180,180,180,-12,180,0,180,j,abs,resp,freq_bottom,,,,,0,266,266,129,,,0.9614900121433767,,,,,,,,,,2644.6405184053147,None,2644.6405184053147,None,j,1,0.7683727443072712,None,None,004,001,2,26,m,2021_Nov_08_1130,eye_tracking_exp,2021.2.3,85.01011008160881,
-12,180,180,180,180,90,0,-12,0,0,j,present,resp,freq_bottom,,,,,0,267,267,592,,,0.8161768383684942,,,,,,,,,,2646.2985862359255,None,2646.2985862359255,None,j,1,0.7903517846043542,None,None,004,001,2,26,m,2021_Nov_08_1130,eye_tracking_exp,2021.2.3,85.01011008160881,
180,180,180,180,180,-168,180,0,180,-168,f,abs,resp,freq_bottom,,,,,0,268,268,293,,,0.7514359714871646,,,,,,,,,,2647.922448081441,None,2647.922448081441,None,f,1,0.7346189270647301,None,None,004,001,2,26,m,2021_Nov_08_1130,eye_tracking_exp,2021.2.3,85.01011008160881,
0,168,180,180,0,0,90,0,12,0,None,present,inhibit,freq_bottom,,,,,0,269,269,948,,,0.9436787680403551,,,,,,,,,,2649.804999744938,None,2649.804999744938,None,None,1,,None,None,004,001,2,26,m,2021_Nov_08_1130,eye_tracking_exp,2021.2.3,85.01011008160881,
180,0,168,180,180,168,0,180,180,180,f,abs,resp,freq_bottom,,,,,0,270,270,244,,,1.054162467040643,,,,,,,,,,2653.865068040999,None,2653.865068040999,None,f,1,0.7590245210267312,None,None,004,001,2,26,m,2021_Nov_08_1130,eye_tracking_exp,2021.2.3,85.01011008160881,
180,180,180,168,0,0,0,12,0,180,None,abs,inhibit,freq_bottom,,,,,0,271,271,459,,,0.886946499884234,,,,,,,,,,2655.5832150341885,None,2655.5832150341885,None,None,1,,None,None,004,001,2,26,m,2021_Nov_08_1130,eye_tracking_exp,2021.2.3,85.01011008160881,
168,0,180,0,180,90,180,180,-168,180,f,present,resp,freq_bottom,,,,,0,272,272,871,,,0.7330762320666856,,,,,,,,,,2659.325895302918,None,2659.325895302918,None,f,1,1.2823523677743651,None,None,004,001,2,26,m,2021_Nov_08_1130,eye_tracking_exp,2021.2.3,85.01011008160881,
0,180,180,180,180,-12,180,180,12,0,j,abs,resp,freq_bottom,,,,,0,273,273,204,,,1.0664624996017738,,,,,,,,,,2661.7143005479447,None,2661.7143005479447,None,j,1,0.7018868642880989,None,None,004,001,2,26,m,2021_Nov_08_1130,eye_tracking_exp,2021.2.3,85.01011008160881,
12,180,0,0,180,270,180,12,180,180,j,present,resp,freq_bottom,,,,,0,274,274,554,,,0.7146684515167541,,,,,,,,,,2663.3615510625186,None,2663.3615510625186,None,j,1,0.9106709945863258,None,None,004,001,2,26,m,2021_Nov_08_1130,eye_tracking_exp,2021.2.3,85.01011008160881,
180,0,180,0,0,12,180,180,180,168,None,abs,inhibit,freq_bottom,,,,,0,275,275,503,,,1.0187099378491806,,,,,,,,,,2665.5739483097896,None,2665.5739483097896,None,None,1,,None,None,004,001,2,26,m,2021_Nov_08_1130,eye_tracking_exp,2021.2.3,85.01011008160881,
-168,0,168,0,0,0,0,180,0,180,f,abs,resp,freq_bottom,,,,,0,276,276,379,,,1.0977735813714253,,,,,,,,,,2672.06946240019,None,2672.06946240019,None,f,1,0.8099329467731877,None,None,004,001,2,26,m,2021_Nov_08_1130,eye_tracking_exp,2021.2.3,85.01011008160881,
180,180,-168,0,0,270,0,180,-168,180,f,present,resp,freq_bottom,,,,,0,277,277,815,,,0.9115032372725517,,,,,,,,,,2674.1183475408016,None,2674.1183475408016,None,f,1,0.6809718371332565,None,None,004,001,2,26,m,2021_Nov_08_1130,eye_tracking_exp,2021.2.3,85.01011008160881,
180,0,180,0,180,-12,0,-12,180,0,j,abs,resp,freq_bottom,,,,,0,278,278,133,,,0.9325197895883228,,,,,,,,,,2675.8247076831412,None,2675.8247076831412,None,j,1,0.9107497768363828,None,None,004,001,2,26,m,2021_Nov_08_1130,eye_tracking_exp,2021.2.3,85.01011008160881,
180,12,0,180,180,168,0,0,90,0,None,present,inhibit,freq_bottom,,,,,0,279,279,991,,,0.8445705180576994,,,,,,,,,,2677.8354196543296,None,2677.8354196543296,None,None,1,,None,None,004,001,2,26,m,2021_Nov_08_1130,eye_tracking_exp,2021.2.3,85.01011008160881,
-168,180,180,0,168,180,180,0,180,180,f,abs,resp,freq_bottom,,,,,0,280,280,394,,,0.939203702864367,,,,,,,,,,2682.2721591679147,None,2682.2721591679147,None,f,1,0.7344806808177964,None,None,004,001,2,26,m,2021_Nov_08_1130,eye_tracking_exp,2021.2.3,85.01011008160881,
-12,180,0,180,0,0,180,-12,0,270,j,present,resp,freq_bottom,,,,,0,281,281,624,,,0.9567338671930193,,,,,,,,,,2684.01355235805,None,2684.01355235805,None,j,1,0.8650038523082912,None,None,004,001,2,26,m,2021_Nov_08_1130,eye_tracking_exp,2021.2.3,85.01011008160881,
180,180,180,0,-168,0,0,0,168,0,f,abs,resp,freq_bottom,,,,,0,282,282,354,,,0.8512864856033027,,,,,,,,,,2685.9788848478183,None,2685.9788848478183,None,f,1,0.7396812148472236,None,None,004,001,2,26,m,2021_Nov_08_1130,eye_tracking_exp,2021.2.3,85.01011008160881,
12,180,180,12,180,180,180,0,0,0,j,abs,resp,freq_bottom,,,,,0,283,283,36,,,0.9367039522185197,,,,,,,,,,2687.709035720354,None,2687.709035720354,None,j,1,0.9295823567081243,None,None,004,001,2,26,m,2021_Nov_08_1130,eye_tracking_exp,2021.2.3,85.01011008160881,
-12,180,0,180,0,0,180,-12,180,0,j,abs,resp,freq_bottom,,,,,0,284,284,120,,,1.0681313915953454,,,,,,,,,,2689.9801782652157,None,2689.9801782652157,None,j,1,0.7544666207522823,None,None,004,001,2,26,m,2021_Nov_08_1130,eye_tracking_exp,2021.2.3,85.01011008160881,
0,0,12,180,180,12,0,0,180,180,j,abs,resp,freq_bottom,,,,,0,285,285,34,,,0.944553072683503,,,,,,,,,,2691.992257002792,None,2691.992257002792,None,j,1,0.9023919158607896,None,None,004,001,2,26,m,2021_Nov_08_1130,eye_tracking_exp,2021.2.3,85.01011008160881,
180,-168,0,180,180,180,-168,180,90,180,f,present,resp,freq_bottom,,,,,0,286,286,843,,,1.0127994313089703,,,,,,,,,,2693.968737633677,None,2693.968737633677,None,f,1,0.9419777325201721,None,None,004,001,2,26,m,2021_Nov_08_1130,eye_tracking_exp,2021.2.3,85.01011008160881,
0,180,0,12,180,0,180,0,-168,180,None,abs,inhibit,freq_bottom,,,,,0,287,287,423,,,0.8208596325023136,,,,,,,,,,2695.9947759218503,None,2695.9947759218503,None,None,1,,None,None,004,001,2,26,m,2021_Nov_08_1130,eye_tracking_exp,2021.2.3,85.01011008160881,
12,180,180,12,180,180,180,90,180,180,j,present,resp,freq_bottom,,,,,0,288,288,519,,,0.9016310328225138,,,,,,,,,,2699.9138303295967,None,2699.9138303295967,None,j,1,0.7399764218989731,None,None,004,001,2,26,m,2021_Nov_08_1130,eye_tracking_exp,2021.2.3,85.01011008160881,
180,180,12,0,0,0,0,180,-12,180,j,abs,resp,freq_bottom,,,,,0,289,289,171,,,0.7714710323684861,,,,,,,,,,2701.5358629780476,None,2701.5358629780476,None,j,1,0.894062126722929,None,None,004,001,2,26,m,2021_Nov_08_1130,eye_tracking_exp,2021.2.3,85.01011008160881,
180,-12,180,12,0,180,90,180,180,180,j,present,resp,freq_bottom,,,,,0,290,290,665,,,1.0055418001304686,,,,,,,,,,2703.690512836225,None,2703.690512836225,None,j,1,0.7392423282908567,None,None,004,001,2,26,m,2021_Nov_08_1130,eye_tracking_exp,2021.2.3,85.01011008160881,
180,180,180,-12,0,0,0,270,180,12,j,present,resp,freq_bottom,,,,,0,291,291,681,,,0.8984003441066271,,,,,,,,,,2705.418882203634,None,2705.418882203634,None,j,1,0.8349838911199186,None,None,004,001,2,26,m,2021_Nov_08_1130,eye_tracking_exp,2021.2.3,85.01011008160881,
180,-168,180,0,180,90,180,180,168,0,f,present,resp,freq_bottom,,,,,0,292,292,855,,,1.0990917564991782,,,,,,,,,,2707.477731638679,None,2707.477731638679,None,f,1,1.256116369359006,None,None,004,001,2,26,m,2021_Nov_08_1130,eye_tracking_exp,2021.2.3,85.01011008160881,
180,-12,180,0,180,-12,0,270,180,180,j,present,resp,freq_bottom,,,,,0,293,293,601,,,0.7053206197129921,,,,,,,,,,2714.172814750935,None,2714.172814750935,None,j,1,0.8012403366992658,None,None,004,001,2,26,m,2021_Nov_08_1130,eye_tracking_exp,2021.2.3,85.01011008160881,
0,-168,180,0,180,180,180,90,180,-168,f,present,resp,freq_bottom,,,,,0,294,294,791,,,0.9890214991792201,,,,,,,,,,2715.997493758545,None,2715.997493758545,None,f,1,0.8155240717260313,None,None,004,001,2,26,m,2021_Nov_08_1130,eye_tracking_exp,2021.2.3,85.01011008160881,
180,180,-168,0,0,0,270,0,168,180,f,present,resp,freq_bottom,,,,,0,295,295,856,,,0.8490234467734001,,,,,,,,,,2717.8907426026944,None,2717.8907426026944,None,f,1,0.8742575972555642,None,None,004,001,2,26,m,2021_Nov_08_1130,eye_tracking_exp,2021.2.3,85.01011008160881,
12,0,-12,0,0,0,0,0,0,0,j,abs,resp,freq_bottom,,,,,0,296,296,154,,,0.9041149189360845,,,,,,,,,,2719.949962706716,None,2719.949962706716,None,j,1,1.0711444004446093,None,None,004,001,2,26,m,2021_Nov_08_1130,eye_tracking_exp,2021.2.3,85.01011008160881,
0,180,0,0,0,0,168,0,168,180,f,abs,resp,freq_bottom,,,,,0,297,297,266,,,0.7888582376317299,,,,,,,,,,2722.056048590235,None,2722.056048590235,None,f,1,1.3330630832788302,None,None,004,001,2,26,m,2021_Nov_08_1130,eye_tracking_exp,2021.2.3,85.01011008160881,
168,0,0,0,0,168,0,0,0,90,f,present,resp,freq_bottom,,,,,0,298,298,734,,,0.950575977798195,,,,,,,,,,2724.633635674052,None,2724.633635674052,None,f,1,0.9955164591283392,None,None,004,001,2,26,m,2021_Nov_08_1130,eye_tracking_exp,2021.2.3,85.01011008160881,
0,0,180,0,-168,180,180,-168,180,90,f,present,resp,freq_bottom,,,,,0,299,299,838,,,1.0416565080047884,,,,,,,,,,2726.7179698085893,None,2726.7179698085893,None,f,1,0.8631493000375485,None,None,004,001,2,26,m,2021_Nov_08_1130,eye_tracking_exp,2021.2.3,85.01011008160881,
168,180,0,180,180,180,0,180,168,180,f,abs,resp,freq_bottom,,,,,0,300,300,227,,,1.0761794034101912,,,,,,,,,,2728.7308004487877,None,2728.7308004487877,None,f,1,0.7704298363842099,None,None,004,001,2,26,m,2021_Nov_08_1130,eye_tracking_exp,2021.2.3,85.01011008160881,
180,90,180,-168,180,180,168,0,180,0,f,present,resp,freq_bottom,,,,,0,301,301,894,,,0.7798324843498993,,,,,,,,,,2730.575887077568,None,2730.575887077568,None,f,1,1.244361816212404,None,None,004,001,2,26,m,2021_Nov_08_1130,eye_tracking_exp,2021.2.3,85.01011008160881,
180,0,-12,0,0,0,-12,0,180,180,j,abs,resp,freq_bottom,,,,,0,302,302,130,,,0.8245693446269505,,,,,,,,,,2732.8820518037064,None,2732.8820518037064,None,j,1,1.0501744370085362,None,None,004,001,2,26,m,2021_Nov_08_1130,eye_tracking_exp,2021.2.3,85.01011008160881,
0,0,0,12,0,0,0,12,0,270,j,present,resp,freq_bottom,,,,,0,303,303,543,,,0.836634026367391,,,,,,,,,,2734.823883035224,None,2734.823883035224,None,j,1,1.1081322139471013,None,None,004,001,2,26,m,2021_Nov_08_1130,eye_tracking_exp,2021.2.3,85.01011008160881,
0,0,-12,0,0,0,0,0,-168,0,None,abs,inhibit,freq_bottom,,,,,0,304,304,492,,,0.9504878128168963,,,,,,,,,,2736.943265309941,None,2736.943265309941,None,None,1,,None,None,004,001,2,26,m,2021_Nov_08_1130,eye_tracking_exp,2021.2.3,85.01011008160881,
180,180,180,0,180,12,180,90,180,12,j,present,resp,freq_bottom,,,,,0,305,305,517,,,0.9148334378011229,,,,,,,,,,2741.8396428055057,None,2741.8396428055057,None,j,1,0.8443743730767892,None,None,004,001,2,26,m,2021_Nov_08_1130,eye_tracking_exp,2021.2.3,85.01011008160881,
0,0,12,180,180,180,180,0,0,-12,j,abs,resp,freq_bottom,,,,,0,306,306,170,,,0.9210024890415198,,,,,,,,,,2743.9083575289424,None,2743.9083575289424,None,j,1,0.92031985817448,None,None,004,001,2,26,m,2021_Nov_08_1130,eye_tracking_exp,2021.2.3,85.01011008160881,
270,180,0,0,0,0,-12,0,-12,180,j,present,resp,freq_bottom,,,,,0,307,307,630,,,0.7349345831699339,,,,,,,,,,2745.814764819892,None,2745.814764819892,None,j,1,1.1907228761683655,None,None,004,001,2,26,m,2021_Nov_08_1130,eye_tracking_exp,2021.2.3,85.01011008160881,
180,0,12,180,180,270,180,12,180,180,j,present,resp,freq_bottom,,,,,0,308,308,536,,,0.8352950710189355,,,,,,,,,,2748.085518886761,None,2748.085518886761,None,j,1,0.7579390766968572,None,None,004,001,2,26,m,2021_Nov_08_1130,eye_tracking_exp,2021.2.3,85.01011008160881,
-12,180,0,180,0,180,0,180,-12,180,j,abs,resp,freq_bottom,,,,,0,309,309,87,,,0.8207284039950344,,,,,,,,,,2749.7330196330804,None,2749.7330196330804,None,j,1,0.7584811951655865,None,None,004,001,2,26,m,2021_Nov_08_1130,eye_tracking_exp,2021.2.3,85.01011008160881,
0,0,0,0,0,0,168,0,0,168,f,abs,resp,freq_bottom,,,,,0,310,310,222,,,0.9840979927243894,,,,,,,,,,2751.7099068528187,None,2751.7099068528187,None,f,1,1.3896368885125412,None,None,004,001,2,26,m,2021_Nov_08_1130,eye_tracking_exp,2021.2.3,85.01011008160881,
0,0,0,180,168,0,0,168,0,0,f,abs,resp,freq_bottom,,,,,0,311,311,257,,,0.9335883892053174,,,,,,,,,,2754.298451913699,None,2754.298451913699,None,f,1,0.9450348460304667,None,None,004,001,2,26,m,2021_Nov_08_1130,eye_tracking_exp,2021.2.3,85.01011008160881,
-168,0,12,0,0,0,0,0,0,0,None,abs,inhibit,freq_bottom,,,,,0,312,312,434,,,0.9252692160596945,,,,,,,,,,2756.216300741731,None,2756.216300741731,None,None,1,,None,None,004,001,2,26,m,2021_Nov_08_1130,eye_tracking_exp,2021.2.3,85.01011008160881,
12,0,12,0,0,0,0,0,0,180,j,abs,resp,freq_bottom,,,,,0,313,313,29,,,0.8777229972746808,,,,,,,,,,2764.8300829869877,None,2764.8300829869877,None,j,1,1.2606941915801144,None,None,004,001,2,26,m,2021_Nov_08_1130,eye_tracking_exp,2021.2.3,85.01011008160881,
180,0,-168,180,180,180,180,12,180,180,None,abs,inhibit,freq_bottom,,,,,0,314,314,452,,,0.7659327717134696,,,,,,,,,,2767.1245339094203,None,2767.1245339094203,None,None,1,,None,None,004,001,2,26,m,2021_Nov_08_1130,eye_tracking_exp,2021.2.3,85.01011008160881,
0,180,0,180,180,180,-12,180,12,180,j,abs,resp,freq_bottom,,,,,0,315,315,145,,,0.7546227766783489,,,,,,,,,,2770.9031742002317,None,2770.9031742002317,None,j,1,0.7396377487784775,None,None,004,001,2,26,m,2021_Nov_08_1130,eye_tracking_exp,2021.2.3,85.01011008160881,
180,0,180,180,180,180,12,180,12,0,j,abs,resp,freq_bottom,,,,,0,316,316,5,,,0.9026633859724148,,,,,,,,,,2772.8076575139403,None,2772.8076575139403,None,j,1,0.6111279014494357,None,None,004,001,2,26,m,2021_Nov_08_1130,eye_tracking_exp,2021.2.3,85.01011008160881,
12,180,180,-12,180,180,180,0,0,0,j,abs,resp,freq_bottom,,,,,0,317,317,176,,,1.0056624082992824,,,,,,,,,,2774.725525660224,None,2774.725525660224,None,j,1,0.7413111924288387,None,None,004,001,2,26,m,2021_Nov_08_1130,eye_tracking_exp,2021.2.3,85.01011008160881,
180,0,180,0,-12,180,0,-12,180,0,j,abs,resp,freq_bottom,,,,,0,318,318,124,,,0.8044434066409788,,,,,,,,,,2776.5138290014675,None,2776.5138290014675,None,j,1,0.8737480783383944,None,None,004,001,2,26,m,2021_Nov_08_1130,eye_tracking_exp,2021.2.3,85.01011008160881,
180,180,-12,0,0,-12,180,0,180,0,j,abs,resp,freq_bottom,,,,,0,319,319,138,,,0.7938174237908059,,,,,,,,,,2778.2202383449803,None,2778.2202383449803,None,j,1,0.66966311303986,None,None,004,001,2,26,m,2021_Nov_08_1130,eye_tracking_exp,2021.2.3,85.01011008160881,
180,180,180,0,-12,0,270,0,0,-12,j,present,resp,freq_bottom,,,,,0,320,320,584,,,0.9493015851646078,,,,,,,,,,2780.0204921385284,None,2780.0204921385284,None,j,1,0.5974182807476609,None,None,004,001,2,26,m,2021_Nov_08_1130,eye_tracking_exp,2021.2.3,85.01011008160881,
180,12,0,-12,0,0,0,180,180,270,j,present,resp,freq_bottom,,,,,0,321,321,679,,,0.813474328053319,,,,,,,,,,2781.5399243388547,None,2781.5399243388547,None,j,1,0.6940361074521206,None,None,004,001,2,26,m,2021_Nov_08_1130,eye_tracking_exp,2021.2.3,85.01011008160881,
180,168,0,168,0,0,0,180,0,180,f,abs,resp,freq_bottom,,,,,0,322,322,245,,,0.7138501153788721,,,,,,,,,,2783.068526370471,None,2783.068526370471,None,f,1,0.765443614223841,None,None,004,001,2,26,m,2021_Nov_08_1130,eye_tracking_exp,2021.2.3,85.01011008160881,
180,180,180,168,180,180,168,0,180,0,f,abs,resp,freq_bottom,,,,,0,323,323,250,,,1.005364279310552,,,,,,,,,,2784.904908918965,None,2784.904908918965,None,f,1,0.9612594617683499,None,None,004,001,2,26,m,2021_Nov_08_1130,eye_tracking_exp,2021.2.3,85.01011008160881,
180,180,180,0,12,180,-12,180,180,270,j,present,resp,freq_bottom,,,,,0,324,324,692,,,1.038109189798957,,,,,,,,,,2787.033482154311,None,2787.033482154311,None,j,1,1.1851942336907086,None,None,004,001,2,26,m,2021_Nov_08_1130,eye_tracking_exp,2021.2.3,85.01011008160881,
180,180,12,180,180,270,180,12,180,180,j,present,resp,freq_bottom,,,,,0,325,325,556,,,1.0095367223388798,,,,,,,,,,2789.280988816845,None,2789.280988816845,None,j,1,0.6650348822513479,None,None,004,001,2,26,m,2021_Nov_08_1130,eye_tracking_exp,2021.2.3,85.01011008160881,
168,180,180,168,180,180,180,0,0,270,f,present,resp,freq_bottom,,,,,0,326,326,750,,,0.8016549042087644,,,,,,,,,,2790.998917272298,None,2790.998917272298,None,f,1,0.7711382729376055,None,None,004,001,2,26,m,2021_Nov_08_1130,eye_tracking_exp,2021.2.3,85.01011008160881,
0,270,0,0,0,-12,0,0,-168,0,None,present,inhibit,freq_bottom,,,,,0,327,327,1000,,,0.7147977921736329,,,,,,,,,,2792.540647264097,None,2792.540647264097,None,None,1,,None,None,004,001,2,26,m,2021_Nov_08_1130,eye_tracking_exp,2021.2.3,85.01011008160881,
-12,0,180,0,-12,180,180,270,0,180,j,present,resp,freq_bottom,,,,,0,328,328,618,,,0.8159414482292668,,,,,,,,,,2796.8476988187795,None,2796.8476988187795,None,j,1,0.6814535860630713,None,None,004,001,2,26,m,2021_Nov_08_1130,eye_tracking_exp,2021.2.3,85.01011008160881,
180,180,-12,0,12,180,180,0,270,180,j,present,resp,freq_bottom,,,,,0,329,329,686,,,0.7968559427206107,,,,,,,,,,2798.57731753382,None,2798.57731753382,None,j,1,0.8719077129098878,None,None,004,001,2,26,m,2021_Nov_08_1130,eye_tracking_exp,2021.2.3,85.01011008160881,
0,0,0,0,0,90,0,-12,0,-12,j,present,resp,freq_bottom,,,,,0,330,330,623,,,0.9414248214717942,,,,,,,,,,2800.553882682061,None,2800.553882682061,None,j,1,0.9915073179708997,None,None,004,001,2,26,m,2021_Nov_08_1130,eye_tracking_exp,2021.2.3,85.01011008160881,
-12,0,0,0,0,0,270,0,-168,0,None,present,inhibit,freq_bottom,,,,,0,331,331,994,,,0.9288464834955078,,,,,,,,,,2802.5658110994827,None,2802.5658110994827,None,None,1,,None,None,004,001,2,26,m,2021_Nov_08_1130,eye_tracking_exp,2021.2.3,85.01011008160881,
180,168,180,0,180,180,180,180,168,180,f,abs,resp,freq_bottom,,,,,0,332,332,211,,,0.8901580738855991,,,,,,,,,,2809.214735057709,None,2809.214735057709,None,f,1,0.6815882101382158,None,None,004,001,2,26,m,2021_Nov_08_1130,eye_tracking_exp,2021.2.3,85.01011008160881,
0,180,0,180,180,180,168,0,168,180,f,abs,resp,freq_bottom,,,,,0,333,333,215,,,0.8743548628371784,,,,,,,,,,2811.003205924426,None,2811.003205924426,None,f,1,0.6861612027969386,None,None,004,001,2,26,m,2021_Nov_08_1130,eye_tracking_exp,2021.2.3,85.01011008160881,
180,0,180,0,180,-12,0,12,180,0,j,abs,resp,freq_bottom,,,,,0,334,334,203,,,1.030876256947202,,,,,,,,,,2812.8871542372326,None,2812.8871542372326,None,j,1,0.8330973429929145,None,None,004,001,2,26,m,2021_Nov_08_1130,eye_tracking_exp,2021.2.3,85.01011008160881,
