ori10,ori11,ori12,ori13,ori14,ori16,ori17,ori18,ori19,ori20,corrAns,distractor,respon,dist_freq,practice_trials.thisRepN,practice_trials.thisTrialN,practice_trials.thisN,practice_trials.thisIndex,trials.thisRepN,trials.thisTrialN,trials.thisN,trials.thisIndex,key_resp.keys,key_resp.rt,fixdur,int14_2.started,int14_2.stopped,per15_2.started,per15_2.stopped,response_pract.keys,response_pract.corr,response_pract.rt,key_resp_2.keys,key_resp_2.rt,int14.started,int14.stopped,per15.started,per15.stopped,response.keys,response.corr,response.rt,text_7.started,text_7.stopped,participant,session,1=top 2=bottom,age,gender,date,expName,psychopyVersion,frameRate,
,,,,,,,,,,,,,,,,,,,,,,space,132.36421451977367,,,,,,,,,,,,,,,,,,,,005,001,2,33,f,2021_Nov_08_1304,eye_tracking_exp,2021.2.3,85.14228807038445,
180,270,180,12,180,180,180,180,12,180,j,present,resp,pract,0,0,0,35,,,,,,,1.00888598222815,933.7882508197436,None,933.7882508197436,None,j,1,2.3882923071359983,,,,,,,,,,,,005,001,2,33,f,2021_Nov_08_1304,eye_tracking_exp,2021.2.3,85.14228807038445,
0,0,180,0,168,0,0,0,180,168,f,abs,resp,pract,0,1,1,17,,,,,,,0.7175578925843928,937.1648360106738,None,937.1648360106738,None,f,1,2.2595409816422034,,,,,,,,,,,,005,001,2,33,f,2021_Nov_08_1304,eye_tracking_exp,2021.2.3,85.14228807038445,
0,168,180,90,0,180,0,168,0,0,f,present,resp,pract,0,2,2,48,,,,,,,0.712848884391871,940.4598685936216,None,940.4598685936216,None,f,1,1.635645631035004,,,,,,,,,,,,005,001,2,33,f,2021_Nov_08_1304,eye_tracking_exp,2021.2.3,85.14228807038445,
180,0,90,180,12,0,180,180,12,180,j,present,resp,pract,0,3,3,41,,,,,,,0.9210774529366104,943.1428572722216,None,943.1428572722216,None,None,0,,,,,,,,,,,,,005,001,2,33,f,2021_Nov_08_1304,eye_tracking_exp,2021.2.3,85.14228807038445,
180,0,180,0,12,0,12,180,180,180,j,abs,resp,pract,0,4,4,7,,,,,,,0.7099274616897294,947.3563508303378,None,947.3563508303378,None,j,1,1.6831223502776993,,,,,,,,,,,,005,001,2,33,f,2021_Nov_08_1304,eye_tracking_exp,2021.2.3,85.14228807038445,
168,0,270,180,180,180,180,168,180,180,f,present,resp,pract,0,5,5,49,,,,,,,1.0595571726422697,950.3934950009498,None,950.3934950009498,None,None,0,,,,,,,,,,,,,005,001,2,33,f,2021_Nov_08_1304,eye_tracking_exp,2021.2.3,85.14228807038445,
180,0,180,12,180,180,12,180,180,180,j,abs,resp,pract,0,6,6,1,,,,,,,0.7151873390338344,954.6170509540061,None,954.6170509540061,None,j,1,1.2376977728090424,,,,,,,,,,,,005,001,2,33,f,2021_Nov_08_1304,eye_tracking_exp,2021.2.3,85.14228807038445,
12,0,0,-168,0,0,180,180,180,180,None,abs,inhibit,pract,0,7,7,27,,,,,,,0.8597373409493833,956.9943964992926,None,956.9943964992926,None,None,1,,,,,,,,,,,,,005,001,2,33,f,2021_Nov_08_1304,eye_tracking_exp,2021.2.3,85.14228807038445,
180,270,180,12,180,0,12,180,0,180,j,present,resp,pract,0,8,8,33,,,,,,,0.7664221249827177,960.8433709264536,None,960.8433709264536,None,j,1,1.8432875696344126,,,,,,,,,,,,005,001,2,33,f,2021_Nov_08_1304,eye_tracking_exp,2021.2.3,85.14228807038445,
0,0,168,0,0,0,0,0,168,0,f,abs,resp,pract,0,9,9,11,,,,,,,1.047652857121173,964.0433293318383,None,964.0433293318383,None,f,1,1.7634364771402034,,,,,,,,,,,,005,001,2,33,f,2021_Nov_08_1304,eye_tracking_exp,2021.2.3,85.14228807038445,
90,0,0,12,0,180,180,180,0,12,j,present,resp,pract,0,10,10,36,,,,,,,1.0204140705572489,966.8681004029968,None,966.8681004029968,None,j,1,2.554659289340634,,,,,,,,,,,,005,001,2,33,f,2021_Nov_08_1304,eye_tracking_exp,2021.2.3,85.14228807038445,
168,0,180,0,0,180,180,0,168,0,f,abs,resp,pract,0,11,11,13,,,,,,,0.7283317871207666,970.1849873631472,None,970.1849873631472,None,None,0,,,,,,,,,,,,,005,001,2,33,f,2021_Nov_08_1304,eye_tracking_exp,2021.2.3,85.14228807038445,
0,0,0,0,168,0,0,12,0,0,None,abs,inhibit,pract,0,12,12,29,,,,,,,0.7989623483290974,974.4927123400485,None,974.4927123400485,None,None,1,,,,,,,,,,,,,005,001,2,33,f,2021_Nov_08_1304,eye_tracking_exp,2021.2.3,85.14228807038445,
180,168,180,0,180,0,180,0,0,168,f,abs,resp,pract,0,13,13,20,,,,,,,0.9562953812700278,978.4709826259495,None,978.4709826259495,None,f,1,1.3680232340557268,,,,,,,,,,,,005,001,2,33,f,2021_Nov_08_1304,eye_tracking_exp,2021.2.3,85.14228807038445,
180,12,180,-168,180,180,0,180,180,180,None,abs,inhibit,pract,0,14,14,26,,,,,,,0.746035585959627,980.6369457359324,None,980.6369457359324,None,None,1,,,,,,,,,,,,,005,001,2,33,f,2021_Nov_08_1304,eye_tracking_exp,2021.2.3,85.14228807038445,
180,180,90,180,12,180,12,0,0,180,j,present,resp,pract,0,15,15,39,,,,,,,1.0230780084745283,984.7089545233248,None,984.7089545233248,None,j,1,2.2330499219206104,,,,,,,,,,,,005,001,2,33,f,2021_Nov_08_1304,eye_tracking_exp,2021.2.3,85.14228807038445,
180,180,180,-168,180,180,12,180,0,180,None,abs,inhibit,pract,0,16,16,22,,,,,,,0.8856443437758473,987.8761069132488,None,987.8761069132488,None,None,1,,,,,,,,,,,,,005,001,2,33,f,2021_Nov_08_1304,eye_tracking_exp,2021.2.3,85.14228807038445,
180,180,0,168,180,180,180,180,168,180,f,abs,resp,pract,0,17,17,10,,,,,,,0.8715558288510779,991.7586048478552,None,991.7586048478552,None,f,1,1.3427184357933584,,,,,,,,,,,,005,001,2,33,f,2021_Nov_08_1304,eye_tracking_exp,2021.2.3,85.14228807038445,
180,0,180,0,12,180,180,180,12,180,j,abs,resp,pract,0,18,18,9,,,,,,,1.09835059577902,994.2408249618384,None,994.2408249618384,None,j,1,1.836374049908045,,,,,,,,,,,,005,001,2,33,f,2021_Nov_08_1304,eye_tracking_exp,2021.2.3,85.14228807038445,
180,168,0,180,0,180,180,180,168,180,f,abs,resp,pract,0,19,19,12,,,,,,,0.7920483962289814,996.9252296079976,None,996.9252296079976,None,f,1,2.048499332398933,,,,,,,,,,,,005,001,2,33,f,2021_Nov_08_1304,eye_tracking_exp,2021.2.3,85.14228807038445,
0,270,0,0,12,0,180,180,180,12,j,present,resp,pract,0,20,20,42,,,,,,,0.9331239216638435,1000.0188503888858,None,1000.0188503888858,None,j,1,2.779552729556599,,,,,,,,,,,,005,001,2,33,f,2021_Nov_08_1304,eye_tracking_exp,2021.2.3,85.14228807038445,
0,180,0,0,180,0,180,168,0,168,f,abs,resp,pract,0,21,21,14,,,,,,,1.0675905741459621,1004.033258485164,None,1004.033258485164,None,f,1,2.5230316873021366,,,,,,,,,,,,005,001,2,33,f,2021_Nov_08_1304,eye_tracking_exp,2021.2.3,85.14228807038445,
90,0,180,180,180,168,0,168,0,0,f,present,resp,pract,0,22,22,44,,,,,,,0.7240760729960453,1007.4685569778267,None,1007.4685569778267,None,None,0,,,,,,,,,,,,,005,001,2,33,f,2021_Nov_08_1304,eye_tracking_exp,2021.2.3,85.14228807038445,
180,180,0,168,180,180,180,0,0,168,f,abs,resp,pract,0,23,23,18,,,,,,,1.031486335231523,1012.0220729149332,None,1012.0220729149332,None,f,1,1.9263331163383555,,,,,,,,,,,,005,001,2,33,f,2021_Nov_08_1304,eye_tracking_exp,2021.2.3,85.14228807038445,
0,0,0,-168,180,180,180,180,0,12,None,abs,inhibit,pract,0,24,24,25,,,,,,,0.8306259301280621,1014.8582982007756,None,1014.8582982007756,None,None,1,,,,,,,,,,,,,005,001,2,33,f,2021_Nov_08_1304,eye_tracking_exp,2021.2.3,85.14228807038445,
90,0,180,168,180,180,0,168,0,0,f,present,resp,pract,0,25,25,46,,,,,,,0.8593669628346943,1018.743145416036,None,1018.743145416036,None,f,1,1.5084222586083342,,,,,,,,,,,,005,001,2,33,f,2021_Nov_08_1304,eye_tracking_exp,2021.2.3,85.14228807038445,
0,180,180,180,168,0,0,0,0,12,None,abs,inhibit,pract,0,26,26,31,,,,,,,1.0217348762016274,1021.3192211484165,None,1021.3192211484165,None,None,1,,,,,,,,,,,,,005,001,2,33,f,2021_Nov_08_1304,eye_tracking_exp,2021.2.3,85.14228807038445,
12,0,0,12,0,0,90,180,180,0,j,present,resp,pract,0,27,27,38,,,,,,,0.7982616177150617,1025.6387586332203,None,1025.6387586332203,None,j,1,2.692839733292203,,,,,,,,,,,,005,001,2,33,f,2021_Nov_08_1304,eye_tracking_exp,2021.2.3,85.14228807038445,
180,12,180,12,180,90,180,180,0,180,j,present,resp,pract,0,28,28,37,,,,,,,0.805259576620406,1029.1929223354928,None,1029.1929223354928,None,None,0,,,,,,,,,,,,,005,001,2,33,f,2021_Nov_08_1304,eye_tracking_exp,2021.2.3,85.14228807038445,
180,180,168,0,270,0,0,168,0,180,f,present,resp,pract,0,29,29,47,,,,,,,0.8468128647421774,1033.53497252733,None,1033.53497252733,None,None,0,,,,,,,,,,,,,005,001,2,33,f,2021_Nov_08_1304,eye_tracking_exp,2021.2.3,85.14228807038445,
0,180,0,-168,180,0,180,0,12,180,None,abs,inhibit,pract,0,30,30,24,,,,,,,0.9074025314790961,1037.9608153389345,None,1037.9608153389345,None,None,1,,,,,,,,,,,,,005,001,2,33,f,2021_Nov_08_1304,eye_tracking_exp,2021.2.3,85.14228807038445,
0,180,0,12,0,180,180,12,0,0,j,abs,resp,pract,0,31,31,2,,,,,,,0.8586208089982115,1064.9845737714277,None,1064.9845737714277,None,j,1,1.2489316386745486,,,,,,,,,,,,005,001,2,33,f,2021_Nov_08_1304,eye_tracking_exp,2021.2.3,85.14228807038445,
0,0,180,0,0,0,168,0,180,168,f,abs,resp,pract,0,32,32,15,,,,,,,0.8173333783723563,1067.1041133087965,None,1067.1041133087965,None,f,1,1.417108197845664,,,,,,,,,,,,005,001,2,33,f,2021_Nov_08_1304,eye_tracking_exp,2021.2.3,85.14228807038445,
180,0,180,12,0,180,180,0,12,180,j,abs,resp,pract,0,33,33,3,,,,,,,0.8277341396689019,1069.4327777625185,None,1069.4327777625185,None,j,1,1.0884730233556184,,,,,,,,,,,,005,001,2,33,f,2021_Nov_08_1304,eye_tracking_exp,2021.2.3,85.14228807038445,
0,0,0,-168,0,12,0,0,0,0,None,abs,inhibit,pract,0,34,34,21,,,,,,,0.8469092545505243,1071.4329884522122,None,1071.4329884522122,None,None,1,,,,,,,,,,,,,005,001,2,33,f,2021_Nov_08_1304,eye_tracking_exp,2021.2.3,85.14228807038445,
0,0,0,-168,0,0,0,12,0,0,None,abs,inhibit,pract,0,35,35,23,,,,,,,0.8526456607854819,1075.6593075191158,None,1075.6593075191158,None,None,1,,,,,,,,,,,,,005,001,2,33,f,2021_Nov_08_1304,eye_tracking_exp,2021.2.3,85.14228807038445,
180,0,180,0,168,180,0,180,12,180,None,abs,inhibit,pract,0,36,36,30,,,,,,,0.8996787857886404,1079.5766619206152,None,1079.5766619206152,None,None,1,,,,,,,,,,,,,005,001,2,33,f,2021_Nov_08_1304,eye_tracking_exp,2021.2.3,85.14228807038445,
0,180,180,180,12,0,180,12,0,0,j,abs,resp,pract,0,37,37,8,,,,,,,0.7525414071901173,1083.4012259242518,None,1083.4012259242518,None,j,1,2.559198475060839,,,,,,,,,,,,005,001,2,33,f,2021_Nov_08_1304,eye_tracking_exp,2021.2.3,85.14228807038445,
180,270,0,0,168,0,0,168,180,0,f,present,resp,pract,0,38,38,45,,,,,,,0.8958177891266235,1087.119617414075,None,1087.119617414075,None,f,1,2.360920153972984,,,,,,,,,,,,005,001,2,33,f,2021_Nov_08_1304,eye_tracking_exp,2021.2.3,85.14228807038445,
180,270,0,0,0,0,0,168,0,168,f,present,resp,pract,0,39,39,43,,,,,,,0.8346459974290846,1090.3679173323653,None,1090.3679173323653,None,f,1,2.536665242383606,,,,,,,,,,,,005,001,2,33,f,2021_Nov_08_1304,eye_tracking_exp,2021.2.3,85.14228807038445,
0,180,0,180,168,180,12,180,0,180,None,abs,inhibit,pract,0,40,40,28,,,,,,,1.0395944007047684,1094.2063774985836,None,1094.2063774985836,None,None,1,,,,,,,,,,,,,005,001,2,33,f,2021_Nov_08_1304,eye_tracking_exp,2021.2.3,85.14228807038445,
90,0,0,12,0,0,0,12,0,0,j,present,resp,pract,0,41,41,34,,,,,,,0.9642568320806106,1098.5356577216116,None,1098.5356577216116,None,j,1,2.417004060389445,,,,,,,,,,,,005,001,2,33,f,2021_Nov_08_1304,eye_tracking_exp,2021.2.3,85.14228807038445,
0,180,0,0,180,168,180,0,0,168,f,abs,resp,pract,0,42,42,16,,,,,,,1.0328237607932025,1102.0437265634137,None,1102.0437265634137,None,None,0,,,,,,,,,,,,,005,001,2,33,f,2021_Nov_08_1304,eye_tracking_exp,2021.2.3,85.14228807038445,
180,12,180,12,0,180,0,180,180,180,j,abs,resp,pract,0,43,43,5,,,,,,,0.7137481220004729,1106.2781514484632,None,1106.2781514484632,None,j,1,1.8902502422424732,,,,,,,,,,,,005,001,2,33,f,2021_Nov_08_1304,eye_tracking_exp,2021.2.3,85.14228807038445,
12,0,0,12,0,0,180,0,180,180,j,abs,resp,pract,0,44,44,6,,,,,,,0.7270044195403191,1108.9495757379664,None,1108.9495757379664,None,j,1,1.3462600148632191,,,,,,,,,,,,005,001,2,33,f,2021_Nov_08_1304,eye_tracking_exp,2021.2.3,85.14228807038445,
0,180,0,12,0,12,0,180,180,180,j,abs,resp,pract,0,45,45,0,,,,,,,1.0669804653040407,1111.4088777634533,None,1111.4088777634533,None,j,1,1.6860031847318169,,,,,,,,,,,,005,001,2,33,f,2021_Nov_08_1304,eye_tracking_exp,2021.2.3,85.14228807038445,
0,270,0,0,12,0,0,12,0,0,j,present,resp,pract,0,46,46,40,,,,,,,0.8894028674619835,1114.0695303159227,None,1114.0695303159227,None,j,1,2.0974228076665895,,,,,,,,,,,,005,001,2,33,f,2021_Nov_08_1304,eye_tracking_exp,2021.2.3,85.14228807038445,
90,0,0,12,0,12,180,180,180,0,j,present,resp,pract,0,47,47,32,,,,,,,0.9664688571825482,1117.2098846670124,None,1117.2098846670124,None,j,1,2.2530491431534756,,,,,,,,,,,,005,001,2,33,f,2021_Nov_08_1304,eye_tracking_exp,2021.2.3,85.14228807038445,
0,0,168,0,0,0,0,0,180,168,f,abs,resp,pract,0,48,48,19,,,,,,,0.7052293262228718,1120.2466092693212,None,1120.2466092693212,None,f,1,1.408391741802916,,,,,,,,,,,,005,001,2,33,f,2021_Nov_08_1304,eye_tracking_exp,2021.2.3,85.14228807038445,
0,180,0,12,0,180,180,180,0,12,j,abs,resp,pract,0,49,49,4,,,,,,,0.8435415122929396,1122.7637109035531,None,1122.7637109035531,None,j,1,1.8034315992845222,,,,,,,,,,,,005,001,2,33,f,2021_Nov_08_1304,eye_tracking_exp,2021.2.3,85.14228807038445,
,,,,,,,,,,,,,,,,,,,,,,,,,,,,,,,,space,2.224617806412425,,,,,,,,,,005,001,2,33,f,2021_Nov_08_1304,eye_tracking_exp,2021.2.3,85.14228807038445,
180,180,180,0,180,-12,0,90,180,-12,j,present,resp,freq_bottom,,,,,0,0,0,639,,,0.7644290684215709,,,,,,,,,,1131.4941548702081,None,1131.4941548702081,None,f,0,2.2559372219511715,1133.7778373759284,None,005,001,2,33,f,2021_Nov_08_1304,eye_tracking_exp,2021.2.3,85.14228807038445,
180,12,0,12,180,0,180,0,180,90,j,present,resp,freq_bottom,,,,,0,1,1,525,,,0.9894949508367215,,,,,,,,,,1135.437929095373,None,1135.437929095373,None,j,1,2.728287519828882,None,None,005,001,2,33,f,2021_Nov_08_1304,eye_tracking_exp,2021.2.3,85.14228807038445,
180,0,-168,0,-168,180,270,0,180,0,f,present,resp,freq_bottom,,,,,0,2,2,826,,,0.7614666778546654,,,,,,,,,,1139.0750293773272,None,1139.0750293773272,None,f,1,2.579213694221835,None,None,005,001,2,33,f,2021_Nov_08_1304,eye_tracking_exp,2021.2.3,85.14228807038445,
180,0,12,0,0,0,0,180,12,0,j,abs,resp,freq_bottom,,,,,0,3,3,31,,,0.7973868092861273,,,,,,,,,,1142.5093441483368,None,1142.5093441483368,None,j,1,1.0001360864589515,None,None,005,001,2,33,f,2021_Nov_08_1304,eye_tracking_exp,2021.2.3,85.14228807038445,
0,0,12,0,0,0,0,0,0,168,None,abs,inhibit,freq_bottom,,,,,0,4,4,428,,,0.7088212747423454,,,,,,,,,,1144.7221829987902,None,1144.7221829987902,None,None,1,,None,None,005,001,2,33,f,2021_Nov_08_1304,eye_tracking_exp,2021.2.3,85.14228807038445,
0,168,0,0,0,0,0,0,12,0,None,abs,inhibit,freq_bottom,,,,,0,5,5,444,,,0.8589715133757627,,,,,,,,,,1148.5936843198288,None,1148.5936843198288,None,None,1,,None,None,005,001,2,33,f,2021_Nov_08_1304,eye_tracking_exp,2021.2.3,85.14228807038445,
0,180,0,0,168,180,180,0,-168,180,f,abs,resp,freq_bottom,,,,,0,6,6,396,,,1.0789421373422758,,,,,,,,,,1152.971205842321,None,1152.971205842321,None,f,1,2.5062682734169357,None,None,005,001,2,33,f,2021_Nov_08_1304,eye_tracking_exp,2021.2.3,85.14228807038445,
0,0,168,0,180,180,180,168,0,270,f,present,resp,freq_bottom,,,,,0,7,7,746,,,1.0848147919879478,,,,,,,,,,1156.8331192730075,None,1156.8331192730075,None,f,1,1.8923284636584867,None,None,005,001,2,33,f,2021_Nov_08_1304,eye_tracking_exp,2021.2.3,85.14228807038445,
0,0,270,0,0,0,-168,0,0,-168,f,present,resp,freq_bottom,,,,,0,8,8,796,,,0.947961427252972,,,,,,,,,,1160.2668083137323,None,1160.2668083137323,None,f,1,1.3697501047499827,None,None,005,001,2,33,f,2021_Nov_08_1304,eye_tracking_exp,2021.2.3,85.14228807038445,
180,168,180,180,0,180,180,12,180,0,None,abs,inhibit,freq_bottom,,,,,0,9,9,445,,,0.9730341001988663,,,,,,,,,,1163.1262788909771,None,1163.1262788909771,None,None,1,,None,None,005,001,2,33,f,2021_Nov_08_1304,eye_tracking_exp,2021.2.3,85.14228807038445,
-168,180,0,0,0,0,-168,0,0,0,f,abs,resp,freq_bottom,,,,,0,10,10,338,,,0.9510467646649374,,,,,,,,,,1167.3156234256749,None,1167.3156234256749,None,f,1,1.281013219653687,None,None,005,001,2,33,f,2021_Nov_08_1304,eye_tracking_exp,2021.2.3,85.14228807038445,
168,0,0,0,0,0,0,-168,0,0,f,abs,resp,freq_bottom,,,,,0,11,11,368,,,0.8662796895527187,,,,,,,,,,1169.810410968661,None,1169.810410968661,None,f,1,2.9143385942697932,None,None,005,001,2,33,f,2021_Nov_08_1304,eye_tracking_exp,2021.2.3,85.14228807038445,
-168,0,0,0,0,-168,0,0,270,0,f,present,resp,freq_bottom,,,,,0,12,12,804,,,0.7672903681631067,,,,,,,,,,1174.1781843196768,None,1174.1781843196768,None,f,1,2.7216094413051906,None,None,005,001,2,33,f,2021_Nov_08_1304,eye_tracking_exp,2021.2.3,85.14228807038445,
0,0,0,180,168,0,0,168,0,0,f,abs,resp,freq_bottom,,,,,0,13,13,257,,,0.8077722276051692,,,,,,,,,,1177.989550032613,None,1177.989550032613,None,f,1,1.054228099903412,None,None,005,001,2,33,f,2021_Nov_08_1304,eye_tracking_exp,2021.2.3,85.14228807038445,
180,168,0,0,0,90,0,-168,180,180,f,present,resp,freq_bottom,,,,,0,14,14,905,,,0.7114296434589308,,,,,,,,,,1179.8962368345346,None,1179.8962368345346,None,f,1,2.300343546383374,None,None,005,001,2,33,f,2021_Nov_08_1304,eye_tracking_exp,2021.2.3,85.14228807038445,
0,-168,0,-168,0,0,0,0,180,180,f,abs,resp,freq_bottom,,,,,0,15,15,315,,,0.7576467188348516,,,,,,,,,,1183.0380886520652,None,1183.0380886520652,None,f,1,1.285831312645314,None,None,005,001,2,33,f,2021_Nov_08_1304,eye_tracking_exp,2021.2.3,85.14228807038445,
-168,180,0,180,180,180,90,180,-168,180,f,present,resp,freq_bottom,,,,,0,16,16,801,,,0.9030195221083256,,,,,,,,,,1185.3210832468794,None,1185.3210832468794,None,f,1,2.2982816247458686,None,None,005,001,2,33,f,2021_Nov_08_1304,eye_tracking_exp,2021.2.3,85.14228807038445,
0,0,168,0,0,0,0,0,0,168,f,abs,resp,freq_bottom,,,,,0,17,17,218,,,0.7760093740839629,,,,,,,,,,1188.676760353148,None,1188.676760353148,None,f,1,1.1671728687142604,None,None,005,001,2,33,f,2021_Nov_08_1304,eye_tracking_exp,2021.2.3,85.14228807038445,
0,-168,180,180,180,90,0,0,168,0,f,present,resp,freq_bottom,,,,,0,18,18,878,,,0.9675263002795924,,,,,,,,,,1190.9116914367914,None,1190.9116914367914,None,f,1,2.0192907378295786,None,None,005,001,2,33,f,2021_Nov_08_1304,eye_tracking_exp,2021.2.3,85.14228807038445,
180,180,12,0,0,0,180,0,12,0,j,abs,resp,freq_bottom,,,,,0,19,19,2,,,0.7121798026641915,,,,,,,,,,1193.9479599472252,None,1193.9479599472252,None,j,1,1.2070155577675905,None,None,005,001,2,33,f,2021_Nov_08_1304,eye_tracking_exp,2021.2.3,85.14228807038445,
0,180,0,0,0,0,168,0,168,180,f,abs,resp,freq_bottom,,,,,0,20,20,266,,,0.9826069375289386,,,,,,,,,,1196.1956806197777,None,1196.1956806197777,None,f,1,1.3754287655392545,None,None,005,001,2,33,f,2021_Nov_08_1304,eye_tracking_exp,2021.2.3,85.14228807038445,
0,0,0,0,0,0,0,-12,0,-12,j,abs,resp,freq_bottom,,,,,0,21,21,119,,,0.9848437672430126,,,,,,,,,,1199.116407263784,None,1199.116407263784,None,j,1,1.5746811491517292,None,None,005,001,2,33,f,2021_Nov_08_1304,eye_tracking_exp,2021.2.3,85.14228807038445,
0,12,0,0,12,0,0,0,270,0,j,present,resp,freq_bottom,,,,,0,22,22,526,,,1.0006508688394506,,,,,,,,,,1202.0460405278827,None,1202.0460405278827,None,None,0,,1205.034647286433,None,005,001,2,33,f,2021_Nov_08_1304,eye_tracking_exp,2021.2.3,85.14228807038445,
180,12,180,180,180,168,0,180,0,180,None,abs,inhibit,freq_bottom,,,,,0,23,23,487,,,1.0724184572243773,,,,,,,,,,1206.7288302888483,None,1206.7288302888483,None,None,1,,None,None,005,001,2,33,f,2021_Nov_08_1304,eye_tracking_exp,2021.2.3,85.14228807038445,
180,-12,0,0,12,0,0,180,180,180,j,abs,resp,freq_bottom,,,,,0,24,24,162,,,0.8489848622460185,,,,,,,,,,1210.6007406135177,None,1210.6007406135177,None,j,1,1.4017954640075914,None,None,005,001,2,33,f,2021_Nov_08_1304,eye_tracking_exp,2021.2.3,85.14228807038445,
-12,180,180,180,0,-12,180,270,0,0,j,present,resp,freq_bottom,,,,,0,25,25,640,,,0.7241390668345217,,,,,,,,,,1212.7781464679756,None,1212.7781464679756,None,None,0,,1215.7552501125137,None,005,001,2,33,f,2021_Nov_08_1304,eye_tracking_exp,2021.2.3,85.14228807038445,
180,0,180,0,180,-12,180,270,0,-12,j,present,resp,freq_bottom,,,,,0,26,26,587,,,0.743273842004325,,,,,,,,,,1217.1082223615413,None,1217.1082223615413,None,f,0,2.286384901330166,1219.426670176148,None,005,001,2,33,f,2021_Nov_08_1304,eye_tracking_exp,2021.2.3,85.14228807038445,
180,180,180,12,0,180,-168,180,270,0,None,present,inhibit,freq_bottom,,,,,0,27,27,985,,,0.7071257605040289,,,,,,,,,,1221.191413096989,None,1221.191413096989,None,None,1,,None,None,005,001,2,33,f,2021_Nov_08_1304,eye_tracking_exp,2021.2.3,85.14228807038445,
0,180,180,-168,180,180,168,180,0,180,f,abs,resp,freq_bottom,,,,,0,28,28,411,,,0.7401693034267762,,,,,,,,,,1225.3694965995346,None,1225.3694965995346,None,f,1,1.8801911676273448,None,None,005,001,2,33,f,2021_Nov_08_1304,eye_tracking_exp,2021.2.3,85.14228807038445,
180,180,-168,0,0,0,90,0,-168,180,f,present,resp,freq_bottom,,,,,0,29,29,786,,,0.8342584374561498,,,,,,,,,,1228.7242971400847,None,1228.7242971400847,None,f,1,1.4853945993927482,None,None,005,001,2,33,f,2021_Nov_08_1304,eye_tracking_exp,2021.2.3,85.14228807038445,
180,-168,180,180,180,180,0,180,0,-168,f,abs,resp,freq_bottom,,,,,0,30,30,287,,,0.7845639458899334,,,,,,,,,,1231.0529027335033,None,1231.0529027335033,None,f,1,0.9654208842948719,None,None,005,001,2,33,f,2021_Nov_08_1304,eye_tracking_exp,2021.2.3,85.14228807038445,
180,0,0,180,-168,90,0,12,0,180,None,present,inhibit,freq_bottom,,,,,0,31,31,971,,,0.9213716270877702,,,,,,,,,,1233.3471529272138,None,1233.3471529272138,None,None,1,,None,None,005,001,2,33,f,2021_Nov_08_1304,eye_tracking_exp,2021.2.3,85.14228807038445,
0,180,0,180,180,168,0,12,180,180,None,abs,inhibit,freq_bottom,,,,,0,32,32,483,,,0.7304704667703223,,,,,,,,,,1237.4306699600274,None,1237.4306699600274,None,None,1,,None,None,005,001,2,33,f,2021_Nov_08_1304,eye_tracking_exp,2021.2.3,85.14228807038445,
270,0,0,-168,0,0,0,168,0,0,f,present,resp,freq_bottom,,,,,0,33,33,893,,,1.0189169431075196,,,,,,,,,,1241.8213384591108,None,1241.8213384591108,None,f,1,1.971397166911629,None,None,005,001,2,33,f,2021_Nov_08_1304,eye_tracking_exp,2021.2.3,85.14228807038445,
180,-168,0,180,180,180,270,180,180,168,f,present,resp,freq_bottom,,,,,0,34,34,877,,,0.7763603575607567,,,,,,,,,,1245.0460990863357,None,1245.0460990863357,None,f,1,2.1706727927994507,None,None,005,001,2,33,f,2021_Nov_08_1304,eye_tracking_exp,2021.2.3,85.14228807038445,
180,180,180,0,-12,0,-12,0,90,180,j,present,resp,freq_bottom,,,,,0,35,35,636,,,0.8033319994677066,,,,,,,,,,1248.5053769640108,None,1248.5053769640108,None,j,1,2.439450964626303,None,None,005,001,2,33,f,2021_Nov_08_1304,eye_tracking_exp,2021.2.3,85.14228807038445,
180,180,0,180,180,-12,0,0,180,-12,j,abs,resp,freq_bottom,,,,,0,36,36,135,,,0.8462217448980549,,,,,,,,,,1251.9173320647678,None,1251.9173320647678,None,j,1,2.402573627379752,None,None,005,001,2,33,f,2021_Nov_08_1304,eye_tracking_exp,2021.2.3,85.14228807038445,
-168,0,-168,0,0,90,0,0,0,180,f,present,resp,freq_bottom,,,,,0,37,37,813,,,0.7607203504686523,,,,,,,,,,1255.5179066620512,None,1255.5179066620512,None,f,1,1.2659501138659834,None,None,005,001,2,33,f,2021_Nov_08_1304,eye_tracking_exp,2021.2.3,85.14228807038445,
0,0,-12,0,0,0,0,0,12,0,j,abs,resp,freq_bottom,,,,,0,38,38,142,,,0.7736802571749073,,,,,,,,,,1257.6244121138734,None,1257.6244121138734,None,j,1,1.0155466189535218,None,None,005,001,2,33,f,2021_Nov_08_1304,eye_tracking_exp,2021.2.3,85.14228807038445,
-168,0,0,0,12,0,270,0,0,0,None,present,inhibit,freq_bottom,,,,,0,39,39,940,,,0.8843190705398164,,,,,,,,,,1260.1072519211848,None,1260.1072519211848,None,None,1,,None,None,005,001,2,33,f,2021_Nov_08_1304,eye_tracking_exp,2021.2.3,85.14228807038445,
12,0,0,0,12,0,270,180,180,180,j,present,resp,freq_bottom,,,,,0,40,40,520,,,0.8663652517597469,,,,,,,,,,1264.3915571387115,None,1264.3915571387115,None,f,0,1.1925042295770254,1265.6030198655026,None,005,001,2,33,f,2021_Nov_08_1304,eye_tracking_exp,2021.2.3,85.14228807038445,
180,0,180,168,180,0,180,0,0,-168,f,abs,resp,freq_bottom,,,,,0,41,41,359,,,0.9454190966041195,,,,,,,,,,1267.485400683203,None,1267.485400683203,None,None,0,,1270.4631360949788,None,005,001,2,33,f,2021_Nov_08_1304,eye_tracking_exp,2021.2.3,85.14228807038445,
-168,0,180,180,180,-168,180,180,270,0,f,present,resp,freq_bottom,,,,,0,42,42,850,,,1.0699398627357763,,,,,,,,,,1445.263632574075,None,1445.263632574075,None,None,0,,1448.253056736201,None,005,001,2,33,f,2021_Nov_08_1304,eye_tracking_exp,2021.2.3,85.14228807038445,
168,0,168,0,0,0,0,0,270,0,f,present,resp,freq_bottom,,,,,0,43,43,728,,,0.9461883627605836,,,,,,,,,,1449.7236695987158,None,1449.7236695987158,None,f,1,1.4997972624187241,None,None,005,001,2,33,f,2021_Nov_08_1304,eye_tracking_exp,2021.2.3,85.14228807038445,
180,0,180,0,180,-12,0,12,180,0,j,abs,resp,freq_bottom,,,,,0,44,44,203,,,1.0449608332299762,,,,,,,,,,1452.5238295176277,None,1452.5238295176277,None,j,1,1.77092079087015,None,None,005,001,2,33,f,2021_Nov_08_1304,eye_tracking_exp,2021.2.3,85.14228807038445,
180,180,180,12,180,-12,0,270,0,180,j,present,resp,freq_bottom,,,,,0,45,45,713,,,1.011875927968108,,,,,,,,,,1455.596785201251,None,1455.596785201251,None,j,1,2.329002476293681,None,None,005,001,2,33,f,2021_Nov_08_1304,eye_tracking_exp,2021.2.3,85.14228807038445,
0,0,0,180,180,180,12,180,180,-12,j,abs,resp,freq_bottom,,,,,0,46,46,197,,,0.9198719904274615,,,,,,,,,,1459.2088626106997,None,1459.2088626106997,None,j,1,1.3249613392799802,None,None,005,001,2,33,f,2021_Nov_08_1304,eye_tracking_exp,2021.2.3,85.14228807038445,
180,12,180,0,180,0,180,0,180,168,None,abs,inhibit,freq_bottom,,,,,0,47,47,427,,,0.8120752802583349,,,,,,,,,,1461.4084165401655,None,1461.4084165401655,None,None,1,,None,None,005,001,2,33,f,2021_Nov_08_1304,eye_tracking_exp,2021.2.3,85.14228807038445,
180,180,-168,180,180,90,180,12,0,180,None,present,inhibit,freq_bottom,,,,,0,48,48,956,,,0.7465903452685583,,,,,,,,,,1465.1625042371888,None,1465.1625042371888,None,None,1,,None,None,005,001,2,33,f,2021_Nov_08_1304,eye_tracking_exp,2021.2.3,85.14228807038445,
12,180,180,-12,180,180,180,0,90,0,j,present,resp,freq_bottom,,,,,0,49,49,680,,,0.7269451484507016,,,,,,,,,,1469.1663500787363,None,1469.1663500787363,None,j,1,1.366786865877657,None,None,005,001,2,33,f,2021_Nov_08_1304,eye_tracking_exp,2021.2.3,85.14228807038445,
0,180,0,180,180,12,180,0,180,12,j,abs,resp,freq_bottom,,,,,0,50,50,13,,,0.9407647182627965,,,,,,,,,,1471.601094680871,None,1471.601094680871,None,j,1,1.955976673445548,None,None,005,001,2,33,f,2021_Nov_08_1304,eye_tracking_exp,2021.2.3,85.14228807038445,
180,12,0,180,0,-12,0,0,180,90,j,present,resp,freq_bottom,,,,,0,51,51,711,,,0.8230630542278548,,,,,,,,,,1474.4266297285576,None,1474.4266297285576,None,j,1,1.9944390129676322,None,None,005,001,2,33,f,2021_Nov_08_1304,eye_tracking_exp,2021.2.3,85.14228807038445,
180,0,180,0,-168,180,12,180,180,0,None,abs,inhibit,freq_bottom,,,,,0,52,52,468,,,0.9708806988113059,,,,,,,,,,1477.7205497008836,None,1477.7205497008836,None,None,1,,None,None,005,001,2,33,f,2021_Nov_08_1304,eye_tracking_exp,2021.2.3,85.14228807038445,
180,180,180,168,180,270,180,180,180,-168,f,present,resp,freq_bottom,,,,,0,53,53,863,,,0.9891196509837861,,,,,,,,,,1481.733073361971,None,1481.733073361971,None,f,1,1.2800527402723674,None,None,005,001,2,33,f,2021_Nov_08_1304,eye_tracking_exp,2021.2.3,85.14228807038445,
180,0,180,-168,180,180,180,0,180,-168,f,abs,resp,freq_bottom,,,,,0,54,54,289,,,1.0427814427936366,,,,,,,,,,1484.109645271601,None,1484.109645271601,None,f,1,2.6306180557403422,None,None,005,001,2,33,f,2021_Nov_08_1304,eye_tracking_exp,2021.2.3,85.14228807038445,
180,12,180,180,180,12,0,0,0,270,j,present,resp,freq_bottom,,,,,0,55,55,571,,,0.7276293623207588,,,,,,,,,,1487.5596063181547,None,1487.5596063181547,None,j,1,1.791039543793886,None,None,005,001,2,33,f,2021_Nov_08_1304,eye_tracking_exp,2021.2.3,85.14228807038445,
0,12,180,180,180,0,90,180,12,0,j,present,resp,freq_bottom,,,,,0,56,56,528,,,0.9086342464081036,,,,,,,,,,1490.3115696110617,None,1490.3115696110617,None,j,1,2.0927230389715987,None,None,005,001,2,33,f,2021_Nov_08_1304,eye_tracking_exp,2021.2.3,85.14228807038445,
180,180,180,180,180,-168,180,0,180,-168,f,abs,resp,freq_bottom,,,,,0,57,57,293,,,0.9427467609993835,,,,,,,,,,1493.418691435887,None,1493.418691435887,None,f,1,1.5776618951931596,None,None,005,001,2,33,f,2021_Nov_08_1304,eye_tracking_exp,2021.2.3,85.14228807038445,
12,180,180,180,-12,0,270,0,0,0,j,present,resp,freq_bottom,,,,,0,58,58,660,,,0.8838833046085419,,,,,,,,,,1496.1368408438575,None,1496.1368408438575,None,j,1,1.8206794787292893,None,None,005,001,2,33,f,2021_Nov_08_1304,eye_tracking_exp,2021.2.3,85.14228807038445,
0,180,0,0,-168,90,180,0,-168,180,f,present,resp,freq_bottom,,,,,0,59,59,830,,,0.9099399061227126,,,,,,,,,,1498.915036513008,None,1498.915036513008,None,f,1,2.1453544113937824,None,None,005,001,2,33,f,2021_Nov_08_1304,eye_tracking_exp,2021.2.3,85.14228807038445,
0,180,0,0,168,180,180,168,180,0,f,abs,resp,freq_bottom,,,,,0,60,60,264,,,1.0715631287906309,,,,,,,,,,1502.1961047157965,None,1502.1961047157965,None,f,1,1.6793915127018408,None,None,005,001,2,33,f,2021_Nov_08_1304,eye_tracking_exp,2021.2.3,85.14228807038445,
0,0,12,180,0,-12,0,0,0,90,j,present,resp,freq_bottom,,,,,0,61,61,678,,,1.0067590959207418,,,,,,,,,,1504.9380173858226,None,1504.9380173858226,None,None,0,,1507.9269655341232,None,005,001,2,33,f,2021_Nov_08_1304,eye_tracking_exp,2021.2.3,85.14228807038445,
12,0,0,0,0,168,180,270,180,180,None,present,inhibit,freq_bottom,,,,,0,62,62,990,,,0.9840779839699503,,,,,,,,,,1509.4210829752155,None,1509.4210829752155,None,None,1,,None,None,005,001,2,33,f,2021_Nov_08_1304,eye_tracking_exp,2021.2.3,85.14228807038445,
-168,0,0,0,12,0,180,180,180,180,None,abs,inhibit,freq_bottom,,,,,0,63,63,436,,,0.924922769070785,,,,,,,,,,1513.7402229266008,None,1513.7402229266008,None,None,1,,None,None,005,001,2,33,f,2021_Nov_08_1304,eye_tracking_exp,2021.2.3,85.14228807038445,
180,0,180,0,-12,180,0,0,-12,0,j,abs,resp,freq_bottom,,,,,0,64,64,116,,,1.0259497837401208,,,,,,,,,,1518.0365003294683,None,1518.0365003294683,None,j,1,1.9661966328822018,None,None,005,001,2,33,f,2021_Nov_08_1304,eye_tracking_exp,2021.2.3,85.14228807038445,
180,0,-168,0,0,0,168,0,180,180,f,abs,resp,freq_bottom,,,,,0,65,65,410,,,1.07441304332966,,,,,,,,,,1521.1314776139188,None,1521.1314776139188,None,None,0,,1524.1198597977818,None,005,001,2,33,f,2021_Nov_08_1304,eye_tracking_exp,2021.2.3,85.14228807038445,
0,180,0,0,12,0,270,0,-12,180,j,present,resp,freq_bottom,,,,,0,66,66,690,,,0.7474017551789863,,,,,,,,,,1525.5081850531642,None,1525.5081850531642,None,None,0,,1528.4969448485026,None,005,001,2,33,f,2021_Nov_08_1304,eye_tracking_exp,2021.2.3,85.14228807038445,
180,0,180,90,0,0,168,0,168,0,f,present,resp,freq_bottom,,,,,0,67,67,770,,,0.9487630386708946,,,,,,,,,,1529.969650722971,None,1529.969650722971,None,f,1,2.1772630336417933,None,None,005,001,2,33,f,2021_Nov_08_1304,eye_tracking_exp,2021.2.3,85.14228807038445,
180,168,180,12,180,180,180,180,0,0,None,abs,inhibit,freq_bottom,,,,,0,68,68,441,,,1.0229391972017847,,,,,,,,,,1533.7094245001936,None,1533.7094245001936,None,None,1,,None,None,005,001,2,33,f,2021_Nov_08_1304,eye_tracking_exp,2021.2.3,85.14228807038445,
12,0,0,180,180,12,180,180,90,0,j,present,resp,freq_bottom,,,,,0,69,69,570,,,0.7546590291468342,,,,,,,,,,1537.4863342981407,None,1537.4863342981407,None,j,1,2.243666811085859,None,None,005,001,2,33,f,2021_Nov_08_1304,eye_tracking_exp,2021.2.3,85.14228807038445,
0,0,180,0,12,180,180,-12,180,180,j,abs,resp,freq_bottom,,,,,0,70,70,194,,,1.0990903008923,,,,,,,,,,1540.8751548856017,None,1540.8751548856017,None,None,0,,1543.864135633452,None,005,001,2,33,f,2021_Nov_08_1304,eye_tracking_exp,2021.2.3,85.14228807038445,
0,270,0,180,180,180,12,180,0,-12,j,present,resp,freq_bottom,,,,,0,71,71,701,,,1.0735055006251688,,,,,,,,,,1545.465704215214,None,1545.465704215214,None,j,1,1.9763640708188177,None,None,005,001,2,33,f,2021_Nov_08_1304,eye_tracking_exp,2021.2.3,85.14228807038445,
-168,180,180,0,168,180,180,0,180,180,f,abs,resp,freq_bottom,,,,,0,72,72,394,,,0.8872972149980101,,,,,,,,,,1548.9008206937142,None,1548.9008206937142,None,f,1,1.148399450990837,None,None,005,001,2,33,f,2021_Nov_08_1304,eye_tracking_exp,2021.2.3,85.14228807038445,
12,0,0,0,0,-12,0,0,0,0,j,abs,resp,freq_bottom,,,,,0,73,73,160,,,0.8543316331265149,,,,,,,,,,1550.9485663592532,None,1550.9485663592532,None,None,0,,1553.937918681626,None,005,001,2,33,f,2021_Nov_08_1304,eye_tracking_exp,2021.2.3,85.14228807038445,
180,0,168,0,0,0,168,180,90,0,f,present,resp,freq_bottom,,,,,0,74,74,747,,,0.9722976092287607,,,,,,,,,,1555.44354466999,None,1555.44354466999,None,f,1,2.1420567252644105,None,None,005,001,2,33,f,2021_Nov_08_1304,eye_tracking_exp,2021.2.3,85.14228807038445,
0,0,12,0,180,12,180,180,180,90,j,present,resp,freq_bottom,,,,,0,75,75,538,,,0.7064074227142206,,,,,,,,,,1558.3279840890027,None,1558.3279840890027,None,j,1,1.1306450711053913,None,None,005,001,2,33,f,2021_Nov_08_1304,eye_tracking_exp,2021.2.3,85.14228807038445,
0,180,12,180,180,0,180,168,0,180,None,abs,inhibit,freq_bottom,,,,,0,76,76,472,,,0.9517691773881127,,,,,,,,,,1560.468283503811,None,1560.468283503811,None,None,1,,None,None,005,001,2,33,f,2021_Nov_08_1304,eye_tracking_exp,2021.2.3,85.14228807038445,
180,180,180,0,-168,0,168,0,270,180,f,present,resp,freq_bottom,,,,,0,77,77,916,,,0.8183241394867742,,,,,,,,,,1564.5634150324368,None,1564.5634150324368,None,f,1,2.220972995430202,None,None,005,001,2,33,f,2021_Nov_08_1304,eye_tracking_exp,2021.2.3,85.14228807038445,
168,180,180,180,180,180,168,180,270,180,f,present,resp,freq_bottom,,,,,0,78,78,733,,,0.7988800369249751,,,,,,,,,,1567.623289844123,None,1567.623289844123,None,f,1,1.3694579161747242,None,None,005,001,2,33,f,2021_Nov_08_1304,eye_tracking_exp,2021.2.3,85.14228807038445,
-12,0,12,0,0,0,0,180,0,180,j,abs,resp,freq_bottom,,,,,0,79,79,169,,,0.8818916900700635,,,,,,,,,,1569.929741627424,None,1569.929741627424,None,j,1,2.5838663746762904,None,None,005,001,2,33,f,2021_Nov_08_1304,eye_tracking_exp,2021.2.3,85.14228807038445,
0,0,-168,180,180,-168,0,0,0,0,f,abs,resp,freq_bottom,,,,,0,80,80,314,,,1.0153315493537687,,,,,,,,,,1573.8955205499406,None,1573.8955205499406,None,f,1,0.9529901922978752,None,None,005,001,2,33,f,2021_Nov_08_1304,eye_tracking_exp,2021.2.3,85.14228807038445,
0,0,-168,0,0,0,270,0,0,-168,f,present,resp,freq_bottom,,,,,0,81,81,792,,,0.8997511391613922,,,,,,,,,,1575.814484101531,None,1575.814484101531,None,f,1,1.1140404291145387,None,None,005,001,2,33,f,2021_Nov_08_1304,eye_tracking_exp,2021.2.3,85.14228807038445,
180,-12,180,180,180,180,270,180,180,-12,j,present,resp,freq_bottom,,,,,0,82,82,597,,,0.7538431169165911,,,,,,,,,,1577.731983691774,None,1577.731983691774,None,j,1,1.5156675089565397,None,None,005,001,2,33,f,2021_Nov_08_1304,eye_tracking_exp,2021.2.3,85.14228807038445,
180,0,180,0,180,0,180,168,0,-168,f,abs,resp,freq_bottom,,,,,0,83,83,361,,,0.940474226461757,,,,,,,,,,1582.0391949238874,None,1582.0391949238874,None,f,1,2.456446801239508,None,None,005,001,2,33,f,2021_Nov_08_1304,eye_tracking_exp,2021.2.3,85.14228807038445,
168,180,180,0,180,180,180,180,-168,180,f,abs,resp,freq_bottom,,,,,0,84,84,367,,,0.9807434016900718,,,,,,,,,,1585.5933749259348,None,1585.5933749259348,None,f,1,1.9102887036751781,None,None,005,001,2,33,f,2021_Nov_08_1304,eye_tracking_exp,2021.2.3,85.14228807038445,
0,0,12,180,180,12,0,0,180,180,j,abs,resp,freq_bottom,,,,,0,85,85,34,,,0.7048828014752007,,,,,,,,,,1588.265196145163,None,1588.265196145163,None,j,1,0.8064811666008609,None,None,005,001,2,33,f,2021_Nov_08_1304,eye_tracking_exp,2021.2.3,85.14228807038445,
180,180,180,270,0,0,12,0,0,-12,j,present,resp,freq_bottom,,,,,0,86,86,656,,,1.0853833697584727,,,,,,,,,,1590.2177565531892,None,1590.2177565531892,None,f,0,2.3100663626610185,1592.5485429962428,None,005,001,2,33,f,2021_Nov_08_1304,eye_tracking_exp,2021.2.3,85.14228807038445,
0,0,-168,180,180,180,90,0,0,12,None,present,inhibit,freq_bottom,,,,,0,87,87,954,,,0.899407180546483,,,,,,,,,,1594.1373075004012,None,1594.1373075004012,None,None,1,,None,None,005,001,2,33,f,2021_Nov_08_1304,eye_tracking_exp,2021.2.3,85.14228807038445,
0,0,180,180,180,0,0,-12,0,12,j,present,resp,freq_bottom,,,,,0,88,88,693,,,0.8452082170080606,,,,,,,,,,1597.9843594595586,None,1597.9843594595586,None,j,1,2.2864573447768635,None,None,005,001,2,33,f,2021_Nov_08_1304,eye_tracking_exp,2021.2.3,85.14228807038445,
-12,180,180,0,180,180,-12,180,270,180,j,present,resp,freq_bottom,,,,,0,89,89,593,,,0.9493513151915508,,,,,,,,,,1601.2785124583097,None,1601.2785124583097,None,j,1,1.696400026921765,None,None,005,001,2,33,f,2021_Nov_08_1304,eye_tracking_exp,2021.2.3,85.14228807038445,
0,180,168,180,180,0,180,-168,0,180,f,abs,resp,freq_bottom,,,,,0,90,90,402,,,0.846411504829146,,,,,,,,,,1603.8797266708716,None,1603.8797266708716,None,f,1,1.2231713522342034,None,None,005,001,2,33,f,2021_Nov_08_1304,eye_tracking_exp,2021.2.3,85.14228807038445,
180,0,180,12,180,180,12,0,180,0,j,abs,resp,freq_bottom,,,,,0,91,91,40,,,0.7434624457036019,,,,,,,,,,1605.9039843594583,None,1605.9039843594583,None,j,1,1.2629841583620873,None,None,005,001,2,33,f,2021_Nov_08_1304,eye_tracking_exp,2021.2.3,85.14228807038445,
180,180,-168,0,0,0,0,180,-168,180,f,abs,resp,freq_bottom,,,,,0,92,92,311,,,0.8743669273338583,,,,,,,,,,1608.094294203107,None,1608.094294203107,None,f,1,0.9279166093729145,None,None,005,001,2,33,f,2021_Nov_08_1304,eye_tracking_exp,2021.2.3,85.14228807038445,
0,180,180,0,0,0,-168,0,-168,180,f,abs,resp,freq_bottom,,,,,0,93,93,336,,,1.0094993537957115,,,,,,,,,,1610.0693766754448,None,1610.0693766754448,None,f,1,1.5127247957243526,None,None,005,001,2,33,f,2021_Nov_08_1304,eye_tracking_exp,2021.2.3,85.14228807038445,
180,180,168,0,0,0,-168,180,180,0,f,abs,resp,freq_bottom,,,,,0,94,94,383,,,0.9482309203068315,,,,,,,,,,1612.5875546985772,None,1612.5875546985772,None,f,1,1.6664902401389554,None,None,005,001,2,33,f,2021_Nov_08_1304,eye_tracking_exp,2021.2.3,85.14228807038445,
180,0,180,180,180,12,0,0,180,12,j,abs,resp,freq_bottom,,,,,0,95,95,65,,,0.8112907443955586,,,,,,,,,,1615.340937883062,None,1615.340937883062,None,j,1,1.0411460205723415,None,None,005,001,2,33,f,2021_Nov_08_1304,eye_tracking_exp,2021.2.3,85.14228807038445,
-168,0,0,0,0,12,0,90,0,0,None,present,inhibit,freq_bottom,,,,,0,96,96,944,,,0.8075913660389293,,,,,,,,,,1617.2369637260563,None,1617.2369637260563,None,None,1,,None,None,005,001,2,33,f,2021_Nov_08_1304,eye_tracking_exp,2021.2.3,85.14228807038445,
0,180,0,180,90,168,0,12,180,180,None,present,inhibit,freq_bottom,,,,,0,97,97,987,,,0.9131351670161197,,,,,,,,,,1621.1671840839335,None,1621.1671840839335,None,None,1,,None,None,005,001,2,33,f,2021_Nov_08_1304,eye_tracking_exp,2021.2.3,85.14228807038445,
168,180,180,-168,180,180,0,0,180,0,f,abs,resp,freq_bottom,,,,,0,98,98,386,,,0.8824394086593038,,,,,,,,,,1625.2853846249054,None,1625.2853846249054,None,f,1,0.9519147089413309,None,None,005,001,2,33,f,2021_Nov_08_1304,eye_tracking_exp,2021.2.3,85.14228807038445,
180,-168,0,0,168,90,0,0,180,180,f,present,resp,freq_bottom,,,,,0,99,99,876,,,0.9927617665157052,,,,,,,,,,1627.285927045221,None,1627.285927045221,None,f,1,1.8156180964906525,None,None,005,001,2,33,f,2021_Nov_08_1304,eye_tracking_exp,2021.2.3,85.14228807038445,
0,0,-12,0,0,0,270,0,12,0,j,present,resp,freq_bottom,,,,,0,100,100,646,,,0.8735724538989732,,,,,,,,,,1630.2635489622626,None,1630.2635489622626,None,j,1,2.245759823039407,None,None,005,001,2,33,f,2021_Nov_08_1304,eye_tracking_exp,2021.2.3,85.14228807038445,
0,0,168,0,0,0,270,0,0,168,f,present,resp,freq_bottom,,,,,0,101,101,722,,,0.7260979223987254,,,,,,,,,,1633.525828654947,None,1633.525828654947,None,f,1,1.1115323765698122,None,None,005,001,2,33,f,2021_Nov_08_1304,eye_tracking_exp,2021.2.3,85.14228807038445,
180,180,12,0,0,0,90,0,-168,180,None,present,inhibit,freq_bottom,,,,,0,102,102,926,,,1.0685006466024682,,,,,,,,,,1636.0073659894297,None,1636.0073659894297,None,None,1,,None,None,005,001,2,33,f,2021_Nov_08_1304,eye_tracking_exp,2021.2.3,85.14228807038445,
0,0,0,0,168,0,270,180,180,168,f,present,resp,freq_bottom,,,,,0,103,103,724,,,1.0379234125666572,,,,,,,,,,1640.0686579760695,None,1640.0686579760695,None,f,1,1.4959121806641633,None,None,005,001,2,33,f,2021_Nov_08_1304,eye_tracking_exp,2021.2.3,85.14228807038445,
0,-12,0,180,0,90,180,0,12,180,j,present,resp,freq_bottom,,,,,0,104,104,645,,,0.7155212332472375,,,,,,,,,,1642.3271775519497,None,1642.3271775519497,None,j,1,1.0773496337496908,1643.4231470097911,None,005,001,2,33,f,2021_Nov_08_1304,eye_tracking_exp,2021.2.3,85.14228807038445,
180,0,180,0,-168,180,-168,180,90,180,f,present,resp,freq_bottom,,,,,0,105,105,832,,,0.847107661088448,,,,,,,,,,1644.798471684724,None,1644.798471684724,None,None,0,,1647.7876489354276,None,005,001,2,33,f,2021_Nov_08_1304,eye_tracking_exp,2021.2.3,85.14228807038445,
0,0,0,0,0,168,180,180,168,0,f,abs,resp,freq_bottom,,,,,0,106,106,274,,,0.8893781069605668,,,,,,,,,,1649.2231550993092,None,1649.2231550993092,None,f,1,1.9570153313834453,None,None,005,001,2,33,f,2021_Nov_08_1304,eye_tracking_exp,2021.2.3,85.14228807038445,
0,12,0,0,0,180,0,-12,0,90,j,present,resp,freq_bottom,,,,,0,107,107,695,,,0.9088825646998888,,,,,,,,,,1652.3886162365707,None,1652.3886162365707,None,j,1,2.6156038492772495,None,None,005,001,2,33,f,2021_Nov_08_1304,eye_tracking_exp,2021.2.3,85.14228807038445,
0,0,-168,180,180,180,180,0,0,-168,f,abs,resp,freq_bottom,,,,,0,108,108,310,,,0.9617486875253138,,,,,,,,,,1656.0016867249506,None,1656.0016867249506,None,None,0,,1658.9794867321325,None,005,001,2,33,f,2021_Nov_08_1304,eye_tracking_exp,2021.2.3,85.14228807038445,
0,180,180,180,180,270,0,168,0,168,f,present,resp,freq_bottom,,,,,0,109,109,763,,,0.815087127957996,,,,,,,,,,1660.3326231863102,None,1660.3326231863102,None,f,1,1.7431375211417617,None,None,005,001,2,33,f,2021_Nov_08_1304,eye_tracking_exp,2021.2.3,85.14228807038445,
180,180,180,168,180,180,270,0,168,180,f,present,resp,freq_bottom,,,,,0,110,110,752,,,0.9290569163212695,,,,,,,,,,1663.0504505227836,None,1663.0504505227836,None,f,1,1.393355198611971,None,None,005,001,2,33,f,2021_Nov_08_1304,eye_tracking_exp,2021.2.3,85.14228807038445,
180,0,180,12,180,180,12,0,270,180,j,present,resp,freq_bottom,,,,,0,111,111,544,,,1.057608171018574,,,,,,,,,,1665.5578172668356,None,1665.5578172668356,None,j,1,2.3420220731495647,None,None,005,001,2,33,f,2021_Nov_08_1304,eye_tracking_exp,2021.2.3,85.14228807038445,
180,12,180,0,180,270,180,180,180,168,None,present,inhibit,freq_bottom,,,,,0,112,112,931,,,0.9390157108962645,,,,,,,,,,1668.8881168295484,None,1668.8881168295484,None,None,1,,None,None,005,001,2,33,f,2021_Nov_08_1304,eye_tracking_exp,2021.2.3,85.14228807038445,
-168,180,180,0,0,180,-168,180,0,90,f,present,resp,freq_bottom,,,,,0,113,113,803,,,0.9579756448245615,,,,,,,,,,1672.8634739832924,None,1672.8634739832924,None,f,1,2.427458555492194,None,None,005,001,2,33,f,2021_Nov_08_1304,eye_tracking_exp,2021.2.3,85.14228807038445,
12,0,0,0,0,12,0,0,180,0,j,abs,resp,freq_bottom,,,,,0,114,114,20,,,0.7584473184182802,,,,,,,,,,1676.3349676373982,None,1676.3349676373982,None,j,1,1.5000405516620958,None,None,005,001,2,33,f,2021_Nov_08_1304,eye_tracking_exp,2021.2.3,85.14228807038445,
0,180,0,0,-168,180,12,180,270,180,None,present,inhibit,freq_bottom,,,,,0,115,115,972,,,0.8580682952749125,,,,,,,,,,1678.7369511993784,None,1678.7369511993784,None,None,1,,None,None,005,001,2,33,f,2021_Nov_08_1304,eye_tracking_exp,2021.2.3,85.14228807038445,
-12,0,0,0,0,-12,0,90,0,0,j,present,resp,freq_bottom,,,,,0,116,116,594,,,0.766533154769804,,,,,,,,,,1682.9137642249516,None,1682.9137642249516,None,j,1,1.6092864787569852,None,None,005,001,2,33,f,2021_Nov_08_1304,eye_tracking_exp,2021.2.3,85.14228807038445,
0,0,0,0,168,0,168,0,0,0,f,abs,resp,freq_bottom,,,,,0,117,117,272,,,0.982123692735908,,,,,,,,,,1685.5614367226117,None,1685.5614367226117,None,f,1,2.2418188994633965,None,None,005,001,2,33,f,2021_Nov_08_1304,eye_tracking_exp,2021.2.3,85.14228807038445,
180,12,180,0,180,12,0,0,90,0,j,present,resp,freq_bottom,,,,,0,118,118,531,,,0.9031066050492937,,,,,,,,,,1688.762447670928,None,1688.762447670928,None,j,1,1.9837843928398797,None,None,005,001,2,33,f,2021_Nov_08_1304,eye_tracking_exp,2021.2.3,85.14228807038445,
0,180,180,180,0,0,12,0,0,168,None,abs,inhibit,freq_bottom,,,,,0,119,119,502,,,0.914968241970858,,,,,,,,,,1691.7051557700142,None,1691.7051557700142,None,None,1,,None,None,005,001,2,33,f,2021_Nov_08_1304,eye_tracking_exp,2021.2.3,85.14228807038445,
180,168,180,180,180,180,180,180,180,168,f,abs,resp,freq_bottom,,,,,0,120,120,217,,,1.0603837293844163,,,,,,,,,,1695.7765339975595,None,1695.7765339975595,None,f,1,1.4977709588056314,None,None,005,001,2,33,f,2021_Nov_08_1304,eye_tracking_exp,2021.2.3,85.14228807038445,
0,180,180,0,180,12,0,12,180,180,j,abs,resp,freq_bottom,,,,,0,121,121,63,,,0.9159447296228609,,,,,,,,,,1698.235978797009,None,1698.235978797009,None,j,1,1.8703186348939198,None,None,005,001,2,33,f,2021_Nov_08_1304,eye_tracking_exp,2021.2.3,85.14228807038445,
180,0,180,0,-12,180,-12,180,270,180,j,present,resp,freq_bottom,,,,,0,122,122,622,,,0.8948027262108429,,,,,,,,,,1701.0366584976618,None,1701.0366584976618,None,j,1,2.318461350903817,None,None,005,001,2,33,f,2021_Nov_08_1304,eye_tracking_exp,2021.2.3,85.14228807038445,
180,180,0,-168,0,-168,0,90,0,180,f,present,resp,freq_bottom,,,,,0,123,123,825,,,1.0503267053802978,,,,,,,,,,1704.4615115506567,None,1704.4615115506567,None,f,1,1.9959470440735458,None,None,005,001,2,33,f,2021_Nov_08_1304,eye_tracking_exp,2021.2.3,85.14228807038445,
12,180,0,180,180,180,0,180,12,0,j,abs,resp,freq_bottom,,,,,0,124,124,17,,,0.9439632614577902,,,,,,,,,,1707.5563400241917,None,1707.5563400241917,None,j,1,1.4770533400442218,None,None,005,001,2,33,f,2021_Nov_08_1304,eye_tracking_exp,2021.2.3,85.14228807038445,
180,180,180,-168,180,180,-168,180,90,180,f,present,resp,freq_bottom,,,,,0,125,125,845,,,1.0736727882894388,,,,,,,,,,1711.862953597858,None,1711.862953597858,None,f,1,1.7465426650487643,None,None,005,001,2,33,f,2021_Nov_08_1304,eye_tracking_exp,2021.2.3,85.14228807038445,
180,180,180,180,12,270,0,0,0,168,None,present,inhibit,freq_bottom,,,,,0,126,126,1004,,,1.005245298863683,,,,,,,,,,1714.6758720153666,None,1714.6758720153666,None,None,1,,None,None,005,001,2,33,f,2021_Nov_08_1304,eye_tracking_exp,2021.2.3,85.14228807038445,
12,180,0,0,0,0,12,0,90,0,j,present,resp,freq_bottom,,,,,0,127,127,562,,,0.7274639060965411,,,,,,,,,,1718.6542651532836,None,1718.6542651532836,None,j,1,2.026432454415044,None,None,005,001,2,33,f,2021_Nov_08_1304,eye_tracking_exp,2021.2.3,85.14228807038445,
0,-168,0,0,-168,0,270,0,0,0,f,present,resp,freq_bottom,,,,,0,128,128,806,,,0.900619946779401,,,,,,,,,,1721.631696000728,None,1721.631696000728,None,f,1,1.432902378764993,None,None,005,001,2,33,f,2021_Nov_08_1304,eye_tracking_exp,2021.2.3,85.14228807038445,
12,0,180,180,180,12,180,0,0,0,j,abs,resp,freq_bottom,,,,,0,129,129,66,,,0.8466292119815109,,,,,,,,,,1723.9734530984533,None,1723.9734530984533,None,j,1,2.0352092799985257,None,None,005,001,2,33,f,2021_Nov_08_1304,eye_tracking_exp,2021.2.3,85.14228807038445,
12,0,0,0,0,-12,180,0,0,0,j,abs,resp,freq_bottom,,,,,0,130,130,206,,,0.975843196410582,,,,,,,,,,1727.0576332906603,None,1727.0576332906603,None,j,1,1.9428858405299252,None,None,005,001,2,33,f,2021_Nov_08_1304,eye_tracking_exp,2021.2.3,85.14228807038445,
180,-168,180,0,0,-168,0,0,180,180,f,abs,resp,freq_bottom,,,,,0,131,131,347,,,1.0987648584775167,,,,,,,,,,1730.1394125862644,None,1730.1394125862644,None,f,1,1.6613887121566222,None,None,005,001,2,33,f,2021_Nov_08_1304,eye_tracking_exp,2021.2.3,85.14228807038445,
0,-168,0,0,168,180,180,180,0,0,f,abs,resp,freq_bottom,,,,,0,132,132,372,,,0.8784885125475286,,,,,,,,,,1732.7775270764942,None,1732.7775270764942,None,f,1,1.5503652039551525,None,None,005,001,2,33,f,2021_Nov_08_1304,eye_tracking_exp,2021.2.3,85.14228807038445,
180,168,0,180,0,0,180,0,180,-168,f,abs,resp,freq_bottom,,,,,0,133,133,357,,,0.9694554417023722,,,,,,,,,,1735.3417589088094,None,1735.3417589088094,None,f,1,2.21812234574827,None,None,005,001,2,33,f,2021_Nov_08_1304,eye_tracking_exp,2021.2.3,85.14228807038445,
168,180,0,180,180,180,0,180,168,180,f,abs,resp,freq_bottom,,,,,0,134,134,227,,,0.7374825380470239,,,,,,,,,,1738.3537845211904,None,1738.3537845211904,None,f,1,1.350055749691819,None,None,005,001,2,33,f,2021_Nov_08_1304,eye_tracking_exp,2021.2.3,85.14228807038445,
0,180,180,-12,180,180,-12,180,0,180,j,abs,resp,freq_bottom,,,,,0,135,135,131,,,1.0017241034854707,,,,,,,,,,1740.7660653156163,None,1740.7660653156163,None,j,1,1.4818198170796677,None,None,005,001,2,33,f,2021_Nov_08_1304,eye_tracking_exp,2021.2.3,85.14228807038445,
0,180,168,0,0,0,0,180,-168,180,f,abs,resp,freq_bottom,,,,,0,136,136,381,,,0.8658338388386693,,,,,,,,,,1743.1666519264363,None,1743.1666519264363,None,f,1,1.3212929841793084,None,None,005,001,2,33,f,2021_Nov_08_1304,eye_tracking_exp,2021.2.3,85.14228807038445,
180,0,0,0,12,180,12,180,270,180,j,present,resp,freq_bottom,,,,,0,137,137,552,,,1.0402179974384826,,,,,,,,,,1745.5809813612068,None,1745.5809813612068,None,j,1,1.7389771542912058,None,None,005,001,2,33,f,2021_Nov_08_1304,eye_tracking_exp,2021.2.3,85.14228807038445,
-168,0,0,0,0,-168,180,180,0,0,f,abs,resp,freq_bottom,,,,,0,138,138,346,,,0.7676750619800357,,,,,,,,,,1748.1327634851223,None,1748.1327634851223,None,f,1,2.7553228109572956,None,None,005,001,2,33,f,2021_Nov_08_1304,eye_tracking_exp,2021.2.3,85.14228807038445,
-168,0,0,0,0,0,0,0,-168,0,f,abs,resp,freq_bottom,,,,,0,139,139,280,,,1.0721402136116884,,,,,,,,,,1752.016074899282,None,1752.016074899282,None,f,1,1.1909940855293826,None,None,005,001,2,33,f,2021_Nov_08_1304,eye_tracking_exp,2021.2.3,85.14228807038445,
180,0,0,168,180,168,0,270,180,180,f,present,resp,freq_bottom,,,,,0,140,140,783,,,0.9158846667854739,,,,,,,,,,1754.1697745408965,None,1754.1697745408965,None,f,1,1.0852960763077135,None,None,005,001,2,33,f,2021_Nov_08_1304,eye_tracking_exp,2021.2.3,85.14228807038445,
-12,180,0,180,0,0,180,-12,180,0,j,abs,resp,freq_bottom,,,,,0,141,141,120,,,0.9795891976468925,,,,,,,,,,1756.3591459400413,None,1756.3591459400413,None,j,1,1.1679926870710915,1757.5495750135306,None,005,001,2,33,f,2021_Nov_08_1304,eye_tracking_exp,2021.2.3,85.14228807038445,
168,0,180,180,180,0,0,-168,0,90,f,present,resp,freq_bottom,,,,,0,142,142,872,,,0.8726271968320479,,,,,,,,,,1758.9602711075313,None,1758.9602711075313,None,f,1,2.566875971315312,None,None,005,001,2,33,f,2021_Nov_08_1304,eye_tracking_exp,2021.2.3,85.14228807038445,
180,180,180,12,180,180,270,180,12,180,j,present,resp,freq_bottom,,,,,0,143,143,507,,,0.7377566209366583,,,,,,,,,,1762.5253040436437,None,1762.5253040436437,None,j,1,1.9459064304683125,None,None,005,001,2,33,f,2021_Nov_08_1304,eye_tracking_exp,2021.2.3,85.14228807038445,
180,180,180,180,90,168,0,0,168,0,f,present,resp,freq_bottom,,,,,0,144,144,720,,,0.8099052144357174,,,,,,,,,,1765.3255620630553,None,1765.3255620630553,None,f,1,2.4732518701057415,None,None,005,001,2,33,f,2021_Nov_08_1304,eye_tracking_exp,2021.2.3,85.14228807038445,
-12,0,-12,0,0,0,90,0,0,0,j,present,resp,freq_bottom,,,,,0,145,145,588,,,0.9708159845258757,,,,,,,,,,1769.221340692784,None,1769.221340692784,None,j,1,2.5129723108402686,None,None,005,001,2,33,f,2021_Nov_08_1304,eye_tracking_exp,2021.2.3,85.14228807038445,
0,0,168,0,168,180,270,0,0,0,f,present,resp,freq_bottom,,,,,0,146,146,742,,,0.8158762480791186,,,,,,,,,,1772.6111751866702,None,1772.6111751866702,None,f,1,2.899228702088294,None,None,005,001,2,33,f,2021_Nov_08_1304,eye_tracking_exp,2021.2.3,85.14228807038445,
0,0,0,180,180,12,0,-12,0,270,j,present,resp,freq_bottom,,,,,0,147,147,699,,,0.9256602010703021,,,,,,,,,,1776.482142237277,None,1776.482142237277,None,j,1,2.1489255715350737,None,None,005,001,2,33,f,2021_Nov_08_1304,eye_tracking_exp,2021.2.3,85.14228807038445,
0,-168,0,180,-168,0,0,0,0,0,f,abs,resp,freq_bottom,,,,,0,148,148,323,,,0.8640363903526701,,,,,,,,,,1779.6594907406725,None,1779.6594907406725,None,f,1,1.4519942458136939,None,None,005,001,2,33,f,2021_Nov_08_1304,eye_tracking_exp,2021.2.3,85.14228807038445,
180,180,168,0,0,168,180,0,180,0,f,abs,resp,freq_bottom,,,,,0,149,149,278,,,1.097662100439606,,,,,,,,,,1782.2834090317047,None,1782.2834090317047,None,f,1,1.9620951263314055,None,None,005,001,2,33,f,2021_Nov_08_1304,eye_tracking_exp,2021.2.3,85.14228807038445,
0,180,-12,0,-12,180,180,0,180,270,j,present,resp,freq_bottom,,,,,0,150,150,616,,,0.750754919833603,,,,,,,,,,1785.119558855622,None,1785.119558855622,None,j,1,1.6219897392220446,None,None,005,001,2,33,f,2021_Nov_08_1304,eye_tracking_exp,2021.2.3,85.14228807038445,
0,0,0,-168,0,180,0,-168,0,0,f,abs,resp,freq_bottom,,,,,0,151,151,333,,,0.9585843196625956,,,,,,,,,,1787.7447322293956,None,1787.7447322293956,None,f,1,1.668879666536668,None,None,005,001,2,33,f,2021_Nov_08_1304,eye_tracking_exp,2021.2.3,85.14228807038445,
0,0,0,0,-12,0,270,0,12,0,j,present,resp,freq_bottom,,,,,0,152,152,648,,,0.951865931679788,,,,,,,,,,1790.4041713541083,None,1790.4041713541083,None,j,1,1.8894412904046476,None,None,005,001,2,33,f,2021_Nov_08_1304,eye_tracking_exp,2021.2.3,85.14228807038445,
180,-12,0,180,0,90,180,12,180,180,j,present,resp,freq_bottom,,,,,0,153,153,669,,,0.7800100686880949,,,,,,,,,,1793.1457770450252,None,1793.1457770450252,None,j,1,2.5238973865052685,None,None,005,001,2,33,f,2021_Nov_08_1304,eye_tracking_exp,2021.2.3,85.14228807038445,
-168,180,180,0,-168,180,0,0,180,180,f,abs,resp,freq_bottom,,,,,0,154,154,324,,,0.9426484429448565,,,,,,,,,,1796.664732024139,None,1796.664732024139,None,f,1,2.204047791179619,None,None,005,001,2,33,f,2021_Nov_08_1304,eye_tracking_exp,2021.2.3,85.14228807038445,
0,12,180,0,0,270,180,12,180,180,j,present,resp,freq_bottom,,,,,0,155,155,529,,,0.8572897024096209,,,,,,,,,,1799.7717394486863,None,1799.7717394486863,None,j,1,1.4010399392136605,None,None,005,001,2,33,f,2021_Nov_08_1304,eye_tracking_exp,2021.2.3,85.14228807038445,
0,0,0,180,12,90,0,180,0,12,j,present,resp,freq_bottom,,,,,0,156,156,549,,,1.035899824498332,,,,,,,,,,1802.255892293495,None,1802.255892293495,None,j,1,2.2609228404180612,None,None,005,001,2,33,f,2021_Nov_08_1304,eye_tracking_exp,2021.2.3,85.14228807038445,
0,180,180,0,180,180,0,-168,180,-168,f,abs,resp,freq_bottom,,,,,0,157,157,291,,,1.0589035299682121,,,,,,,,,,1805.6206728245597,None,1805.6206728245597,None,f,1,2.1774842880076903,None,None,005,001,2,33,f,2021_Nov_08_1304,eye_tracking_exp,2021.2.3,85.14228807038445,
0,0,270,0,0,-168,0,0,-168,0,f,present,resp,freq_bottom,,,,,0,158,158,790,,,0.8551381656506675,,,,,,,,,,1808.7044947235518,None,1808.7044947235518,None,f,1,2.2124630032158166,None,None,005,001,2,33,f,2021_Nov_08_1304,eye_tracking_exp,2021.2.3,85.14228807038445,
180,180,180,0,12,0,180,168,0,180,None,abs,inhibit,freq_bottom,,,,,0,159,159,474,,,1.043594861692954,,,,,,,,,,1811.9993757789562,None,1811.9993757789562,None,None,1,,None,None,005,001,2,33,f,2021_Nov_08_1304,eye_tracking_exp,2021.2.3,85.14228807038445,
-168,180,0,0,168,180,180,90,0,180,f,present,resp,freq_bottom,,,,,0,160,160,898,,,0.7367609982243002,,,,,,,,,,1815.753434498598,None,1815.753434498598,None,f,1,2.1066493863218057,None,None,005,001,2,33,f,2021_Nov_08_1304,eye_tracking_exp,2021.2.3,85.14228807038445,
12,0,0,0,0,270,0,-12,180,180,j,present,resp,freq_bottom,,,,,0,161,161,662,,,0.8728074176720318,,,,,,,,,,1818.779030579888,None,1818.779030579888,None,j,1,1.6249840684140509,None,None,005,001,2,33,f,2021_Nov_08_1304,eye_tracking_exp,2021.2.3,85.14228807038445,
0,-12,0,0,0,0,-12,0,90,0,j,present,resp,freq_bottom,,,,,0,162,162,600,,,0.9104397318552699,,,,,,,,,,1821.366990659928,None,1821.366990659928,None,j,1,1.5970516859197232,None,None,005,001,2,33,f,2021_Nov_08_1304,eye_tracking_exp,2021.2.3,85.14228807038445,
180,180,180,0,12,0,-168,0,0,180,None,abs,inhibit,freq_bottom,,,,,0,163,163,482,,,0.7785967917455743,,,,,,,,,,1823.8038158982563,None,1823.8038158982563,None,None,1,,None,None,005,001,2,33,f,2021_Nov_08_1304,eye_tracking_exp,2021.2.3,85.14228807038445,
168,180,180,0,0,-168,180,90,0,0,f,present,resp,freq_bottom,,,,,0,164,164,920,,,1.0696965496960824,,,,,,,,,,1828.1921094596364,None,1828.1921094596364,None,j,0,2.579115291871858,1830.7832229425985,None,005,001,2,33,f,2021_Nov_08_1304,eye_tracking_exp,2021.2.3,85.14228807038445,
0,0,0,0,168,0,0,0,0,168,f,abs,resp,freq_bottom,,,,,0,165,165,220,,,0.7046677596667819,,,,,,,,,,1832.0171014833104,None,1832.0171014833104,None,f,1,1.378131207999104,None,None,005,001,2,33,f,2021_Nov_08_1304,eye_tracking_exp,2021.2.3,85.14228807038445,
180,180,180,168,180,180,180,180,180,168,f,abs,resp,freq_bottom,,,,,0,166,166,219,,,0.8355041609865039,,,,,,,,,,1834.2879699504592,None,1834.2879699504592,None,f,1,2.067269127946929,None,None,005,001,2,33,f,2021_Nov_08_1304,eye_tracking_exp,2021.2.3,85.14228807038445,
0,180,168,180,180,270,180,-168,0,180,f,present,resp,freq_bottom,,,,,0,167,167,906,,,1.015739087366538,,,,,,,,,,1838.5847303096452,None,1838.5847303096452,None,f,1,2.538572618002945,None,None,005,001,2,33,f,2021_Nov_08_1304,eye_tracking_exp,2021.2.3,85.14228807038445,
180,180,180,270,0,0,12,0,-12,180,j,present,resp,freq_bottom,,,,,0,168,168,700,,,1.0245492858663752,,,,,,,,,,1842.3604891623108,None,1842.3604891623108,None,j,1,2.153999933223531,None,None,005,001,2,33,f,2021_Nov_08_1304,eye_tracking_exp,2021.2.3,85.14228807038445,
0,0,0,-168,0,0,0,180,180,168,f,abs,resp,freq_bottom,,,,,0,169,169,387,,,0.7740804551330367,,,,,,,,,,1845.3260972390308,None,1845.3260972390308,None,f,1,1.3802888153586537,None,None,005,001,2,33,f,2021_Nov_08_1304,eye_tracking_exp,2021.2.3,85.14228807038445,
0,0,0,168,180,168,0,0,0,0,f,abs,resp,freq_bottom,,,,,0,170,170,279,,,1.0926169062698428,,,,,,,,,,1847.834439856695,None,1847.834439856695,None,f,1,1.4000444454977696,None,None,005,001,2,33,f,2021_Nov_08_1304,eye_tracking_exp,2021.2.3,85.14228807038445,
180,-12,0,180,180,180,0,180,0,-12,j,abs,resp,freq_bottom,,,,,0,171,171,77,,,0.7398046468674396,,,,,,,,,,1850.010088051993,None,1850.010088051993,None,j,1,1.4484846626000945,None,None,005,001,2,33,f,2021_Nov_08_1304,eye_tracking_exp,2021.2.3,85.14228807038445,
0,0,180,180,180,90,180,168,180,168,f,present,resp,freq_bottom,,,,,0,172,172,725,,,0.7918657223501319,,,,,,,,,,1852.2946902876574,None,1852.2946902876574,None,None,0,,1855.2828786852951,None,005,001,2,33,f,2021_Nov_08_1304,eye_tracking_exp,2021.2.3,85.14228807038445,
90,180,180,0,180,180,12,180,12,180,j,present,resp,freq_bottom,,,,,0,173,173,509,,,0.8920319694016429,,,,,,,,,,1856.6945814413775,None,1856.6945814413775,None,j,1,2.268014752138697,None,None,005,001,2,33,f,2021_Nov_08_1304,eye_tracking_exp,2021.2.3,85.14228807038445,
-168,0,0,0,0,12,0,0,0,0,None,abs,inhibit,freq_bottom,,,,,0,174,174,440,,,0.7565926124953488,,,,,,,,,,1859.778570262144,None,1859.778570262144,None,None,1,,1862.7684647029855,None,005,001,2,33,f,2021_Nov_08_1304,eye_tracking_exp,2021.2.3,85.14228807038445,
0,-168,180,0,180,180,180,-168,0,180,f,abs,resp,freq_bottom,,,,,0,175,175,305,,,1.0213681352287984,,,,,,,,,,1864.3332769884291,None,1864.3332769884291,None,f,1,1.6044439360994147,None,None,005,001,2,33,f,2021_Nov_08_1304,eye_tracking_exp,2021.2.3,85.14228807038445,
0,-12,0,180,-12,0,0,180,0,0,j,abs,resp,freq_bottom,,,,,0,176,176,113,,,0.8880919517059254,,,,,,,,,,1866.875376139964,None,1866.875376139964,None,j,1,1.270383049191878,None,None,005,001,2,33,f,2021_Nov_08_1304,eye_tracking_exp,2021.2.3,85.14228807038445,
180,-168,180,180,180,-168,0,0,180,90,f,present,resp,freq_bottom,,,,,0,177,177,851,,,1.0640623030169374,,,,,,,,,,1869.2650494471818,None,1869.2650494471818,None,f,1,2.176786114276183,None,None,005,001,2,33,f,2021_Nov_08_1304,eye_tracking_exp,2021.2.3,85.14228807038445,
0,-168,180,0,180,180,180,90,180,-168,f,present,resp,freq_bottom,,,,,0,178,178,791,,,0.882589294370342,,,,,,,,,,1872.3596279908197,None,1872.3596279908197,None,f,1,2.0733263057481963,None,None,005,001,2,33,f,2021_Nov_08_1304,eye_tracking_exp,2021.2.3,85.14228807038445,
0,168,0,0,0,270,0,168,0,0,f,present,resp,freq_bottom,,,,,0,179,179,765,,,0.7639155115147889,,,,,,,,,,1875.2544814573448,None,1875.2544814573448,None,f,1,2.106729979659576,None,None,005,001,2,33,f,2021_Nov_08_1304,eye_tracking_exp,2021.2.3,85.14228807038445,
-168,0,12,0,0,0,0,0,0,0,None,abs,inhibit,freq_bottom,,,,,0,180,180,434,,,0.9782561177440767,,,,,,,,,,1878.3969958305788,None,1878.3969958305788,None,None,1,,None,None,005,001,2,33,f,2021_Nov_08_1304,eye_tracking_exp,2021.2.3,85.14228807038445,
180,0,12,0,0,12,180,180,90,0,j,present,resp,freq_bottom,,,,,0,181,181,572,,,0.8584025419250046,,,,,,,,,,1882.25785671833,None,1882.25785671833,None,j,1,1.3271566776056716,None,None,005,001,2,33,f,2021_Nov_08_1304,eye_tracking_exp,2021.2.3,85.14228807038445,
180,180,180,0,-168,0,270,180,180,-168,f,present,resp,freq_bottom,,,,,0,182,182,794,,,0.9880466394210633,,,,,,,,,,1884.6223269499606,None,1884.6223269499606,None,f,1,2.083357308525592,None,None,005,001,2,33,f,2021_Nov_08_1304,eye_tracking_exp,2021.2.3,85.14228807038445,
180,180,0,12,180,180,12,180,180,0,j,abs,resp,freq_bottom,,,,,0,183,183,61,,,0.9996513142195016,,,,,,,,,,1887.7433171673765,None,1887.7433171673765,None,j,1,1.5057379270037927,None,None,005,001,2,33,f,2021_Nov_08_1304,eye_tracking_exp,2021.2.3,85.14228807038445,
180,90,180,-168,180,180,168,0,180,0,f,present,resp,freq_bottom,,,,,0,184,184,894,,,0.9720265089627615,,,,,,,,,,1890.2608374643714,None,1890.2608374643714,None,f,1,1.5952731992692861,None,None,005,001,2,33,f,2021_Nov_08_1304,eye_tracking_exp,2021.2.3,85.14228807038445,
180,168,180,0,180,180,180,0,180,12,None,abs,inhibit,freq_bottom,,,,,0,185,185,443,,,0.9377532835074122,,,,,,,,,,1892.8499213233954,None,1892.8499213233954,None,None,1,,None,None,005,001,2,33,f,2021_Nov_08_1304,eye_tracking_exp,2021.2.3,85.14228807038445,
0,180,180,-12,180,180,180,0,-12,180,j,abs,resp,freq_bottom,,,,,0,186,186,108,,,0.8100909398410077,,,,,,,,,,1896.6629402561884,None,1896.6629402561884,None,j,1,1.753881488188199,1898.4295658011397,None,005,001,2,33,f,2021_Nov_08_1304,eye_tracking_exp,2021.2.3,85.14228807038445,
180,180,0,0,180,180,-168,180,180,12,None,abs,inhibit,freq_bottom,,,,,0,187,187,477,,,0.7164137648104687,,,,,,,,,,1899.6757005658728,None,1899.6757005658728,None,None,1,,None,None,005,001,2,33,f,2021_Nov_08_1304,eye_tracking_exp,2021.2.3,85.14228807038445,
-12,180,0,180,0,180,0,180,-12,180,j,abs,resp,freq_bottom,,,,,0,188,188,87,,,0.7477022821368937,,,,,,,,,,1903.7358473423374,None,1903.7358473423374,None,j,1,2.9034989415049495,None,None,005,001,2,33,f,2021_Nov_08_1304,eye_tracking_exp,2021.2.3,85.14228807038445,
180,180,180,168,180,180,180,0,168,180,f,abs,resp,freq_bottom,,,,,0,189,189,248,,,0.9156776661801819,,,,,,,,,,1907.6187192662437,None,1907.6187192662437,None,f,1,1.6125986535735137,None,None,005,001,2,33,f,2021_Nov_08_1304,eye_tracking_exp,2021.2.3,85.14228807038445,
180,12,0,0,0,0,12,0,180,180,j,abs,resp,freq_bottom,,,,,0,190,190,26,,,0.7414472429694896,,,,,,,,,,1910.3014184728963,None,1910.3014184728963,None,j,1,1.345925567609811,None,None,005,001,2,33,f,2021_Nov_08_1304,eye_tracking_exp,2021.2.3,85.14228807038445,
0,0,-12,0,0,0,12,0,0,0,j,abs,resp,freq_bottom,,,,,0,191,191,200,,,0.9698303085761513,,,,,,,,,,1912.667382548796,None,1912.667382548796,None,j,1,2.084108909300994,None,None,005,001,2,33,f,2021_Nov_08_1304,eye_tracking_exp,2021.2.3,85.14228807038445,
0,0,0,12,0,0,0,12,0,270,j,present,resp,freq_bottom,,,,,0,192,192,543,,,0.8310113390900442,,,,,,,,,,1915.6229596227386,None,1915.6229596227386,None,j,1,1.7368995365686715,None,None,005,001,2,33,f,2021_Nov_08_1304,eye_tracking_exp,2021.2.3,85.14228807038445,
180,180,-12,0,-12,180,180,0,0,180,j,abs,resp,freq_bottom,,,,,0,193,193,112,,,0.7967193857743669,,,,,,,,,,1918.4345058406034,None,1918.4345058406034,None,j,1,1.2766539351687243,None,None,005,001,2,33,f,2021_Nov_08_1304,eye_tracking_exp,2021.2.3,85.14228807038445,
-12,180,180,-12,180,270,180,180,180,180,j,present,resp,freq_bottom,,,,,0,194,194,589,,,1.0199992978140577,,,,,,,,,,1920.7768618041628,None,1920.7768618041628,None,None,0,,1923.7646562905502,None,005,001,2,33,f,2021_Nov_08_1304,eye_tracking_exp,2021.2.3,85.14228807038445,
0,180,0,0,168,90,180,168,180,180,f,present,resp,freq_bottom,,,,,0,195,195,768,,,0.8930162297246022,,,,,,,,,,1925.1776889875982,None,1925.1776889875982,None,None,0,,1928.1545315338772,None,005,001,2,33,f,2021_Nov_08_1304,eye_tracking_exp,2021.2.3,85.14228807038445,
180,0,180,0,180,168,0,0,180,168,f,abs,resp,freq_bottom,,,,,0,196,196,275,,,0.8509414040231225,,,,,,,,,,1929.5446564052545,None,1929.5446564052545,None,f,1,2.357942124559486,None,None,005,001,2,33,f,2021_Nov_08_1304,eye_tracking_exp,2021.2.3,85.14228807038445,
0,0,0,180,180,180,-168,180,180,-168,f,abs,resp,freq_bottom,,,,,0,197,197,337,,,0.7232833326315211,,,,,,,,,,1932.9803213410232,None,1932.9803213410232,None,f,1,1.866347224702622,None,None,005,001,2,33,f,2021_Nov_08_1304,eye_tracking_exp,2021.2.3,85.14228807038445,
-12,180,180,180,180,0,0,-12,0,0,j,abs,resp,freq_bottom,,,,,0,198,198,88,,,1.078980424943004,,,,,,,,,,1936.2403423073665,None,1936.2403423073665,None,j,1,1.23036468477585,None,None,005,001,2,33,f,2021_Nov_08_1304,eye_tracking_exp,2021.2.3,85.14228807038445,
180,180,180,180,0,-168,180,180,-168,0,f,abs,resp,freq_bottom,,,,,0,199,199,344,,,0.8335842352685058,,,,,,,,,,1938.356467645397,None,1938.356467645397,None,j,0,1.9132679404792725,1940.2877571478275,None,005,001,2,33,f,2021_Nov_08_1304,eye_tracking_exp,2021.2.3,85.14228807038445,
0,180,180,180,180,0,12,0,0,12,j,abs,resp,freq_bottom,,,,,0,200,200,12,,,0.8094909333883019,,,,,,,,,,1941.7225473289654,None,1941.7225473289654,None,j,1,0.963216188691149,None,None,005,001,2,33,f,2021_Nov_08_1304,eye_tracking_exp,2021.2.3,85.14228807038445,
180,180,180,0,168,0,168,0,270,180,f,present,resp,freq_bottom,,,,,0,201,201,776,,,1.0332862104577976,,,,,,,,,,1943.9945066737018,None,1943.9945066737018,None,f,1,2.8839932412629423,None,None,005,001,2,33,f,2021_Nov_08_1304,eye_tracking_exp,2021.2.3,85.14228807038445,
180,180,168,180,180,168,0,270,180,180,f,present,resp,freq_bottom,,,,,0,202,202,748,,,1.0538699602930515,,,,,,,,,,1947.9710014914308,None,1947.9710014914308,None,None,0,,1950.9606541522626,None,005,001,2,33,f,2021_Nov_08_1304,eye_tracking_exp,2021.2.3,85.14228807038445,
0,0,-12,0,0,0,0,0,-168,0,None,abs,inhibit,freq_bottom,,,,,0,203,203,492,,,1.0994416546334094,,,,,,,,,,1952.5959551200758,None,1952.5959551200758,None,None,1,,None,None,005,001,2,33,f,2021_Nov_08_1304,eye_tracking_exp,2021.2.3,85.14228807038445,
0,180,0,0,0,0,12,0,12,180,j,abs,resp,freq_bottom,,,,,0,204,204,56,,,1.0908553333899913,,,,,,,,,,1957.0208658259799,None,1957.0208658259799,None,j,1,1.3281663581619796,None,None,005,001,2,33,f,2021_Nov_08_1304,eye_tracking_exp,2021.2.3,85.14228807038445,
0,-168,0,0,0,180,0,-168,0,0,f,abs,resp,freq_bottom,,,,,0,205,205,331,,,0.8591379329258156,,,,,,,,,,1959.4920461621732,None,1959.4920461621732,None,f,1,1.1609877074879478,None,None,005,001,2,33,f,2021_Nov_08_1304,eye_tracking_exp,2021.2.3,85.14228807038445,
0,0,180,-12,180,90,180,180,180,-12,j,present,resp,freq_bottom,,,,,0,206,206,583,,,0.8281460592269775,,,,,,,,,,1961.5279817345909,None,1961.5279817345909,None,j,1,1.397099921181507,None,None,005,001,2,33,f,2021_Nov_08_1304,eye_tracking_exp,2021.2.3,85.14228807038445,
0,-12,0,180,12,0,0,90,0,0,j,present,resp,freq_bottom,,,,,0,207,207,687,,,0.7457395976828264,,,,,,,,,,1963.9648247819387,None,1963.9648247819387,None,j,1,1.585431454997888,None,None,005,001,2,33,f,2021_Nov_08_1304,eye_tracking_exp,2021.2.3,85.14228807038445,
0,180,0,-12,0,180,90,0,-12,180,j,present,resp,freq_bottom,,,,,0,208,208,612,,,0.8116465185200055,,,,,,,,,,1966.399471585417,None,1966.399471585417,None,j,1,2.2215996312588686,None,None,005,001,2,33,f,2021_Nov_08_1304,eye_tracking_exp,2021.2.3,85.14228807038445,
180,0,180,0,180,180,-12,180,-168,0,None,abs,inhibit,freq_bottom,,,,,0,209,209,495,,,0.8784866524858599,,,,,,,,,,1971.3063120278166,None,1971.3063120278166,None,None,1,,None,None,005,001,2,33,f,2021_Nov_08_1304,eye_tracking_exp,2021.2.3,85.14228807038445,
0,12,180,180,180,180,0,180,0,12,j,abs,resp,freq_bottom,,,,,0,210,210,7,,,0.8775067946711188,,,,,,,,,,1975.5428438098133,None,1975.5428438098133,None,j,1,1.2534662966754695,None,None,005,001,2,33,f,2021_Nov_08_1304,eye_tracking_exp,2021.2.3,85.14228807038445,
0,0,0,180,180,12,0,168,0,0,None,abs,inhibit,freq_bottom,,,,,0,211,211,475,,,1.0078868423638323,,,,,,,,,,1978.308930254767,None,1978.308930254767,None,None,1,,None,None,005,001,2,33,f,2021_Nov_08_1304,eye_tracking_exp,2021.2.3,85.14228807038445,
180,0,180,180,180,90,180,12,180,-12,j,present,resp,freq_bottom,,,,,0,212,212,655,,,1.0497223219588858,,,,,,,,,,1982.3804334472625,None,1982.3804334472625,None,j,1,1.4406462815168197,None,None,005,001,2,33,f,2021_Nov_08_1304,eye_tracking_exp,2021.2.3,85.14228807038445,
180,180,-168,0,0,0,168,0,270,180,f,present,resp,freq_bottom,,,,,0,213,213,914,,,0.7906797616312515,,,,,,,,,,1984.6743045202602,None,1984.6743045202602,None,f,1,2.041392328294023,None,None,005,001,2,33,f,2021_Nov_08_1304,eye_tracking_exp,2021.2.3,85.14228807038445,
270,0,0,0,0,-12,0,0,-12,0,j,present,resp,freq_bottom,,,,,0,214,214,580,,,0.9192080846108301,,,,,,,,,,1987.6871635341413,None,1987.6871635341413,None,j,1,1.844329246046982,None,None,005,001,2,33,f,2021_Nov_08_1304,eye_tracking_exp,2021.2.3,85.14228807038445,
180,180,180,0,180,12,180,90,180,12,j,present,resp,freq_bottom,,,,,0,215,215,517,,,0.8876614100478663,,,,,,,,,,1990.4650141913698,None,1990.4650141913698,None,j,1,1.562481068802299,None,None,005,001,2,33,f,2021_Nov_08_1304,eye_tracking_exp,2021.2.3,85.14228807038445,
180,-168,180,180,180,180,0,180,180,168,f,abs,resp,freq_bottom,,,,,0,216,216,373,,,0.9202472337539641,,,,,,,,,,1993.2288416081356,None,1993.2288416081356,None,f,1,1.8226891807171341,None,None,005,001,2,33,f,2021_Nov_08_1304,eye_tracking_exp,2021.2.3,85.14228807038445,
180,180,180,-12,0,0,0,-12,0,180,j,abs,resp,freq_bottom,,,,,0,217,217,109,,,0.8937934396639311,,,,,,,,,,1995.9832549988241,None,1995.9832549988241,None,j,1,1.6443086600374954,None,None,005,001,2,33,f,2021_Nov_08_1304,eye_tracking_exp,2021.2.3,85.14228807038445,
12,0,180,0,0,0,-168,0,0,0,None,abs,inhibit,freq_bottom,,,,,0,218,218,478,,,1.0031907858214357,,,,,,,,,,1999.0072413263297,None,1999.0072413263297,None,None,1,,None,None,005,001,2,33,f,2021_Nov_08_1304,eye_tracking_exp,2021.2.3,85.14228807038445,
0,0,0,180,-168,0,0,90,0,12,None,present,inhibit,freq_bottom,,,,,0,219,219,969,,,1.0339712783188795,,,,,,,,,,2003.479023546839,None,2003.479023546839,None,None,1,,None,None,005,001,2,33,f,2021_Nov_08_1304,eye_tracking_exp,2021.2.3,85.14228807038445,
12,180,180,12,180,180,0,180,0,180,j,abs,resp,freq_bottom,,,,,0,220,220,15,,,1.0315041699406589,,,,,,,,,,2007.5750440169395,None,2007.5750440169395,None,j,1,1.3477282020794519,None,None,005,001,2,33,f,2021_Nov_08_1304,eye_tracking_exp,2021.2.3,85.14228807038445,
180,0,180,90,180,-168,0,168,180,0,f,present,resp,freq_bottom,,,,,0,221,221,917,,,1.0980408333085168,,,,,,,,,,2010.0692517104944,None,2010.0692517104944,None,f,1,2.0055340288854495,None,None,005,001,2,33,f,2021_Nov_08_1304,eye_tracking_exp,2021.2.3,85.14228807038445,
12,0,-12,0,0,0,270,0,0,0,j,present,resp,freq_bottom,,,,,0,222,222,658,,,0.7218932224969481,,,,,,,,,,2012.8583356298914,None,2012.8583356298914,None,None,0,,2015.8358742369674,None,005,001,2,33,f,2021_Nov_08_1304,eye_tracking_exp,2021.2.3,85.14228807038445,
180,168,0,-168,0,0,270,180,180,180,f,present,resp,freq_bottom,,,,,0,223,223,889,,,0.9195499334719965,,,,,,,,,,2017.2948387967263,None,2017.2948387967263,None,f,1,1.0510291179743945,None,None,005,001,2,33,f,2021_Nov_08_1304,eye_tracking_exp,2021.2.3,85.14228807038445,
-168,180,0,-168,180,90,180,0,0,0,f,present,resp,freq_bottom,,,,,0,224,224,820,,,1.0182970737917045,,,,,,,,,,2019.412911354273,None,2019.412911354273,None,f,1,1.2851545701050782,None,None,005,001,2,33,f,2021_Nov_08_1304,eye_tracking_exp,2021.2.3,85.14228807038445,
180,180,-168,0,0,270,0,180,-168,180,f,present,resp,freq_bottom,,,,,0,225,225,815,,,0.7786606241444606,,,,,,,,,,2021.5189700714982,None,2021.5189700714982,None,f,1,1.530997749963717,None,None,005,001,2,33,f,2021_Nov_08_1304,eye_tracking_exp,2021.2.3,85.14228807038445,
-12,0,0,0,-12,0,0,0,0,0,j,abs,resp,freq_bottom,,,,,0,226,226,86,,,1.0439118902334408,,,,,,,,,,2024.3788822519273,None,2024.3788822519273,None,j,1,1.5031266425539798,None,None,005,001,2,33,f,2021_Nov_08_1304,eye_tracking_exp,2021.2.3,85.14228807038445,
12,0,0,0,-12,0,0,180,180,180,j,abs,resp,freq_bottom,,,,,0,227,227,156,,,1.064633646200499,,,,,,,,,,2027.0507469372278,None,2027.0507469372278,None,j,1,1.3112598684674595,None,None,005,001,2,33,f,2021_Nov_08_1304,eye_tracking_exp,2021.2.3,85.14228807038445,
-12,0,12,0,0,0,0,180,90,180,j,present,resp,freq_bottom,,,,,0,228,228,673,,,0.8236364387742556,,,,,,,,,,2029.6860955969787,None,2029.6860955969787,None,j,1,2.7871161273833422,None,None,005,001,2,33,f,2021_Nov_08_1304,eye_tracking_exp,2021.2.3,85.14228807038445,
180,0,180,-168,180,180,-168,0,180,0,f,abs,resp,freq_bottom,,,,,0,229,229,341,,,0.9460376013979064,,,,,,,,,,2033.4763769462006,None,2033.4763769462006,None,f,1,1.3648622849395906,None,None,005,001,2,33,f,2021_Nov_08_1304,eye_tracking_exp,2021.2.3,85.14228807038445,
0,-12,180,180,180,90,180,180,0,168,None,present,inhibit,freq_bottom,,,,,0,230,230,1001,,,0.9340492316927282,,,,,,,,,,2036.146222270385,None,2036.146222270385,None,None,1,,None,None,005,001,2,33,f,2021_Nov_08_1304,eye_tracking_exp,2021.2.3,85.14228807038445,
-168,180,0,12,180,90,180,180,0,180,None,present,inhibit,freq_bottom,,,,,0,231,231,939,,,1.0064240620525227,,,,,,,,,,2040.4069106219904,None,2040.4069106219904,None,None,1,,None,None,005,001,2,33,f,2021_Nov_08_1304,eye_tracking_exp,2021.2.3,85.14228807038445,
180,-12,0,180,180,180,-12,180,180,270,j,present,resp,freq_bottom,,,,,0,232,232,633,,,1.030427431135402,,,,,,,,,,2044.7854967613239,None,2044.7854967613239,None,j,1,1.575973057311785,None,None,005,001,2,33,f,2021_Nov_08_1304,eye_tracking_exp,2021.2.3,85.14228807038445,
180,168,0,-168,0,0,0,180,180,0,f,abs,resp,freq_bottom,,,,,0,233,233,385,,,0.9056094156619281,,,,,,,,,,2047.303708893247,None,2047.303708893247,None,f,1,1.3606518113701895,None,None,005,001,2,33,f,2021_Nov_08_1304,eye_tracking_exp,2021.2.3,85.14228807038445,
180,180,168,0,0,0,90,0,168,180,f,present,resp,freq_bottom,,,,,0,234,234,716,,,1.0848757834973486,,,,,,,,,,2049.8458554348726,None,2049.8458554348726,None,f,1,2.018481785991753,None,None,005,001,2,33,f,2021_Nov_08_1304,eye_tracking_exp,2021.2.3,85.14228807038445,
180,0,180,-12,180,0,180,0,180,168,None,abs,inhibit,freq_bottom,,,,,0,235,235,499,,,1.0992821039486682,,,,,,,,,,2053.0254228207123,None,2053.0254228207123,None,None,1,,None,None,005,001,2,33,f,2021_Nov_08_1304,eye_tracking_exp,2021.2.3,85.14228807038445,
0,0,0,180,-12,0,0,0,0,-12,j,abs,resp,freq_bottom,,,,,0,236,236,115,,,0.7006750867423928,,,,,,,,,,2056.753687145123,None,2056.753687145123,None,j,1,1.8948078406683635,None,None,005,001,2,33,f,2021_Nov_08_1304,eye_tracking_exp,2021.2.3,85.14228807038445,
0,0,0,0,0,0,0,168,0,168,f,abs,resp,freq_bottom,,,,,0,237,237,259,,,0.9218271732979603,,,,,,,,,,2059.6842268578657,None,2059.6842268578657,None,f,1,1.8134275877273467,None,None,005,001,2,33,f,2021_Nov_08_1304,eye_tracking_exp,2021.2.3,85.14228807038445,
180,0,180,-12,180,180,-12,180,180,270,j,present,resp,freq_bottom,,,,,0,238,238,635,,,0.7020465609977691,,,,,,,,,,2062.2610882998088,None,2062.2610882998088,None,j,1,2.4985931919400173,None,None,005,001,2,33,f,2021_Nov_08_1304,eye_tracking_exp,2021.2.3,85.14228807038445,
180,0,-168,0,0,0,-168,180,180,0,f,abs,resp,freq_bottom,,,,,0,239,239,313,,,0.7445261804172606,,,,,,,,,,2065.557458068073,None,2065.557458068073,None,f,1,1.0268505134808947,None,None,005,001,2,33,f,2021_Nov_08_1304,eye_tracking_exp,2021.2.3,85.14228807038445,
180,180,0,180,12,90,0,-12,180,180,j,present,resp,freq_bottom,,,,,0,240,240,691,,,0.7916139916184242,,,,,,,,,,2067.697915952922,None,2067.697915952922,None,None,0,,2070.6763359552824,None,005,001,2,33,f,2021_Nov_08_1304,eye_tracking_exp,2021.2.3,85.14228807038445,
180,180,168,0,0,0,168,0,180,0,f,abs,resp,freq_bottom,,,,,0,241,241,243,,,0.9273810952241799,,,,,,,,,,2072.1465890153413,None,2072.1465890153413,None,f,1,1.6698848193773301,None,None,005,001,2,33,f,2021_Nov_08_1304,eye_tracking_exp,2021.2.3,85.14228807038445,
180,0,0,180,180,180,270,180,168,180,f,present,resp,freq_bottom,,,,,0,242,242,719,,,0.8771275948592809,,,,,,,,,,2074.8182804400567,None,2074.8182804400567,None,None,0,,2077.795529575189,None,005,001,2,33,f,2021_Nov_08_1304,eye_tracking_exp,2021.2.3,85.14228807038445,
180,180,0,-12,0,180,0,-12,0,180,j,abs,resp,freq_bottom,,,,,0,243,243,123,,,0.7362085095565074,,,,,,,,,,2079.0544318939537,None,2079.0544318939537,None,j,1,1.512325451221841,None,None,005,001,2,33,f,2021_Nov_08_1304,eye_tracking_exp,2021.2.3,85.14228807038445,
180,0,12,0,0,0,-12,180,270,180,j,present,resp,freq_bottom,,,,,0,244,244,677,,,1.0672719528598327,,,,,,,,,,2081.961641797938,None,2081.961641797938,None,j,1,1.997228085714596,None,None,005,001,2,33,f,2021_Nov_08_1304,eye_tracking_exp,2021.2.3,85.14228807038445,
0,180,180,-12,0,90,180,180,-12,0,j,present,resp,freq_bottom,,,,,0,245,245,577,,,0.986670680388949,,,,,,,,,,2085.2925559225696,None,2085.2925559225696,None,j,1,1.194286942092731,None,None,005,001,2,33,f,2021_Nov_08_1304,eye_tracking_exp,2021.2.3,85.14228807038445,
0,-168,180,180,0,270,0,-168,0,0,f,present,resp,freq_bottom,,,,,0,246,246,835,,,0.8553582496874709,,,,,,,,,,2087.7266639279005,None,2087.7266639279005,None,None,0,,2090.7054639565176,None,005,001,2,33,f,2021_Nov_08_1304,eye_tracking_exp,2021.2.3,85.14228807038445,
0,180,180,180,168,0,90,0,0,-168,f,present,resp,freq_bottom,,,,,0,247,247,864,,,0.7015976326530008,,,,,,,,,,2091.940361535064,None,2091.940361535064,None,None,0,,2094.906640921072,None,005,001,2,33,f,2021_Nov_08_1304,eye_tracking_exp,2021.2.3,85.14228807038445,
12,0,0,0,0,0,0,-12,0,0,j,abs,resp,freq_bottom,,,,,0,248,248,158,,,1.0363250595808378,,,,,,,,,,2096.483176065649,None,2096.483176065649,None,j,1,2.082910875778907,None,None,005,001,2,33,f,2021_Nov_08_1304,eye_tracking_exp,2021.2.3,85.14228807038445,
0,90,180,180,180,12,0,0,-168,0,None,present,inhibit,freq_bottom,,,,,0,249,249,930,,,0.8086667619694368,,,,,,,,,,2099.518734630292,None,2099.518734630292,None,None,1,,None,None,005,001,2,33,f,2021_Nov_08_1304,eye_tracking_exp,2021.2.3,85.14228807038445,
0,180,12,0,0,-12,180,180,0,180,j,abs,resp,freq_bottom,,,,,0,250,250,208,,,1.0089943643716826,,,,,,,,,,2103.8020111508595,None,2103.8020111508595,None,j,1,1.596162140744127,None,None,005,001,2,33,f,2021_Nov_08_1304,eye_tracking_exp,2021.2.3,85.14228807038445,
168,180,180,180,-168,0,270,0,0,0,f,present,resp,freq_bottom,,,,,0,251,251,870,,,0.758042222041204,,,,,,,,,,2109.0048615590604,None,2109.0048615590604,None,None,0,,2111.992142602514,None,005,001,2,33,f,2021_Nov_08_1304,eye_tracking_exp,2021.2.3,85.14228807038445,
90,0,12,0,0,0,12,0,0,0,j,present,resp,freq_bottom,,,,,0,252,252,564,,,0.7112090447567666,,,,,,,,,,2113.262660926328,None,2113.262660926328,None,j,1,2.5507065937053994,None,None,005,001,2,33,f,2021_Nov_08_1304,eye_tracking_exp,2021.2.3,85.14228807038445,
180,0,180,180,180,12,180,90,180,-12,j,present,resp,freq_bottom,,,,,0,253,253,657,,,0.995347164361956,,,,,,,,,,2117.158456459525,None,2117.158456459525,None,j,1,1.5033026197597792,None,None,005,001,2,33,f,2021_Nov_08_1304,eye_tracking_exp,2021.2.3,85.14228807038445,
0,-12,180,180,180,0,90,0,-12,0,j,present,resp,freq_bottom,,,,,0,254,254,598,,,1.0989238281713845,,,,,,,,,,2120.0652513229215,None,2120.0652513229215,None,None,0,,2123.0428859175663,None,005,001,2,33,f,2021_Nov_08_1304,eye_tracking_exp,2021.2.3,85.14228807038445,
180,0,180,0,180,180,-168,180,168,0,f,abs,resp,freq_bottom,,,,,0,255,255,355,,,1.0824019292980926,,,,,,,,,,2124.6557429996246,None,2124.6557429996246,None,f,1,1.924732719835447,None,None,005,001,2,33,f,2021_Nov_08_1304,eye_tracking_exp,2021.2.3,85.14228807038445,
0,0,0,0,0,-168,0,0,-168,0,f,abs,resp,freq_bottom,,,,,0,256,256,286,,,0.7719901019184838,,,,,,,,,,2127.9377221787727,None,2127.9377221787727,None,f,1,2.290758070812444,None,None,005,001,2,33,f,2021_Nov_08_1304,eye_tracking_exp,2021.2.3,85.14228807038445,
0,180,180,-12,180,180,12,0,180,0,j,abs,resp,freq_bottom,,,,,0,257,257,180,,,0.784190208071358,,,,,,,,,,2131.352921236765,None,2131.352921236765,None,j,1,1.947623038337042,None,None,005,001,2,33,f,2021_Nov_08_1304,eye_tracking_exp,2021.2.3,85.14228807038445,
168,180,0,0,168,0,180,0,0,180,f,abs,resp,freq_bottom,,,,,0,258,258,254,,,0.7385657937661653,,,,,,,,,,2134.5179217544355,None,2134.5179217544355,None,f,1,1.6146771768362669,None,None,005,001,2,33,f,2021_Nov_08_1304,eye_tracking_exp,2021.2.3,85.14228807038445,
0,0,168,0,0,180,180,180,180,-168,f,abs,resp,freq_bottom,,,,,0,259,259,358,,,0.7058330316875534,,,,,,,,,,2136.882089232822,None,2136.882089232822,None,f,1,1.4105937207787065,None,None,005,001,2,33,f,2021_Nov_08_1304,eye_tracking_exp,2021.2.3,85.14228807038445,
0,-12,0,0,0,0,-12,0,0,0,j,abs,resp,freq_bottom,,,,,0,260,260,96,,,1.069718837410229,,,,,,,,,,2139.4004208964325,None,2139.4004208964325,None,j,1,1.2593203309770615,None,None,005,001,2,33,f,2021_Nov_08_1304,eye_tracking_exp,2021.2.3,85.14228807038445,
180,0,180,0,180,-12,0,-12,180,0,j,abs,resp,freq_bottom,,,,,0,261,261,133,,,0.7406549510230588,,,,,,,,,,2141.4362909679003,None,2141.4362909679003,None,j,1,1.4633597172723967,None,None,005,001,2,33,f,2021_Nov_08_1304,eye_tracking_exp,2021.2.3,85.14228807038445,
180,180,180,0,12,0,0,0,-168,180,None,abs,inhibit,freq_bottom,,,,,0,262,262,424,,,0.9070614246870078,,,,,,,,,,2143.8719305484665,None,2143.8719305484665,None,None,1,,None,None,005,001,2,33,f,2021_Nov_08_1304,eye_tracking_exp,2021.2.3,85.14228807038445,
0,180,180,-168,180,270,180,180,-168,180,f,present,resp,freq_bottom,,,,,0,263,263,787,,,0.7098265187534665,,,,,,,,,,2147.8511622192927,None,2147.8511622192927,None,f,1,1.0972905983726378,None,None,005,001,2,33,f,2021_Nov_08_1304,eye_tracking_exp,2021.2.3,85.14228807038445,
270,180,12,180,180,0,180,-12,180,180,j,present,resp,freq_bottom,,,,,0,264,264,696,,,0.9743812824406533,,,,,,,,,,2149.9796282987045,None,2149.9796282987045,None,None,0,,2152.9571433616584,None,005,001,2,33,f,2021_Nov_08_1304,eye_tracking_exp,2021.2.3,85.14228807038445,
12,180,180,180,180,270,180,-12,180,180,j,present,resp,freq_bottom,,,,,0,265,265,694,,,0.8089390379111583,,,,,,,,,,2154.52166315668,None,2154.52166315668,None,j,1,2.457258771552006,None,None,005,001,2,33,f,2021_Nov_08_1304,eye_tracking_exp,2021.2.3,85.14228807038445,
0,180,0,180,180,180,180,12,180,-12,j,abs,resp,freq_bottom,,,,,0,266,266,151,,,0.9880673634717532,,,,,,,,,,2158.6177089819903,None,2158.6177089819903,None,j,1,2.0571599466165935,None,None,005,001,2,33,f,2021_Nov_08_1304,eye_tracking_exp,2021.2.3,85.14228807038445,
90,180,180,180,0,-168,0,0,168,0,f,present,resp,freq_bottom,,,,,0,267,267,860,,,0.8257664048727773,,,,,,,,,,2161.8083315398544,None,2161.8083315398544,None,f,1,1.586626470045303,None,None,005,001,2,33,f,2021_Nov_08_1304,eye_tracking_exp,2021.2.3,85.14228807038445,
180,180,90,0,0,0,168,0,-168,180,f,present,resp,freq_bottom,,,,,0,268,268,910,,,1.087888283811783,,,,,,,,,,2164.5360519347087,None,2164.5360519347087,None,f,1,1.8349511398446339,None,None,005,001,2,33,f,2021_Nov_08_1304,eye_tracking_exp,2021.2.3,85.14228807038445,
180,168,180,180,180,-168,0,0,180,0,f,abs,resp,freq_bottom,,,,,0,269,269,417,,,0.7600407817883708,,,,,,,,,,2167.1837908388625,None,2167.1837908388625,None,None,0,,2170.1736665651442,None,005,001,2,33,f,2021_Nov_08_1304,eye_tracking_exp,2021.2.3,85.14228807038445,
180,12,180,180,180,270,180,180,-168,180,None,present,inhibit,freq_bottom,,,,,0,270,270,925,,,0.8642520709019672,,,,,,,,,,2171.5737807843143,None,2171.5737807843143,None,None,1,,None,None,005,001,2,33,f,2021_Nov_08_1304,eye_tracking_exp,2021.2.3,85.14228807038445,
0,0,270,0,0,0,168,180,180,-168,f,present,resp,freq_bottom,,,,,0,271,271,866,,,0.8263074522412992,,,,,,,,,,2175.7884687537808,None,2175.7884687537808,None,f,1,2.7737146931867755,None,None,005,001,2,33,f,2021_Nov_08_1304,eye_tracking_exp,2021.2.3,85.14228807038445,
0,180,0,0,0,0,-12,0,-12,0,j,abs,resp,freq_bottom,,,,,0,272,272,126,,,0.8597415333146676,,,,,,,,,,2179.7300645440955,None,2179.7300645440955,None,j,1,1.6159814607526641,None,None,005,001,2,33,f,2021_Nov_08_1304,eye_tracking_exp,2021.2.3,85.14228807038445,
0,0,0,168,0,0,0,180,180,12,None,abs,inhibit,freq_bottom,,,,,0,273,273,457,,,0.9566574885650376,,,,,,,,,,2182.589472035168,None,2182.589472035168,None,None,1,,None,None,005,001,2,33,f,2021_Nov_08_1304,eye_tracking_exp,2021.2.3,85.14228807038445,
180,-12,180,12,0,180,90,180,180,180,j,present,resp,freq_bottom,,,,,0,274,274,665,,,1.0383348383850775,,,,,,,,,,2186.6497860352574,None,2186.6497860352574,None,j,1,1.6076743101912143,None,None,005,001,2,33,f,2021_Nov_08_1304,eye_tracking_exp,2021.2.3,85.14228807038445,
0,0,0,168,0,0,0,180,0,168,f,abs,resp,freq_bottom,,,,,0,275,275,247,,,1.021042132267978,,,,,,,,,,2191.0152716825505,None,2191.0152716825505,None,f,1,1.5940890507408767,None,None,005,001,2,33,f,2021_Nov_08_1304,eye_tracking_exp,2021.2.3,85.14228807038445,
180,0,180,0,168,180,-168,180,180,0,f,abs,resp,freq_bottom,,,,,0,276,276,398,,,0.9248465883174741,,,,,,,,,,2193.5925502780156,None,2193.5925502780156,None,f,1,2.9049490178585984,None,None,005,001,2,33,f,2021_Nov_08_1304,eye_tracking_exp,2021.2.3,85.14228807038445,
168,0,0,0,0,-168,0,0,180,180,f,abs,resp,freq_bottom,,,,,0,277,277,370,,,1.0105454379785406,,,,,,,,,,2198.0412094554413,None,2198.0412094554413,None,None,0,,2201.02925568281,None,005,001,2,33,f,2021_Nov_08_1304,eye_tracking_exp,2021.2.3,85.14228807038445,
180,0,0,12,180,-12,180,180,180,180,j,abs,resp,freq_bottom,,,,,0,278,278,209,,,0.9293187229569793,,,,,,,,,,2202.488072639044,None,2202.488072639044,None,None,0,,2205.4541618609983,None,005,001,2,33,f,2021_Nov_08_1304,eye_tracking_exp,2021.2.3,85.14228807038445,
180,180,0,12,0,180,0,168,180,180,None,abs,inhibit,freq_bottom,,,,,0,279,279,473,,,0.873278027093712,,,,,,,,,,2206.8661468446808,None,2206.8661468446808,None,None,1,,None,None,005,001,2,33,f,2021_Nov_08_1304,eye_tracking_exp,2021.2.3,85.14228807038445,
168,0,168,0,0,0,0,180,0,180,f,abs,resp,freq_bottom,,,,,0,280,280,239,,,0.7708617420235095,,,,,,,,,,2211.046163983592,None,2211.046163983592,None,None,0,,2214.034325818633,None,005,001,2,33,f,2021_Nov_08_1304,eye_tracking_exp,2021.2.3,85.14228807038445,
180,180,12,180,180,270,180,12,180,180,j,present,resp,freq_bottom,,,,,0,281,281,556,,,0.9233418972068472,,,,,,,,,,2215.482237922999,None,2215.482237922999,None,None,0,,2218.459913267081,None,005,001,2,33,f,2021_Nov_08_1304,eye_tracking_exp,2021.2.3,85.14228807038445,
180,168,180,0,180,180,180,180,168,180,f,abs,resp,freq_bottom,,,,,0,282,282,211,,,0.8326772887788203,,,,,,,,,,2220.225939644344,None,2220.225939644344,None,f,1,1.2459044080860622,None,None,005,001,2,33,f,2021_Nov_08_1304,eye_tracking_exp,2021.2.3,85.14228807038445,
12,180,180,180,0,90,0,0,12,0,j,present,resp,freq_bottom,,,,,0,283,283,504,,,0.9923680288040595,,,,,,,,,,2222.8724165232634,None,2222.8724165232634,None,j,1,1.52740998819354,None,None,005,001,2,33,f,2021_Nov_08_1304,eye_tracking_exp,2021.2.3,85.14228807038445,
180,180,0,0,0,168,180,180,12,180,None,abs,inhibit,freq_bottom,,,,,0,284,284,484,,,0.9144555450535896,,,,,,,,,,2225.5104579663493,None,2225.5104579663493,None,None,1,,None,None,005,001,2,33,f,2021_Nov_08_1304,eye_tracking_exp,2021.2.3,85.14228807038445,
0,0,0,0,0,-12,0,0,12,0,j,abs,resp,freq_bottom,,,,,0,285,285,146,,,0.8907856548368474,,,,,,,,,,2234.3092384412703,None,2234.3092384412703,None,j,1,2.3779063314614177,None,None,005,001,2,33,f,2021_Nov_08_1304,eye_tracking_exp,2021.2.3,85.14228807038445,
0,0,0,0,0,-12,0,0,-168,0,None,abs,inhibit,freq_bottom,,,,,0,286,286,496,,,0.9959397639898442,,,,,,,,,,2237.7351790515277,None,2237.7351790515277,None,None,1,,None,None,005,001,2,33,f,2021_Nov_08_1304,eye_tracking_exp,2021.2.3,85.14228807038445,
180,12,0,-12,0,0,0,180,180,270,j,present,resp,freq_bottom,,,,,0,287,287,679,,,0.9853309834468633,,,,,,,,,,2241.992993209333,None,2241.992993209333,None,j,1,1.5741619711079693,None,None,005,001,2,33,f,2021_Nov_08_1304,eye_tracking_exp,2021.2.3,85.14228807038445,
0,0,0,12,0,180,0,-12,0,90,j,present,resp,freq_bottom,,,,,0,288,288,697,,,0.9461366191247769,,,,,,,,,,2244.9938670584233,None,2244.9938670584233,None,None,0,,2247.97224027439,None,005,001,2,33,f,2021_Nov_08_1304,eye_tracking_exp,2021.2.3,85.14228807038445,
0,0,0,12,0,0,270,180,180,12,j,present,resp,freq_bottom,,,,,0,289,289,541,,,0.9413914273785576,,,,,,,,,,2249.4326769453874,None,2249.4326769453874,None,j,1,1.1096077956353838,None,None,005,001,2,33,f,2021_Nov_08_1304,eye_tracking_exp,2021.2.3,85.14228807038445,
180,0,180,12,180,90,180,180,180,-12,j,present,resp,freq_bottom,,,,,0,290,290,653,,,0.9447378063403236,,,,,,,,,,2251.549271052896,None,2251.549271052896,None,j,1,2.017052838978998,None,None,005,001,2,33,f,2021_Nov_08_1304,eye_tracking_exp,2021.2.3,85.14228807038445,
12,180,0,180,0,0,180,-12,180,180,j,abs,resp,freq_bottom,,,,,0,291,291,190,,,0.9381683368092593,,,,,,,,,,2254.550998225437,None,2254.550998225437,None,j,1,2.247268155995698,None,None,005,001,2,33,f,2021_Nov_08_1304,eye_tracking_exp,2021.2.3,85.14228807038445,
180,168,0,0,0,0,12,0,0,180,None,abs,inhibit,freq_bottom,,,,,0,292,292,446,,,1.0057939540645275,,,,,,,,,,2257.857144840713,None,2257.857144840713,None,None,1,,None,None,005,001,2,33,f,2021_Nov_08_1304,eye_tracking_exp,2021.2.3,85.14228807038445,
180,180,12,0,12,0,180,0,0,180,j,abs,resp,freq_bottom,,,,,0,293,293,42,,,0.7174120458567435,,,,,,,,,,2265.564441616465,None,2265.564441616465,None,j,1,1.1690325523959473,None,None,005,001,2,33,f,2021_Nov_08_1304,eye_tracking_exp,2021.2.3,85.14228807038445,
0,180,0,-168,180,90,180,0,168,180,f,present,resp,freq_bottom,,,,,0,294,294,857,,,0.9378717322440027,,,,,,,,,,2268.094829077232,None,2268.094829077232,None,f,1,1.8067238521507534,None,None,005,001,2,33,f,2021_Nov_08_1304,eye_tracking_exp,2021.2.3,85.14228807038445,
180,180,0,-168,180,180,-168,0,270,180,f,present,resp,freq_bottom,,,,,0,295,295,824,,,0.8129650249528536,,,,,,,,,,2270.8249811571586,None,2270.8249811571586,None,f,1,1.572545576673292,None,None,005,001,2,33,f,2021_Nov_08_1304,eye_tracking_exp,2021.2.3,85.14228807038445,
180,90,0,0,180,180,-168,180,-168,180,f,present,resp,freq_bottom,,,,,0,296,296,789,,,0.8272740250119238,,,,,,,,,,2273.284352305771,None,2273.284352305771,None,f,1,1.722500193871383,None,None,005,001,2,33,f,2021_Nov_08_1304,eye_tracking_exp,2021.2.3,85.14228807038445,
-12,0,0,0,0,0,0,180,-168,0,None,abs,inhibit,freq_bottom,,,,,0,297,297,490,,,0.7145430449695025,,,,,,,,,,2275.7669452016635,None,2275.7669452016635,None,None,1,,None,None,005,001,2,33,f,2021_Nov_08_1304,eye_tracking_exp,2021.2.3,85.14228807038445,
0,180,0,180,180,12,0,0,12,0,j,abs,resp,freq_bottom,,,,,0,298,298,6,,,1.0719574532864669,,,,,,,,,,2280.180347963993,None,2280.180347963993,None,j,1,1.0324144721416815,None,None,005,001,2,33,f,2021_Nov_08_1304,eye_tracking_exp,2021.2.3,85.14228807038445,
180,168,180,0,180,270,180,180,168,180,f,present,resp,freq_bottom,,,,,0,299,299,715,,,0.8125908471926478,,,,,,,,,,2282.464375783482,None,2282.464375783482,None,f,1,1.3083253051263455,None,None,005,001,2,33,f,2021_Nov_08_1304,eye_tracking_exp,2021.2.3,85.14228807038445,
168,0,0,0,168,0,270,180,180,180,f,present,resp,freq_bottom,,,,,0,300,300,730,,,0.902449793569325,,,,,,,,,,2284.935097613019,None,2284.935097613019,None,f,1,2.1347284667972417,None,None,005,001,2,33,f,2021_Nov_08_1304,eye_tracking_exp,2021.2.3,85.14228807038445,
0,180,12,0,0,12,0,180,0,180,j,abs,resp,freq_bottom,,,,,0,301,301,68,,,0.7859556117801347,,,,,,,,,,2287.9005103942764,None,2287.9005103942764,None,j,1,2.880262403683446,None,None,005,001,2,33,f,2021_Nov_08_1304,eye_tracking_exp,2021.2.3,85.14228807038445,
0,180,180,12,180,180,-168,180,0,180,None,abs,inhibit,freq_bottom,,,,,0,302,302,481,,,1.0822882746685647,,,,,,,,,,2292.1490801644104,None,2292.1490801644104,None,None,1,,None,None,005,001,2,33,f,2021_Nov_08_1304,eye_tracking_exp,2021.2.3,85.14228807038445,
180,180,180,168,0,12,0,180,0,0,None,abs,inhibit,freq_bottom,,,,,0,303,303,461,,,0.8930038940043818,,,,,,,,,,2296.044973496264,None,2296.044973496264,None,None,1,,None,None,005,001,2,33,f,2021_Nov_08_1304,eye_tracking_exp,2021.2.3,85.14228807038445,
0,12,180,0,180,180,270,180,12,180,j,present,resp,freq_bottom,,,,,0,304,304,505,,,0.917877168810657,,,,,,,,,,2300.2814536623046,None,2300.2814536623046,None,j,1,1.186495951096731,None,None,005,001,2,33,f,2021_Nov_08_1304,eye_tracking_exp,2021.2.3,85.14228807038445,
0,0,0,-12,0,270,0,-12,0,0,j,present,resp,freq_bottom,,,,,0,305,305,627,,,0.8017948658219113,,,,,,,,,,2302.327336927534,None,2302.327336927534,None,j,1,1.4136402696167352,None,None,005,001,2,33,f,2021_Nov_08_1304,eye_tracking_exp,2021.2.3,85.14228807038445,
12,180,0,180,180,90,180,180,-12,0,j,present,resp,freq_bottom,,,,,0,306,306,661,,,0.7791814515589295,,,,,,,,,,2304.563981902418,None,2304.563981902418,None,f,0,1.8324355411132274,2306.423548165385,None,005,001,2,33,f,2021_Nov_08_1304,eye_tracking_exp,2021.2.3,85.14228807038445,
180,0,-12,0,0,270,0,180,-12,0,j,present,resp,freq_bottom,,,,,0,307,307,605,,,0.7153947186308693,,,,,,,,,,2307.6711043309406,None,2307.6711043309406,None,j,1,1.061026615658193,None,None,005,001,2,33,f,2021_Nov_08_1304,eye_tracking_exp,2021.2.3,85.14228807038445,
0,180,0,180,270,180,-168,180,168,180,f,present,resp,freq_bottom,,,,,0,308,308,859,,,0.8423709309950003,,,,,,,,,,2309.624558208161,None,2309.624558208161,None,f,1,2.722625460668496,None,None,005,001,2,33,f,2021_Nov_08_1304,eye_tracking_exp,2021.2.3,85.14228807038445,
0,0,180,0,-168,180,180,-168,180,90,f,present,resp,freq_bottom,,,,,0,309,309,838,,,1.079127581618546,,,,,,,,,,2313.4842062718526,None,2313.4842062718526,None,None,0,,2316.473250407722,None,005,001,2,33,f,2021_Nov_08_1304,eye_tracking_exp,2021.2.3,85.14228807038445,
-168,0,-168,0,0,0,270,180,180,180,f,present,resp,freq_bottom,,,,,0,310,310,798,,,0.8469372055605775,,,,,,,,,,2317.8379225754616,None,2317.8379225754616,None,f,1,0.9893495588876249,None,None,005,001,2,33,f,2021_Nov_08_1304,eye_tracking_exp,2021.2.3,85.14228807038445,
180,0,0,180,-12,0,0,-12,180,180,j,abs,resp,freq_bottom,,,,,0,311,311,117,,,0.7865909993517621,,,,,,,,,,2320.1092981467445,None,2320.1092981467445,None,j,1,1.373943976697774,None,None,005,001,2,33,f,2021_Nov_08_1304,eye_tracking_exp,2021.2.3,85.14228807038445,
0,12,0,0,0,180,0,12,0,0,j,abs,resp,freq_bottom,,,,,0,312,312,51,,,1.059845006277959,,,,,,,,,,2322.603412267512,None,2322.603412267512,None,j,1,0.9441149643644167,None,None,005,001,2,33,f,2021_Nov_08_1304,eye_tracking_exp,2021.2.3,85.14228807038445,
180,180,0,180,168,270,0,-168,180,180,f,present,resp,freq_bottom,,,,,0,313,313,901,,,0.8100648778556678,,,,,,,,,,2324.4153297580488,None,2324.4153297580488,None,f,1,1.7710680925483757,None,None,005,001,2,33,f,2021_Nov_08_1304,eye_tracking_exp,2021.2.3,85.14228807038445,
180,180,0,168,0,90,0,12,0,0,None,present,inhibit,freq_bottom,,,,,0,314,314,963,,,0.8172963759984344,,,,,,,,,,2327.0637801172306,None,2327.0637801172306,None,None,1,,None,None,005,001,2,33,f,2021_Nov_08_1304,eye_tracking_exp,2021.2.3,85.14228807038445,
12,0,0,0,0,12,0,270,0,0,j,present,resp,freq_bottom,,,,,0,315,315,524,,,1.0605624545267296,,,,,,,,,,2331.137277013786,None,2331.137277013786,None,j,1,1.3211414566321764,None,None,005,001,2,33,f,2021_Nov_08_1304,eye_tracking_exp,2021.2.3,85.14228807038445,
-12,0,-12,0,0,270,0,180,0,180,j,present,resp,freq_bottom,,,,,0,316,316,603,,,0.8777036072235367,,,,,,,,,,2333.395471197844,None,2333.395471197844,None,j,1,1.3683914882494719,None,None,005,001,2,33,f,2021_Nov_08_1304,eye_tracking_exp,2021.2.3,85.14228807038445,
180,0,180,0,-168,0,180,0,-168,0,f,abs,resp,freq_bottom,,,,,0,317,317,326,,,0.7590308327998322,,,,,,,,,,2335.562356754399,None,2335.562356754399,None,f,1,2.1920825483357476,None,None,005,001,2,33,f,2021_Nov_08_1304,eye_tracking_exp,2021.2.3,85.14228807038445,
0,180,-168,0,0,0,12,180,90,180,None,present,inhibit,freq_bottom,,,,,0,318,318,957,,,0.851171336281904,,,,,,,,,,2338.658293310844,None,2338.658293310844,None,None,1,,None,None,005,001,2,33,f,2021_Nov_08_1304,eye_tracking_exp,2021.2.3,85.14228807038445,
0,0,-12,0,0,0,0,0,-12,0,j,abs,resp,freq_bottom,,,,,0,319,319,72,,,0.9977124882221622,,,,,,,,,,2342.9764130170006,None,2342.9764130170006,None,j,1,1.2571862677323224,None,None,005,001,2,33,f,2021_Nov_08_1304,eye_tracking_exp,2021.2.3,85.14228807038445,
0,180,0,180,180,180,-12,180,-12,180,j,abs,resp,freq_bottom,,,,,0,320,320,75,,,0.8013256471158345,,,,,,,,,,2345.0815492876536,None,2345.0815492876536,None,j,1,2.3520754126584507,None,None,005,001,2,33,f,2021_Nov_08_1304,eye_tracking_exp,2021.2.3,85.14228807038445,
180,180,180,180,12,0,0,0,0,12,j,abs,resp,freq_bottom,,,,,0,321,321,10,,,1.0706914981629014,,,,,,,,,,2348.5530157754656,None,2348.5530157754656,None,j,1,1.7127692277099413,None,None,005,001,2,33,f,2021_Nov_08_1304,eye_tracking_exp,2021.2.3,85.14228807038445,
180,180,180,-12,0,270,0,-12,0,180,j,present,resp,freq_bottom,,,,,0,322,322,613,,,1.0456370596545355,,,,,,,,,,2351.367692757678,None,2351.367692757678,None,j,1,2.290004357106227,None,None,005,001,2,33,f,2021_Nov_08_1304,eye_tracking_exp,2021.2.3,85.14228807038445,
168,0,180,-168,180,90,180,180,0,180,f,present,resp,freq_bottom,,,,,0,323,323,869,,,0.8270051515269006,,,,,,,,,,2354.543009222354,None,2354.543009222354,None,f,1,1.563900356690283,None,None,005,001,2,33,f,2021_Nov_08_1304,eye_tracking_exp,2021.2.3,85.14228807038445,
180,12,0,0,180,180,-168,180,180,180,None,abs,inhibit,freq_bottom,,,,,0,324,324,479,,,1.062729597770706,,,,,,,,,,2357.3557746030783,None,2357.3557746030783,None,None,1,,None,None,005,001,2,33,f,2021_Nov_08_1304,eye_tracking_exp,2021.2.3,85.14228807038445,
180,0,180,0,168,180,168,180,0,90,f,present,resp,freq_bottom,,,,,0,325,325,762,,,0.7891138228974014,,,,,,,,,,2361.1455597146814,None,2361.1455597146814,None,f,1,1.4870149178495922,None,None,005,001,2,33,f,2021_Nov_08_1304,eye_tracking_exp,2021.2.3,85.14228807038445,
0,0,180,0,0,0,168,0,-168,180,f,abs,resp,freq_bottom,,,,,0,326,326,406,,,0.7776152811080725,,,,,,,,,,2363.453491155411,None,2363.453491155411,None,f,1,1.7713693365549261,None,None,005,001,2,33,f,2021_Nov_08_1304,eye_tracking_exp,2021.2.3,85.14228807038445,
180,-168,0,0,180,180,168,180,90,180,f,present,resp,freq_bottom,,,,,0,327,327,913,,,0.7378295368876426,,,,,,,,,,2366.0288717325348,None,2366.0288717325348,None,f,1,1.917182603301626,None,None,005,001,2,33,f,2021_Nov_08_1304,eye_tracking_exp,2021.2.3,85.14228807038445,
180,180,0,-168,0,-168,0,180,0,180,f,abs,resp,freq_bottom,,,,,0,328,328,321,,,1.0554920275245863,,,,,,,,,,2369.042867504857,None,2369.042867504857,None,f,1,1.8620712501797243,None,None,005,001,2,33,f,2021_Nov_08_1304,eye_tracking_exp,2021.2.3,85.14228807038445,
-168,180,180,-168,180,180,180,0,0,0,f,abs,resp,freq_bottom,,,,,0,329,329,316,,,0.9447999859638181,,,,,,,,,,2371.9008798558607,None,2371.9008798558607,None,f,1,1.5152228872939304,None,None,005,001,2,33,f,2021_Nov_08_1304,eye_tracking_exp,2021.2.3,85.14228807038445,
12,0,-12,0,0,0,0,0,0,0,j,abs,resp,freq_bottom,,,,,0,330,330,154,,,1.0805271837624577,,,,,,,,,,2375.0200318207862,None,2375.0200318207862,None,j,1,2.108057203997305,None,None,005,001,2,33,f,2021_Nov_08_1304,eye_tracking_exp,2021.2.3,85.14228807038445,
180,180,0,180,180,12,0,12,0,270,j,present,resp,freq_bottom,,,,,0,331,331,559,,,0.8490625178863787,,,,,,,,,,2378.032034190892,None,2378.032034190892,None,j,1,2.056029828825558,None,None,005,001,2,33,f,2021_Nov_08_1304,eye_tracking_exp,2021.2.3,85.14228807038445,
0,-168,0,0,-168,0,180,180,0,0,f,abs,resp,freq_bottom,,,,,0,332,332,302,,,0.8412377617914428,,,,,,,,,,2380.9750326674657,None,2380.9750326674657,None,f,1,2.6011885086518305,None,None,005,001,2,33,f,2021_Nov_08_1304,eye_tracking_exp,2021.2.3,85.14228807038445,
180,180,180,0,0,-168,180,180,168,180,f,abs,resp,freq_bottom,,,,,0,333,333,414,,,0.7449214702137233,,,,,,,,,,2384.7045934277485,None,2384.7045934277485,None,f,1,1.6388361612262088,None,None,005,001,2,33,f,2021_Nov_08_1304,eye_tracking_exp,2021.2.3,85.14228807038445,
180,180,0,12,0,0,0,12,0,180,j,abs,resp,freq_bottom,,,,,0,334,334,39,,,0.7746888230079432,,,,,,,,,,2387.4365206740003,None,2387.4365206740003,None,j,1,1.4987761116499314,None,None,005,001,2,33,f,2021_Nov_08_1304,eye_tracking_exp,2021.2.3,85.14228807038445,
