ori10,ori11,ori12,ori13,ori14,ori16,ori17,ori18,ori19,ori20,corrAns,distractor,respon,dist_freq,practice_trials.thisRepN,practice_trials.thisTrialN,practice_trials.thisN,practice_trials.thisIndex,trials.thisRepN,trials.thisTrialN,trials.thisN,trials.thisIndex,key_resp.keys,key_resp.rt,key_resp_2.keys,key_resp_2.rt,fixdur,int14.started,int14.stopped,per15.started,per15.stopped,response.keys,response.corr,response.rt,text_7.started,text_7.stopped,participant,session,1=top 2=bottom,age,gender,date,expName,psychopyVersion,frameRate,
,,,,,,,,,,,,,,,,,,,,,,space,1.8287501151353354,,,,,,,,,,,,,006,001,1,33,F,2021_Nov_08_1505,eye_tracking_exp,2021.2.3,85.81383722873142,
,,,,,,,,,,,,,,,,,,,,,,,,space,4.48851915938576,,,,,,,,,,,006,001,1,33,F,2021_Nov_08_1505,eye_tracking_exp,2021.2.3,85.81383722873142,
12,0,0,0,270,180,12,180,180,180,j,present,resp,freq_top,,,,,0,0,0,571,,,,,1.0508820602317301,92.05091778302449,None,92.05091778302449,None,j,1,0.846177593961329,None,None,006,001,1,33,F,2021_Nov_08_1505,eye_tracking_exp,2021.2.3,85.81383722873142,
168,180,90,180,-168,180,180,180,180,180,f,present,resp,freq_top,,,,,0,1,1,867,,,,,1.0199603438021625,94.02705370383774,None,94.02705370383774,None,j,0,0.18200338437236496,94.24011290311319,None,006,001,1,33,F,2021_Nov_08_1505,eye_tracking_exp,2021.2.3,85.81383722873142,
0,0,0,-168,0,0,0,0,0,-168,f,abs,resp,freq_top,,,,,0,2,2,284,,,,,0.709835108876299,95.49805504434335,None,95.49805504434335,None,f,1,1.1751496304896136,None,None,006,001,1,33,F,2021_Nov_08_1505,eye_tracking_exp,2021.2.3,85.81383722873142,
180,-168,180,90,180,180,0,180,0,-168,f,present,resp,freq_top,,,,,0,3,3,832,,,,,0.8799795318795312,97.85117459504909,None,97.85117459504909,None,f,1,0.982003324003017,None,None,006,001,1,33,F,2021_Nov_08_1505,eye_tracking_exp,2021.2.3,85.81383722873142,
0,0,0,168,0,180,180,180,0,-168,f,abs,resp,freq_top,,,,,0,4,4,354,,,,,0.8828594064760608,100.06351117093072,None,100.06351117093072,None,f,1,0.8177408239644137,None,None,006,001,1,33,F,2021_Nov_08_1505,eye_tracking_exp,2021.2.3,85.81383722873142,
168,180,180,168,0,180,180,180,180,90,f,present,resp,freq_top,,,,,0,5,5,778,,,,,0.890586145030672,102.0285647534256,None,102.0285647534256,None,f,1,1.1886962534335908,None,None,006,001,1,33,F,2021_Nov_08_1505,eye_tracking_exp,2021.2.3,85.81383722873142,
0,0,0,0,0,168,0,168,0,0,f,abs,resp,freq_top,,,,,0,6,6,224,,,,,1.017802069226344,104.5111606677965,None,104.5111606677965,None,f,1,0.9141060041401943,None,None,006,001,1,33,F,2021_Nov_08_1505,eye_tracking_exp,2021.2.3,85.81383722873142,
0,180,0,180,-12,180,12,180,180,180,j,abs,resp,freq_top,,,,,0,7,7,147,,,,,0.9808090094527929,106.70162415191953,None,106.70162415191953,None,j,1,1.3627582390654425,None,None,006,001,1,33,F,2021_Nov_08_1505,eye_tracking_exp,2021.2.3,85.81383722873142,
0,0,90,0,0,0,12,0,180,12,j,present,resp,freq_top,,,,,0,8,8,547,,,,,1.0163803431905878,109.3947389153218,None,109.3947389153218,None,j,1,1.070606490568025,None,None,006,001,1,33,F,2021_Nov_08_1505,eye_tracking_exp,2021.2.3,85.81383722873142,
180,-12,180,270,180,-12,180,180,0,180,j,present,resp,freq_top,,,,,0,9,9,593,,,,,1.0941930944812746,111.80685188242933,None,111.80685188242933,None,j,1,2.673848515976715,None,None,006,001,1,33,F,2021_Nov_08_1505,eye_tracking_exp,2021.2.3,85.81383722873142,
12,180,90,180,12,180,180,180,0,180,j,present,resp,freq_top,,,,,0,10,10,517,,,,,1.0114134989364225,115.81936799732284,None,115.81936799732284,None,None,0,,118.79678646901084,None,006,001,1,33,F,2021_Nov_08_1505,eye_tracking_exp,2021.2.3,85.81383722873142,
0,0,0,-12,0,0,0,-12,0,0,j,abs,resp,freq_top,,,,,0,11,11,72,,,,,0.8929684252491179,120.22174003729015,None,120.22174003729015,None,j,1,1.1227585288361297,None,None,006,001,1,33,F,2021_Nov_08_1505,eye_tracking_exp,2021.2.3,85.81383722873142,
0,0,180,180,12,0,0,0,-12,0,j,abs,resp,freq_top,,,,,0,12,12,177,,,,,1.0279927926039993,122.67943230899255,None,122.67943230899255,None,j,1,1.080178986685496,None,None,006,001,1,33,F,2021_Nov_08_1505,eye_tracking_exp,2021.2.3,85.81383722873142,
0,0,180,0,180,180,-12,0,-12,0,j,abs,resp,freq_top,,,,,0,13,13,105,,,,,0.8374522150827827,124.86775176890296,None,124.86775176890296,None,j,1,0.955847617075051,None,None,006,001,1,33,F,2021_Nov_08_1505,eye_tracking_exp,2021.2.3,85.81383722873142,
-12,0,0,180,0,180,-12,180,180,180,j,abs,resp,freq_top,,,,,0,14,14,137,,,,,1.001634135604319,127.15032649356363,None,127.15032649356363,None,j,1,0.5773085659820936,None,None,006,001,1,33,F,2021_Nov_08_1505,eye_tracking_exp,2021.2.3,85.81383722873142,
0,0,-168,0,168,0,0,0,0,0,f,abs,resp,freq_top,,,,,0,15,15,399,,,,,0.7582076014544195,128.80918848547662,None,128.80918848547662,None,f,1,1.9115502596614533,None,None,006,001,1,33,F,2021_Nov_08_1505,eye_tracking_exp,2021.2.3,85.81383722873142,
180,180,0,168,180,180,180,180,168,180,f,abs,resp,freq_top,,,,,0,16,16,248,,,,,0.7736408257955596,131.86999751579424,None,131.86999751579424,None,f,1,0.9617251954950916,None,None,006,001,1,33,F,2021_Nov_08_1505,eye_tracking_exp,2021.2.3,85.81383722873142,
180,90,0,12,180,180,180,180,-12,0,j,present,resp,freq_top,,,,,0,17,17,682,,,,,0.7164612080935187,133.81108197609865,None,133.81108197609865,None,j,1,0.9886690267667291,None,None,006,001,1,33,F,2021_Nov_08_1505,eye_tracking_exp,2021.2.3,85.81383722873142,
180,0,12,0,180,180,180,12,180,180,j,abs,resp,freq_top,,,,,0,18,18,32,,,,,0.8783266582073039,136.21149049677842,None,136.21149049677842,None,j,1,1.213663585964241,None,None,006,001,1,33,F,2021_Nov_08_1505,eye_tracking_exp,2021.2.3,85.81383722873142,
0,0,0,168,0,168,0,0,0,0,f,abs,resp,freq_top,,,,,0,19,19,210,,,,,1.0758832422323672,138.84738067130456,None,138.84738067130456,None,f,1,1.1994894216513785,None,None,006,001,1,33,F,2021_Nov_08_1505,eye_tracking_exp,2021.2.3,85.81383722873142,
0,180,-12,0,270,-12,180,0,180,0,j,present,resp,freq_top,,,,,0,20,20,624,,,,,1.06314235847745,141.38915624210495,None,141.38915624210495,None,j,1,1.1377036121775745,None,None,006,001,1,33,F,2021_Nov_08_1505,eye_tracking_exp,2021.2.3,85.81383722873142,
0,0,180,0,-168,0,0,0,-168,0,f,abs,resp,freq_top,,,,,0,21,21,317,,,,,1.0071391171542008,143.89534306349378,None,143.89534306349378,None,f,1,0.6635386059242592,None,None,006,001,1,33,F,2021_Nov_08_1505,eye_tracking_exp,2021.2.3,85.81383722873142,
0,180,0,180,180,180,168,180,168,180,f,abs,resp,freq_top,,,,,0,22,22,231,,,,,0.7777892113673255,145.64835406976636,None,145.64835406976636,None,f,1,0.8305243759168661,None,None,006,001,1,33,F,2021_Nov_08_1505,eye_tracking_exp,2021.2.3,85.81383722873142,
0,0,0,180,12,0,0,0,12,0,j,abs,resp,freq_top,,,,,0,23,23,37,,,,,0.8763568857721459,147.67217770136267,None,147.67217770136267,None,j,1,0.6146782168252685,None,None,006,001,1,33,F,2021_Nov_08_1505,eye_tracking_exp,2021.2.3,85.81383722873142,
180,180,0,0,0,12,180,180,12,180,j,abs,resp,freq_top,,,,,0,24,24,36,,,,,0.8662208785570502,149.41386972071996,None,149.41386972071996,None,j,1,0.6014349508186569,None,None,006,001,1,33,F,2021_Nov_08_1505,eye_tracking_exp,2021.2.3,85.81383722873142,
90,180,0,180,0,180,180,-168,0,168,f,present,resp,freq_top,,,,,0,25,25,896,,,,,0.7994206420388333,151.0981605702982,None,151.0981605702982,None,f,1,1.0128020522606676,None,None,006,001,1,33,F,2021_Nov_08_1505,eye_tracking_exp,2021.2.3,85.81383722873142,
168,0,0,90,0,180,180,180,12,180,None,present,inhibit,freq_top,,,,,0,26,26,993,,,,,0.8959922379619099,153.27312236392754,None,153.27312236392754,None,j,0,1.2530429387952609,154.54504246846045,None,006,001,1,33,F,2021_Nov_08_1505,eye_tracking_exp,2021.2.3,85.81383722873142,
12,0,0,180,0,180,-12,180,0,180,j,abs,resp,freq_top,,,,,0,27,27,167,,,,,0.7095054758620832,155.7911965514504,None,155.7911965514504,None,j,1,0.6233608659240417,None,None,006,001,1,33,F,2021_Nov_08_1505,eye_tracking_exp,2021.2.3,85.81383722873142,
0,0,-168,0,90,0,180,180,-168,0,f,present,resp,freq_top,,,,,0,28,28,823,,,,,0.9752824971264384,157.66212647478824,None,157.66212647478824,None,f,1,0.7201235795255343,None,None,006,001,1,33,F,2021_Nov_08_1505,eye_tracking_exp,2021.2.3,85.81383722873142,
90,0,-12,180,180,180,180,0,180,12,j,present,resp,freq_top,,,,,0,29,29,691,,,,,0.8697109647689101,159.52163387745532,None,159.52163387745532,None,f,0,0.732459793187445,160.28691680383054,None,006,001,1,33,F,2021_Nov_08_1505,eye_tracking_exp,2021.2.3,85.81383722873142,
180,180,180,-168,180,-168,0,180,0,180,f,abs,resp,freq_top,,,,,0,30,30,297,,,,,0.9853480947858745,161.86345677797362,None,161.86345677797362,None,f,1,0.838615403525182,None,None,006,001,1,33,F,2021_Nov_08_1505,eye_tracking_exp,2021.2.3,85.81383722873142,
180,0,168,180,180,180,180,0,12,0,None,abs,inhibit,freq_top,,,,,0,31,31,473,,,,,0.9536867739710122,163.89907420292002,None,163.89907420292002,None,None,1,,None,None,006,001,1,33,F,2021_Nov_08_1505,eye_tracking_exp,2021.2.3,85.81383722873142,
270,0,168,180,180,180,12,0,0,0,None,present,inhibit,freq_top,,,,,0,32,32,975,,,,,0.8178760175784969,168.0305261597823,None,168.0305261597823,None,None,1,,None,None,006,001,1,33,F,2021_Nov_08_1505,eye_tracking_exp,2021.2.3,85.81383722873142,
12,0,180,0,-12,180,180,0,180,180,j,abs,resp,freq_top,,,,,0,33,33,153,,,,,0.7244594685448638,171.97240538508413,None,171.97240538508413,None,j,1,1.7528188168798806,None,None,006,001,1,33,F,2021_Nov_08_1505,eye_tracking_exp,2021.2.3,85.81383722873142,
0,0,-12,0,0,0,0,0,180,12,j,abs,resp,freq_top,,,,,0,34,34,187,,,,,0.7275662577891588,174.76127438891854,None,174.76127438891854,None,j,1,1.0760159032070078,None,None,006,001,1,33,F,2021_Nov_08_1505,eye_tracking_exp,2021.2.3,85.81383722873142,
180,90,0,180,180,-168,180,180,0,-168,f,present,resp,freq_top,,,,,0,35,35,828,,,,,1.0000492276067203,177.12655538346735,None,177.12655538346735,None,f,1,0.9827648857535678,None,None,006,001,1,33,F,2021_Nov_08_1505,eye_tracking_exp,2021.2.3,85.81383722873142,
180,180,12,180,-12,0,180,0,180,180,j,abs,resp,freq_top,,,,,0,36,36,151,,,,,0.9989425303626311,179.37607355907676,None,179.37607355907676,None,j,1,1.9182796522909484,None,None,006,001,1,33,F,2021_Nov_08_1505,eye_tracking_exp,2021.2.3,85.81383722873142,
180,180,90,180,-12,180,-12,180,180,180,j,present,resp,freq_top,,,,,0,37,37,581,,,,,0.9085805495886896,182.62180173496017,None,182.62180173496017,None,j,1,1.8076210779618123,None,None,006,001,1,33,F,2021_Nov_08_1505,eye_tracking_exp,2021.2.3,85.81383722873142,
0,0,0,-168,0,0,0,-168,0,0,f,abs,resp,freq_top,,,,,0,38,38,282,,,,,1.0556135773889197,185.78697430581815,None,185.78697430581815,None,f,1,1.9054761783881986,None,None,006,001,1,33,F,2021_Nov_08_1505,eye_tracking_exp,2021.2.3,85.81383722873142,
180,-168,180,0,90,-168,180,180,0,0,f,present,resp,freq_top,,,,,0,39,39,803,,,,,0.9179475787554434,188.89355552141205,None,188.89355552141205,None,f,1,2.4632351886175456,None,None,006,001,1,33,F,2021_Nov_08_1505,eye_tracking_exp,2021.2.3,85.81383722873142,
0,90,0,168,180,180,180,168,0,0,f,present,resp,freq_top,,,,,0,40,40,716,,,,,0.7118521584285473,192.61250633503005,None,192.61250633503005,None,f,1,2.1680480596442067,None,None,006,001,1,33,F,2021_Nov_08_1505,eye_tracking_exp,2021.2.3,85.81383722873142,
0,-168,0,0,0,12,0,180,0,0,None,abs,inhibit,freq_top,,,,,0,41,41,478,,,,,0.890288186349099,195.95530631655492,None,195.95530631655492,None,None,1,,None,None,006,001,1,33,F,2021_Nov_08_1505,eye_tracking_exp,2021.2.3,85.81383722873142,
168,180,270,180,180,12,0,0,0,0,None,present,inhibit,freq_top,,,,,0,42,42,990,,,,,1.072508807828727,201.42686305682946,None,201.42686305682946,None,None,1,,None,None,006,001,1,33,F,2021_Nov_08_1505,eye_tracking_exp,2021.2.3,85.81383722873142,
-168,0,0,180,-168,180,180,0,180,0,f,abs,resp,freq_top,,,,,0,43,43,345,,,,,0.8326268156834125,205.6864738121476,None,205.6864738121476,None,f,1,0.773283789112611,None,None,006,001,1,33,F,2021_Nov_08_1505,eye_tracking_exp,2021.2.3,85.81383722873142,
180,180,0,180,180,12,180,180,0,-168,None,abs,inhibit,freq_top,,,,,0,44,44,464,,,,,1.051642319103232,207.79272450451026,None,207.79272450451026,None,None,1,,None,None,006,001,1,33,F,2021_Nov_08_1505,eye_tracking_exp,2021.2.3,85.81383722873142,
0,0,0,-168,180,180,180,180,0,12,None,abs,inhibit,freq_top,,,,,0,45,45,424,,,,,1.0687152410547458,212.1231864612855,None,212.1231864612855,None,None,1,,None,None,006,001,1,33,F,2021_Nov_08_1505,eye_tracking_exp,2021.2.3,85.81383722873142,
0,168,0,270,180,180,180,180,0,-168,f,present,resp,freq_top,,,,,0,46,46,916,,,,,0.8147991610110672,216.27719398755653,None,216.27719398755653,None,f,1,0.9656950964490534,None,None,006,001,1,33,F,2021_Nov_08_1505,eye_tracking_exp,2021.2.3,85.81383722873142,
180,180,90,180,-12,0,12,0,0,180,j,present,resp,freq_top,,,,,0,47,47,651,,,,,0.7242125180009638,218.36153929045759,None,218.36153929045759,None,None,0,,221.35118561248964,None,006,001,1,33,F,2021_Nov_08_1505,eye_tracking_exp,2021.2.3,85.81383722873142,
0,0,180,0,180,-12,0,-12,0,0,j,abs,resp,freq_top,,,,,0,48,48,99,,,,,0.8595682957257785,222.7620715686935,None,222.7620715686935,None,j,1,1.2488695924912463,None,None,006,001,1,33,F,2021_Nov_08_1505,eye_tracking_exp,2021.2.3,85.81383722873142,
180,168,180,0,180,0,180,0,0,168,f,abs,resp,freq_top,,,,,0,49,49,258,,,,,0.8703923703910195,225.02136206359864,None,225.02136206359864,None,f,1,1.4373595963552361,None,None,006,001,1,33,F,2021_Nov_08_1505,eye_tracking_exp,2021.2.3,85.81383722873142,
-168,0,0,168,0,0,0,0,0,0,f,abs,resp,freq_top,,,,,0,50,50,356,,,,,0.9872100347156589,227.71663896207974,None,227.71663896207974,None,f,1,2.4064325828258006,None,None,006,001,1,33,F,2021_Nov_08_1505,eye_tracking_exp,2021.2.3,85.81383722873142,
168,0,180,0,0,0,0,270,-168,0,f,present,resp,freq_top,,,,,0,51,51,895,,,,,0.8452566191630622,231.25993403420216,None,231.25993403420216,None,f,1,1.75904684048146,None,None,006,001,1,33,F,2021_Nov_08_1505,eye_tracking_exp,2021.2.3,85.81383722873142,
0,270,0,12,0,-12,180,180,180,180,j,present,resp,freq_top,,,,,0,52,52,644,,,,,1.0885221959044011,234.3881245266639,None,234.3881245266639,None,j,1,2.246162622319389,None,None,006,001,1,33,F,2021_Nov_08_1505,eye_tracking_exp,2021.2.3,85.81383722873142,
0,0,-168,0,0,168,0,0,0,0,f,abs,resp,freq_top,,,,,0,53,53,368,,,,,0.8250530416646614,237.71766041469527,None,237.71766041469527,None,f,1,1.300581234969286,None,None,006,001,1,33,F,2021_Nov_08_1505,eye_tracking_exp,2021.2.3,85.81383722873142,
-12,180,0,0,0,12,0,0,0,0,j,abs,resp,freq_top,,,,,0,54,54,206,,,,,0.7797246853404142,240.14151676658366,None,240.14151676658366,None,j,1,2.220371245563001,None,None,006,001,1,33,F,2021_Nov_08_1505,eye_tracking_exp,2021.2.3,85.81383722873142,
180,-12,180,0,180,0,-12,0,180,180,j,abs,resp,freq_top,,,,,0,55,55,129,,,,,0.7664067799863765,243.40077285085135,None,243.40077285085135,None,j,1,1.1054596371359366,None,None,006,001,1,33,F,2021_Nov_08_1505,eye_tracking_exp,2021.2.3,85.81383722873142,
180,12,180,0,180,12,0,180,0,180,j,abs,resp,freq_top,,,,,0,56,56,19,,,,,0.9816558230367232,245.76605293985995,None,245.76605293985995,None,j,1,0.8682782788855548,None,None,006,001,1,33,F,2021_Nov_08_1505,eye_tracking_exp,2021.2.3,85.81383722873142,
180,180,0,0,0,12,180,180,-12,180,j,abs,resp,freq_top,,,,,0,57,57,176,,,,,0.7550462027926944,247.5432455691007,None,247.5432455691007,None,j,1,1.9221097977642785,None,None,006,001,1,33,F,2021_Nov_08_1505,eye_tracking_exp,2021.2.3,85.81383722873142,
180,-168,180,180,180,168,180,0,180,180,f,abs,resp,freq_top,,,,,0,58,58,369,,,,,0.742653854080526,250.4728172562718,None,250.4728172562718,None,f,1,0.7365365482291963,None,None,006,001,1,33,F,2021_Nov_08_1505,eye_tracking_exp,2021.2.3,85.81383722873142,
168,0,168,180,90,180,0,0,180,180,f,present,resp,freq_top,,,,,0,59,59,777,,,,,0.9826012614205606,252.49680479116796,None,252.49680479116796,None,f,1,1.0645954954634362,None,None,006,001,1,33,F,2021_Nov_08_1505,eye_tracking_exp,2021.2.3,85.81383722873142,
180,180,0,12,180,0,180,0,168,0,None,abs,inhibit,freq_top,,,,,0,60,60,458,,,,,0.8684972770521796,254.68508833119995,None,254.68508833119995,None,None,1,,None,None,006,001,1,33,F,2021_Nov_08_1505,eye_tracking_exp,2021.2.3,85.81383722873142,
270,0,180,-168,180,180,180,-168,0,0,f,present,resp,freq_top,,,,,0,61,61,815,,,,,1.0576070995778784,259.18107239847086,None,259.18107239847086,None,f,1,1.2924461375987448,None,None,006,001,1,33,F,2021_Nov_08_1505,eye_tracking_exp,2021.2.3,85.81383722873142,
0,180,0,-168,0,180,0,180,0,-168,f,abs,resp,freq_top,,,,,0,62,62,326,,,,,0.7989263946773161,262.0296495940602,None,262.0296495940602,None,f,1,0.7319768368652149,None,None,006,001,1,33,F,2021_Nov_08_1505,eye_tracking_exp,2021.2.3,85.81383722873142,
180,-168,0,180,0,180,-168,0,180,180,f,abs,resp,freq_top,,,,,0,63,63,339,,,,,0.8044172781599173,263.8053178924165,None,263.8053178924165,None,f,1,0.7152623223082628,None,None,006,001,1,33,F,2021_Nov_08_1505,eye_tracking_exp,2021.2.3,85.81383722873142,
0,-168,0,90,0,180,180,180,180,12,None,present,inhibit,freq_top,,,,,0,64,64,986,,,,,0.9932693721246575,265.8644519698428,None,265.8644519698428,None,None,1,,None,None,006,001,1,33,F,2021_Nov_08_1505,eye_tracking_exp,2021.2.3,85.81383722873142,
-168,0,90,180,-168,0,180,0,180,180,f,present,resp,freq_top,,,,,0,65,65,849,,,,,1.0945622591423678,270.4542536227018,None,270.4542536227018,None,f,1,2.0665502611700504,None,None,006,001,1,33,F,2021_Nov_08_1505,eye_tracking_exp,2021.2.3,85.81383722873142,
180,0,180,0,180,168,180,180,-168,180,f,abs,resp,freq_top,,,,,0,66,66,365,,,,,0.7686084881917506,273.60788263195354,None,273.60788263195354,None,f,1,1.1848383379765437,None,None,006,001,1,33,F,2021_Nov_08_1505,eye_tracking_exp,2021.2.3,85.81383722873142,
-12,0,-12,180,270,180,0,180,0,180,j,present,resp,freq_top,,,,,0,67,67,637,,,,,0.8309725699779353,275.93766482771025,None,275.93766482771025,None,j,1,2.0071692723249726,None,None,006,001,1,33,F,2021_Nov_08_1505,eye_tracking_exp,2021.2.3,85.81383722873142,
180,270,0,0,0,0,0,168,0,168,f,present,resp,freq_top,,,,,0,68,68,742,,,,,0.7297921358546703,278.9858188931903,None,278.9858188931903,None,f,1,1.1979807868447097,None,None,006,001,1,33,F,2021_Nov_08_1505,eye_tracking_exp,2021.2.3,85.81383722873142,
270,0,0,0,168,180,180,180,180,12,None,present,inhibit,freq_top,,,,,0,69,69,1004,,,,,0.8955712201603785,281.37461503098893,None,281.37461503098893,None,None,1,,None,None,006,001,1,33,F,2021_Nov_08_1505,eye_tracking_exp,2021.2.3,85.81383722873142,
180,12,180,0,180,180,-12,0,180,180,j,abs,resp,freq_top,,,,,0,70,70,199,,,,,0.7790084276757628,285.4111216992569,None,285.4111216992569,None,j,1,0.7247518103140465,None,None,006,001,1,33,F,2021_Nov_08_1505,eye_tracking_exp,2021.2.3,85.81383722873142,
0,12,0,12,180,90,180,180,0,0,j,present,resp,freq_top,,,,,0,71,71,560,,,,,0.76332150061804,287.3999364308729,None,287.3999364308729,None,j,1,1.5039810059861338,None,None,006,001,1,33,F,2021_Nov_08_1505,eye_tracking_exp,2021.2.3,85.81383722873142,
0,12,0,0,0,180,180,180,0,12,j,abs,resp,freq_top,,,,,0,72,72,62,,,,,0.8453848214201019,290.0942736774632,None,290.0942736774632,None,j,1,1.8019095157724223,None,None,006,001,1,33,F,2021_Nov_08_1505,eye_tracking_exp,2021.2.3,85.81383722873142,
90,0,0,168,0,0,168,180,180,180,f,present,resp,freq_top,,,,,0,73,73,738,,,,,0.7900397709984467,292.97895729126685,None,292.97895729126685,None,f,1,1.940123162974487,None,None,006,001,1,33,F,2021_Nov_08_1505,eye_tracking_exp,2021.2.3,85.81383722873142,
0,0,0,0,12,180,180,180,180,12,j,abs,resp,freq_top,,,,,0,74,74,10,,,,,0.715560031954235,295.9192460810373,None,295.9192460810373,None,j,1,0.9677512829839543,None,None,006,001,1,33,F,2021_Nov_08_1505,eye_tracking_exp,2021.2.3,85.81383722873142,
168,180,0,180,0,0,180,12,0,0,None,abs,inhibit,freq_top,,,,,0,75,75,488,,,,,0.9497916896715128,298.09613879440076,None,298.09613879440076,None,None,1,,None,None,006,001,1,33,F,2021_Nov_08_1505,eye_tracking_exp,2021.2.3,85.81383722873142,
168,180,90,180,168,180,0,0,180,180,f,present,resp,freq_top,,,,,0,76,76,727,,,,,0.7903365085086058,302.1208468397599,None,302.1208468397599,None,f,1,2.7823437478400592,None,None,006,001,1,33,F,2021_Nov_08_1505,eye_tracking_exp,2021.2.3,85.81383722873142,
0,-168,180,180,0,180,0,-168,0,0,f,abs,resp,freq_top,,,,,0,77,77,313,,,,,1.0269425919687198,306.46365678225993,None,306.46365678225993,None,f,1,0.7275294128521637,None,None,006,001,1,33,F,2021_Nov_08_1505,eye_tracking_exp,2021.2.3,85.81383722873142,
0,0,-12,0,0,-12,180,180,180,180,j,abs,resp,freq_top,,,,,0,78,78,88,,,,,1.0183645615735222,308.5458236503109,None,308.5458236503109,None,j,1,1.1253843019840133,None,None,006,001,1,33,F,2021_Nov_08_1505,eye_tracking_exp,2021.2.3,85.81383722873142,
180,-12,180,12,180,0,180,0,180,180,j,abs,resp,freq_top,,,,,0,79,79,145,,,,,0.7231294890197448,310.75802469657356,None,310.75802469657356,None,j,1,1.3289923479169374,None,None,006,001,1,33,F,2021_Nov_08_1505,eye_tracking_exp,2021.2.3,85.81383722873142,
180,90,0,168,180,0,180,0,0,168,f,present,resp,freq_top,,,,,0,80,80,760,,,,,0.9019804601561214,313.36994031565337,None,313.36994031565337,None,f,1,1.5819582279582391,None,None,006,001,1,33,F,2021_Nov_08_1505,eye_tracking_exp,2021.2.3,85.81383722873142,
180,0,168,0,0,0,12,0,0,0,None,abs,inhibit,freq_top,,,,,0,81,81,471,,,,,0.9032477954203957,315.92345776199727,None,315.92345776199727,None,None,1,,None,None,006,001,1,33,F,2021_Nov_08_1505,eye_tracking_exp,2021.2.3,85.81383722873142,
12,0,12,180,180,0,180,180,0,180,j,abs,resp,freq_top,,,,,0,82,82,63,,,,,1.0939064325559649,320.2653048103348,None,320.2653048103348,None,j,1,0.7330613756530511,None,None,006,001,1,33,F,2021_Nov_08_1505,eye_tracking_exp,2021.2.3,85.81383722873142,
0,90,168,0,0,168,0,0,180,180,f,present,resp,freq_top,,,,,0,83,83,732,,,,,1.0641038875388058,323.0195473552267,None,323.0195473552267,None,f,1,0.8748721418960486,None,None,006,001,1,33,F,2021_Nov_08_1505,eye_tracking_exp,2021.2.3,85.81383722873142,
180,180,90,0,0,180,180,168,0,-168,f,present,resp,freq_top,,,,,0,84,84,882,,,,,1.0589296241900161,325.28931407826894,None,325.28931407826894,None,f,1,0.988271493348293,None,None,006,001,1,33,F,2021_Nov_08_1505,eye_tracking_exp,2021.2.3,85.81383722873142,
0,0,90,0,12,0,0,0,180,-168,None,present,inhibit,freq_top,,,,,0,85,85,969,,,,,0.8791435229755022,327.47771322596964,None,327.47771322596964,None,None,1,,None,None,006,001,1,33,F,2021_Nov_08_1505,eye_tracking_exp,2021.2.3,85.81383722873142,
0,12,0,90,180,180,168,0,0,0,None,present,inhibit,freq_top,,,,,0,86,86,950,,,,,1.0779421458998801,331.8554300439282,None,331.8554300439282,None,None,1,,None,None,006,001,1,33,F,2021_Nov_08_1505,eye_tracking_exp,2021.2.3,85.81383722873142,
180,270,0,180,180,180,180,12,0,-168,None,present,inhibit,freq_top,,,,,0,87,87,966,,,,,0.8184967487719703,335.9653170955353,None,335.9653170955353,None,None,1,,None,None,006,001,1,33,F,2021_Nov_08_1505,eye_tracking_exp,2021.2.3,85.81383722873142,
-168,180,90,0,0,180,180,168,0,0,f,present,resp,freq_top,,,,,0,88,88,922,,,,,0.9061266289686949,340.22364831845334,None,340.22364831845334,None,f,1,1.253065275530389,None,None,006,001,1,33,F,2021_Nov_08_1505,eye_tracking_exp,2021.2.3,85.81383722873142,
0,180,0,180,180,168,180,180,168,180,f,abs,resp,freq_top,,,,,0,89,89,225,,,,,1.0246820048728102,342.7774609718472,None,342.7774609718472,None,f,1,0.8433015890732349,None,None,006,001,1,33,F,2021_Nov_08_1505,eye_tracking_exp,2021.2.3,85.81383722873142,
180,180,12,180,12,180,0,180,0,180,j,abs,resp,freq_top,,,,,0,90,90,11,,,,,0.8778437132187594,345.05943592512995,None,345.05943592512995,None,j,1,0.8652791201348009,None,None,006,001,1,33,F,2021_Nov_08_1505,eye_tracking_exp,2021.2.3,85.81383722873142,
12,180,180,90,0,12,0,0,180,180,j,present,resp,freq_top,,,,,0,91,91,570,,,,,0.9419812124193947,347.64800181350074,None,347.64800181350074,None,j,1,0.7888171736194636,None,None,006,001,1,33,F,2021_Nov_08_1505,eye_tracking_exp,2021.2.3,85.81383722873142,
0,0,180,180,-168,0,0,0,180,168,f,abs,resp,freq_top,,,,,0,92,92,395,,,,,1.0400849745861165,349.7662108062068,None,349.7662108062068,None,f,1,0.6865662651362072,None,None,006,001,1,33,F,2021_Nov_08_1505,eye_tracking_exp,2021.2.3,85.81383722873142,
0,180,0,180,90,180,12,0,12,180,j,present,resp,freq_top,,,,,0,93,93,525,,,,,0.8322912077854094,351.57824511180297,None,351.57824511180297,None,j,1,0.7313073386685573,None,None,006,001,1,33,F,2021_Nov_08_1505,eye_tracking_exp,2021.2.3,85.81383722873142,
180,168,0,270,180,0,180,0,168,180,f,present,resp,freq_top,,,,,0,94,94,754,,,,,0.9765748999376578,353.60193291193355,None,353.60193291193355,None,f,1,2.5149555846764997,None,None,006,001,1,33,F,2021_Nov_08_1505,eye_tracking_exp,2021.2.3,85.81383722873142,
270,0,180,-12,0,180,0,-12,0,0,j,present,resp,freq_top,,,,,0,95,95,605,,,,,0.76368063184717,357.1675085702118,None,357.1675085702118,None,j,1,0.7563963158245315,None,None,006,001,1,33,F,2021_Nov_08_1505,eye_tracking_exp,2021.2.3,85.81383722873142,
180,168,180,0,90,180,0,180,0,168,f,present,resp,freq_top,,,,,0,96,96,762,,,,,0.7254184723205434,358.979361465339,None,358.979361465339,None,f,1,1.040579285032436,None,None,006,001,1,33,F,2021_Nov_08_1505,eye_tracking_exp,2021.2.3,85.81383722873142,
0,168,0,270,0,168,180,180,0,0,f,present,resp,freq_top,,,,,0,97,97,772,,,,,0.7712587888631353,361.1093222945601,None,361.1093222945601,None,f,1,1.0867236485246394,None,None,006,001,1,33,F,2021_Nov_08_1505,eye_tracking_exp,2021.2.3,85.81383722873142,
0,270,180,0,0,0,-168,0,180,168,f,present,resp,freq_top,,,,,0,98,98,897,,,,,0.8771090557482932,363.38011590348106,None,363.38011590348106,None,f,1,1.184991072910634,None,None,006,001,1,33,F,2021_Nov_08_1505,eye_tracking_exp,2021.2.3,85.81383722873142,
12,180,0,180,0,180,12,180,180,180,j,abs,resp,freq_top,,,,,0,99,99,27,,,,,0.7304533728883771,365.6158960847024,None,365.6158960847024,None,j,1,0.8835224932954588,None,None,006,001,1,33,F,2021_Nov_08_1505,eye_tracking_exp,2021.2.3,85.81383722873142,
180,12,180,-168,180,180,0,180,180,180,None,abs,inhibit,freq_top,,,,,0,100,100,425,,,,,1.05583847248608,367.88671957654515,None,367.88671957654515,None,None,1,,None,None,006,001,1,33,F,2021_Nov_08_1505,eye_tracking_exp,2021.2.3,85.81383722873142,
180,168,0,180,0,180,180,180,168,180,f,abs,resp,freq_top,,,,,0,101,101,250,,,,,0.7400147618027846,372.08786575263,None,372.08786575263,None,f,1,1.1313965044791985,None,None,006,001,1,33,F,2021_Nov_08_1505,eye_tracking_exp,2021.2.3,85.81383722873142,
12,180,0,180,12,0,180,0,180,180,j,abs,resp,freq_top,,,,,0,102,102,13,,,,,0.8885002034781473,374.3941385402468,None,374.3941385402468,None,j,1,0.6169755796727259,None,None,006,001,1,33,F,2021_Nov_08_1505,eye_tracking_exp,2021.2.3,85.81383722873142,
180,168,0,180,180,0,180,0,-168,180,f,abs,resp,freq_top,,,,,0,103,103,390,,,,,1.0102921412729466,376.3007362970966,None,376.3007362970966,None,f,1,0.7584458617093333,None,None,006,001,1,33,F,2021_Nov_08_1505,eye_tracking_exp,2021.2.3,85.81383722873142,
0,0,180,0,0,0,12,0,12,0,j,abs,resp,freq_top,,,,,0,104,104,35,,,,,0.8793433461014084,378.2193107669991,None,378.2193107669991,None,j,1,0.6639448929308855,None,None,006,001,1,33,F,2021_Nov_08_1505,eye_tracking_exp,2021.2.3,85.81383722873142,
-12,0,-12,180,0,180,0,180,0,180,j,abs,resp,freq_top,,,,,0,105,105,133,,,,,0.8581432009539622,380.00693072504873,None,380.00693072504873,None,f,0,0.7643506064232497,380.7846014810457,None,006,001,1,33,F,2021_Nov_08_1505,eye_tracking_exp,2021.2.3,85.81383722873142,
180,180,270,0,-12,0,0,12,180,0,j,present,resp,freq_top,,,,,0,106,106,674,,,,,1.0749632219807177,382.41899207619645,None,382.41899207619645,None,j,1,1.0243066755101609,None,None,006,001,1,33,F,2021_Nov_08_1505,eye_tracking_exp,2021.2.3,85.81383722873142,
270,180,180,-168,180,180,-168,180,180,180,f,present,resp,freq_top,,,,,0,107,107,785,,,,,1.0198481255073046,384.8192182808634,None,384.8192182808634,None,f,1,0.7674050033019739,None,None,006,001,1,33,F,2021_Nov_08_1505,eye_tracking_exp,2021.2.3,85.81383722873142,
168,0,0,180,12,0,180,0,180,180,None,abs,inhibit,freq_top,,,,,0,108,108,485,,,,,0.7221896851543027,386.51344173086545,None,386.51344173086545,None,None,1,,None,None,006,001,1,33,F,2021_Nov_08_1505,eye_tracking_exp,2021.2.3,85.81383722873142,
180,12,180,12,180,90,180,180,0,180,j,present,resp,freq_top,,,,,0,109,109,509,,,,,0.8775281022383633,390.6562848162466,None,390.6562848162466,None,j,1,1.9380772392614745,None,None,006,001,1,33,F,2021_Nov_08_1505,eye_tracking_exp,2021.2.3,85.81383722873142,
180,180,12,180,168,0,180,90,0,180,None,present,inhibit,freq_top,,,,,0,110,110,935,,,,,1.0066115234251727,393.99814122186217,None,393.99814122186217,None,None,1,,None,None,006,001,1,33,F,2021_Nov_08_1505,eye_tracking_exp,2021.2.3,85.81383722873142,
180,180,0,12,0,180,0,0,-12,180,j,abs,resp,freq_top,,,,,0,111,111,178,,,,,0.8344459053167075,398.0585952792826,None,398.0585952792826,None,j,1,1.7999538445255894,None,None,006,001,1,33,F,2021_Nov_08_1505,eye_tracking_exp,2021.2.3,85.81383722873142,
12,0,0,12,0,0,180,0,180,180,j,abs,resp,freq_top,,,,,0,112,112,6,,,,,1.0398830140027253,401.17687882837345,None,401.17687882837345,None,j,1,0.6176649998196808,None,None,006,001,1,33,F,2021_Nov_08_1505,eye_tracking_exp,2021.2.3,85.81383722873142,
0,180,168,0,180,168,180,0,180,180,f,abs,resp,freq_top,,,,,0,113,113,260,,,,,0.8847114479496397,402.9771428847416,None,402.9771428847416,None,f,1,0.865577647509781,403.8616478047079,None,006,001,1,33,F,2021_Nov_08_1505,eye_tracking_exp,2021.2.3,85.81383722873142,
180,180,-168,0,0,180,180,168,180,180,f,abs,resp,freq_top,,,,,0,114,114,382,,,,,1.0668472219447231,405.45974755269344,None,405.45974755269344,None,f,1,1.2458559450533357,None,None,006,001,1,33,F,2021_Nov_08_1505,eye_tracking_exp,2021.2.3,85.81383722873142,
180,0,180,180,12,0,12,180,0,180,j,abs,resp,freq_top,,,,,0,115,115,23,,,,,0.8197678476550139,407.9422100503798,None,407.9422100503798,None,j,1,0.6516953095560893,None,None,006,001,1,33,F,2021_Nov_08_1505,eye_tracking_exp,2021.2.3,85.81383722873142,
180,90,180,180,180,180,-12,180,12,0,j,present,resp,freq_top,,,,,0,116,116,665,,,,,0.9607396920566609,409.70742113700544,None,409.70742113700544,None,j,1,1.0462618698402366,None,None,006,001,1,33,F,2021_Nov_08_1505,eye_tracking_exp,2021.2.3,85.81383722873142,
90,180,168,180,180,180,168,180,180,180,f,present,resp,freq_top,,,,,0,117,117,739,,,,,0.8079340859917419,411.84929710235156,None,411.84929710235156,None,f,1,1.0324713539557706,None,None,006,001,1,33,F,2021_Nov_08_1505,eye_tracking_exp,2021.2.3,85.81383722873142,
168,180,0,90,0,168,0,180,180,180,f,present,resp,freq_top,,,,,0,118,118,780,,,,,0.8728522501393989,414.0379304838716,None,414.0379304838716,None,f,1,2.34786688461827,None,None,006,001,1,33,F,2021_Nov_08_1505,eye_tracking_exp,2021.2.3,85.81383722873142,
-168,0,0,-168,0,0,0,0,0,0,f,abs,resp,freq_top,,,,,0,119,119,286,,,,,0.9179222808072949,417.58020591446257,None,417.58020591446257,None,f,1,0.8216325463617977,None,None,006,001,1,33,F,2021_Nov_08_1505,eye_tracking_exp,2021.2.3,85.81383722873142,
180,0,180,0,12,0,-12,180,180,180,j,abs,resp,freq_top,,,,,0,120,120,163,,,,,0.8141720240440543,419.9690892862491,None,419.9690892862491,None,j,1,2.6717727093418944,None,None,006,001,1,33,F,2021_Nov_08_1505,eye_tracking_exp,2021.2.3,85.81383722873142,
180,168,180,0,180,168,180,0,180,180,f,abs,resp,freq_top,,,,,0,121,121,229,,,,,0.938056203911706,423.85248250113364,None,423.85248250113364,None,f,1,1.9576007485193259,None,None,006,001,1,33,F,2021_Nov_08_1505,eye_tracking_exp,2021.2.3,85.81383722873142,
180,0,168,180,168,0,180,180,0,180,f,abs,resp,freq_top,,,,,0,122,122,221,,,,,0.8977211130246177,427.01788689102614,None,427.01788689102614,None,f,1,1.3041252288203395,None,None,006,001,1,33,F,2021_Nov_08_1505,eye_tracking_exp,2021.2.3,85.81383722873142,
180,180,0,168,180,180,180,0,0,168,f,abs,resp,freq_top,,,,,0,123,123,256,,,,,0.8773509039974698,429.3003496301899,None,429.3003496301899,None,f,1,0.8606605484710599,None,None,006,001,1,33,F,2021_Nov_08_1505,eye_tracking_exp,2021.2.3,85.81383722873142,
90,180,0,-168,180,0,0,0,-168,180,f,present,resp,freq_top,,,,,0,124,124,822,,,,,0.8898710446327386,431.3476476555952,None,431.3476476555952,None,f,1,1.917435384271812,None,None,006,001,1,33,F,2021_Nov_08_1505,eye_tracking_exp,2021.2.3,85.81383722873142,
0,168,0,270,180,180,180,180,0,168,f,present,resp,freq_top,,,,,0,125,125,776,,,,,0.9447906130419763,435.3019059569342,None,435.3019059569342,None,f,1,1.562115665677993,None,None,006,001,1,33,F,2021_Nov_08_1505,eye_tracking_exp,2021.2.3,85.81383722873142,
-168,0,0,180,0,0,0,168,180,180,f,abs,resp,freq_top,,,,,0,126,126,384,,,,,1.0645475265122846,438.17316851644136,None,438.17316851644136,None,f,1,1.2988525531873165,None,None,006,001,1,33,F,2021_Nov_08_1505,eye_tracking_exp,2021.2.3,85.81383722873142,
180,180,180,0,0,0,-168,0,0,168,f,abs,resp,freq_top,,,,,0,127,127,372,,,,,0.9927819145275774,440.8695697976036,None,440.8695697976036,None,f,1,0.8124322284566006,None,None,006,001,1,33,F,2021_Nov_08_1505,eye_tracking_exp,2021.2.3,85.81383722873142,
90,180,12,0,180,180,180,-168,180,180,None,present,inhibit,freq_top,,,,,0,128,128,956,,,,,0.8661156023664853,442.83263692038236,None,442.83263692038236,None,None,1,,None,None,006,001,1,33,F,2021_Nov_08_1505,eye_tracking_exp,2021.2.3,85.81383722873142,
0,0,0,0,0,12,0,-12,0,0,j,abs,resp,freq_top,,,,,0,129,129,154,,,,,0.8447404661152083,447.12865714900545,None,447.12865714900545,None,j,1,1.0155923323982279,None,None,006,001,1,33,F,2021_Nov_08_1505,eye_tracking_exp,2021.2.3,85.81383722873142,
12,0,-12,0,270,0,0,0,180,180,j,present,resp,freq_top,,,,,0,130,130,699,,,,,0.885535568178405,449.31620719912826,None,449.31620719912826,None,j,1,1.7390883686857705,None,None,006,001,1,33,F,2021_Nov_08_1505,eye_tracking_exp,2021.2.3,85.81383722873142,
0,180,-12,180,180,270,180,12,180,180,j,present,resp,freq_top,,,,,0,131,131,696,,,,,0.8892487310919301,452.25799073870803,None,452.25799073870803,None,j,1,1.3732688778363809,None,None,006,001,1,33,F,2021_Nov_08_1505,eye_tracking_exp,2021.2.3,85.81383722873142,
180,-12,0,180,-12,0,0,0,180,180,j,abs,resp,freq_top,,,,,0,132,132,127,,,,,0.757312092387088,454.8112051299613,None,454.8112051299613,None,j,1,0.6440618830638414,None,None,006,001,1,33,F,2021_Nov_08_1505,eye_tracking_exp,2021.2.3,85.81383722873142,
180,90,0,0,12,0,0,-168,180,180,None,present,inhibit,freq_top,,,,,0,133,133,954,,,,,0.9355854228579318,456.65953933815035,None,456.65953933815035,None,None,1,,None,None,006,001,1,33,F,2021_Nov_08_1505,eye_tracking_exp,2021.2.3,85.81383722873142,
180,12,180,180,180,-168,180,180,180,180,None,abs,inhibit,freq_top,,,,,0,134,134,439,,,,,1.062454211131583,461.0609427488489,None,461.0609427488489,None,None,1,,None,None,006,001,1,33,F,2021_Nov_08_1505,eye_tracking_exp,2021.2.3,85.81383722873142,
0,0,180,-168,180,180,180,-168,0,0,f,abs,resp,freq_top,,,,,0,135,135,311,,,,,1.091111329828387,465.41387937984837,None,465.41387937984837,None,f,1,1.3846065793113667,None,None,006,001,1,33,F,2021_Nov_08_1505,eye_tracking_exp,2021.2.3,85.81383722873142,
270,0,168,0,168,0,180,180,180,180,f,present,resp,freq_top,,,,,0,136,136,763,,,,,0.9866757888567337,467.9557799155955,None,467.9557799155955,None,f,1,0.8747655896586366,None,None,006,001,1,33,F,2021_Nov_08_1505,eye_tracking_exp,2021.2.3,85.81383722873142,
-12,180,180,180,270,180,180,-12,0,0,j,present,resp,freq_top,,,,,0,137,137,642,,,,,0.9951298656956074,470.46212852735334,None,470.46212852735334,None,j,1,1.4404462909369613,None,None,006,001,1,33,F,2021_Nov_08_1505,eye_tracking_exp,2021.2.3,85.81383722873142,
-12,0,180,90,0,0,0,0,-12,0,j,present,resp,freq_top,,,,,0,138,138,615,,,,,0.7511358271248285,473.18132202652123,None,473.18132202652123,None,j,1,1.1052827543826425,None,None,006,001,1,33,F,2021_Nov_08_1505,eye_tracking_exp,2021.2.3,85.81383722873142,
180,180,0,0,180,180,180,-168,0,12,None,abs,inhibit,freq_top,,,,,0,139,139,448,,,,,0.8412596892017318,475.417039725271,None,475.417039725271,None,None,1,,None,None,006,001,1,33,F,2021_Nov_08_1505,eye_tracking_exp,2021.2.3,85.81383722873142,
0,270,0,0,0,168,180,180,180,-168,f,present,resp,freq_top,,,,,0,140,140,870,,,,,0.8116682961724683,479.46567584152945,None,479.46567584152945,None,f,1,0.7250195492197236,None,None,006,001,1,33,F,2021_Nov_08_1505,eye_tracking_exp,2021.2.3,85.81383722873142,
0,0,12,0,270,0,0,0,12,0,j,present,resp,freq_top,,,,,0,141,141,543,,,,,0.9470067987452291,481.432328914987,None,481.432328914987,None,j,1,0.8214547580682847,None,None,006,001,1,33,F,2021_Nov_08_1505,eye_tracking_exp,2021.2.3,85.81383722873142,
0,180,0,0,180,168,180,0,0,168,f,abs,resp,freq_top,,,,,0,142,142,254,,,,,0.9297440530950873,483.6549938136304,None,483.6549938136304,None,f,1,0.9507560500678665,None,None,006,001,1,33,F,2021_Nov_08_1505,eye_tracking_exp,2021.2.3,85.81383722873142,
180,-168,180,90,180,180,180,180,-168,180,f,present,resp,freq_top,,,,,0,143,143,845,,,,,0.7114989031730111,485.62034864013185,None,485.62034864013185,None,f,1,0.8094671784965612,None,None,006,001,1,33,F,2021_Nov_08_1505,eye_tracking_exp,2021.2.3,85.81383722873142,
180,12,0,270,180,-168,180,180,0,180,None,present,inhibit,freq_top,,,,,0,144,144,943,,,,,0.9857939758843355,487.70455841341754,None,487.70455841341754,None,None,1,,None,None,006,001,1,33,F,2021_Nov_08_1505,eye_tracking_exp,2021.2.3,85.81383722873142,
0,90,0,0,-168,180,180,168,0,0,f,present,resp,freq_top,,,,,0,145,145,862,,,,,1.0773024826061124,492.06984755785743,None,492.06984755785743,None,f,1,1.2400758634394151,None,None,006,001,1,33,F,2021_Nov_08_1505,eye_tracking_exp,2021.2.3,85.81383722873142,
0,-168,180,180,0,180,180,168,0,0,f,abs,resp,freq_top,,,,,0,146,146,383,,,,,0.9940669992273184,494.6114836750203,None,494.6114836750203,None,f,1,0.7624003684322815,495.40113687917983,None,006,001,1,33,F,2021_Nov_08_1505,eye_tracking_exp,2021.2.3,85.81383722873142,
168,0,180,0,180,180,12,180,180,180,None,abs,inhibit,freq_top,,,,,0,147,147,487,,,,,0.7101056940069781,496.69420896131487,None,496.69420896131487,None,None,1,,None,None,006,001,1,33,F,2021_Nov_08_1505,eye_tracking_exp,2021.2.3,85.81383722873142,
0,0,0,0,-168,0,0,-168,0,0,f,abs,resp,freq_top,,,,,0,148,148,288,,,,,0.8617479633300181,500.5774754001686,None,500.5774754001686,None,f,1,0.8274799400132906,None,None,006,001,1,33,F,2021_Nov_08_1505,eye_tracking_exp,2021.2.3,85.81383722873142,
-168,0,0,180,180,168,0,0,0,0,f,abs,resp,freq_top,,,,,0,149,149,370,,,,,0.9095096887679246,502.6492128264763,None,502.6492128264763,None,f,1,0.915813556577632,None,None,006,001,1,33,F,2021_Nov_08_1505,eye_tracking_exp,2021.2.3,85.81383722873142,
12,0,0,-168,0,0,180,180,180,180,None,abs,inhibit,freq_top,,,,,0,150,150,426,,,,,0.8756960932881488,505.2016243028447,None,505.2016243028447,None,None,1,,None,None,006,001,1,33,F,2021_Nov_08_1505,eye_tracking_exp,2021.2.3,85.81383722873142,
-12,180,180,270,0,12,180,180,180,0,j,present,resp,freq_top,,,,,0,151,151,710,,,,,0.701294671178799,509.214513501498,None,509.214513501498,None,j,1,1.5186547282428364,None,None,006,001,1,33,F,2021_Nov_08_1505,eye_tracking_exp,2021.2.3,85.81383722873142,
180,0,0,180,180,-168,180,0,12,180,None,abs,inhibit,freq_top,,,,,0,152,152,435,,,,,0.7995563296291228,511.6266539367425,None,511.6266539367425,None,None,1,,None,None,006,001,1,33,F,2021_Nov_08_1505,eye_tracking_exp,2021.2.3,85.81383722873142,
-12,0,0,180,-12,180,180,0,180,180,j,abs,resp,freq_top,,,,,0,153,153,135,,,,,0.8583789873500508,515.7459670883363,None,515.7459670883363,None,j,1,0.6182303605637571,None,None,006,001,1,33,F,2021_Nov_08_1505,eye_tracking_exp,2021.2.3,85.81383722873142,
0,0,0,0,168,0,0,12,0,0,None,abs,inhibit,freq_top,,,,,0,154,154,428,,,,,0.9882475958112549,517.6405573436678,None,517.6405573436678,None,None,1,,None,None,006,001,1,33,F,2021_Nov_08_1505,eye_tracking_exp,2021.2.3,85.81383722873142,
-168,0,0,180,90,180,-168,180,180,180,f,present,resp,freq_top,,,,,0,155,155,851,,,,,0.8393646625504966,521.5242297676778,None,521.5242297676778,None,f,1,0.9680962949059904,None,None,006,001,1,33,F,2021_Nov_08_1505,eye_tracking_exp,2021.2.3,85.81383722873142,
180,180,0,-168,180,180,-12,0,180,0,None,abs,inhibit,freq_top,,,,,0,156,156,491,,,,,0.9880135082010457,523.7473854706805,None,523.7473854706805,None,None,1,,None,None,006,001,1,33,F,2021_Nov_08_1505,eye_tracking_exp,2021.2.3,85.81383722873142,
90,0,12,0,0,180,180,0,168,0,None,present,inhibit,freq_top,,,,,0,157,157,963,,,,,0.8117635698839996,527.6304270329965,None,527.6304270329965,None,None,1,,None,None,006,001,1,33,F,2021_Nov_08_1505,eye_tracking_exp,2021.2.3,85.81383722873142,
90,180,168,0,0,180,180,12,180,180,None,present,inhibit,freq_top,,,,,0,158,158,976,,,,,1.088116142630201,531.7251933259067,None,531.7251933259067,None,None,1,,None,None,006,001,1,33,F,2021_Nov_08_1505,eye_tracking_exp,2021.2.3,85.81383722873142,
0,90,0,168,0,0,180,180,180,168,f,present,resp,freq_top,,,,,0,159,159,718,,,,,0.8795248816931889,535.9146244908952,None,535.9146244908952,None,f,1,0.864912978875509,None,None,006,001,1,33,F,2021_Nov_08_1505,eye_tracking_exp,2021.2.3,85.81383722873142,
-168,180,180,168,180,180,180,180,0,0,f,abs,resp,freq_top,,,,,0,160,160,414,,,,,0.7156838829086936,537.7976038725865,None,537.7976038725865,None,f,1,0.7579082709562499,None,None,006,001,1,33,F,2021_Nov_08_1505,eye_tracking_exp,2021.2.3,85.81383722873142,
0,0,-168,0,90,168,0,180,180,180,f,present,resp,freq_top,,,,,0,161,161,872,,,,,0.8500716481556839,539.7040383298299,None,539.7040383298299,None,f,1,1.5715242584992666,None,None,006,001,1,33,F,2021_Nov_08_1505,eye_tracking_exp,2021.2.3,85.81383722873142,
0,168,0,-168,180,180,180,90,0,0,f,present,resp,freq_top,,,,,0,162,162,910,,,,,1.035235010432534,542.8572109453598,None,542.8572109453598,None,f,1,1.8584105757145153,None,None,006,001,1,33,F,2021_Nov_08_1505,eye_tracking_exp,2021.2.3,85.81383722873142,
0,-12,0,90,180,180,180,180,0,-12,j,present,resp,freq_top,,,,,0,163,163,636,,,,,0.8469947111131132,546.2224068188589,None,546.2224068188589,None,j,1,1.1482275322523492,None,None,006,001,1,33,F,2021_Nov_08_1505,eye_tracking_exp,2021.2.3,85.81383722873142,
0,12,0,0,0,0,-12,0,0,0,j,abs,resp,freq_top,,,,,0,164,164,166,,,,,0.9449018796979504,548.6349695390381,None,548.6349695390381,None,j,1,1.039733809626341,None,None,006,001,1,33,F,2021_Nov_08_1505,eye_tracking_exp,2021.2.3,85.81383722873142,
180,180,0,0,12,0,0,-168,0,180,None,abs,inhibit,freq_top,,,,,0,165,165,450,,,,,0.9341348995309546,550.9291741537454,None,550.9291741537454,None,None,1,,None,None,006,001,1,33,F,2021_Nov_08_1505,eye_tracking_exp,2021.2.3,85.81383722873142,
168,0,180,0,0,180,180,0,168,0,f,abs,resp,freq_top,,,,,0,166,166,251,,,,,0.8411591374619843,555.0600848976828,None,555.0600848976828,None,f,1,0.8227668900181015,None,None,006,001,1,33,F,2021_Nov_08_1505,eye_tracking_exp,2021.2.3,85.81383722873142,
0,0,180,0,180,168,0,168,0,0,f,abs,resp,freq_top,,,,,0,167,167,239,,,,,0.9106975888983209,557.9308340142525,None,557.9308340142525,None,f,1,1.1990046542487107,None,None,006,001,1,33,F,2021_Nov_08_1505,eye_tracking_exp,2021.2.3,85.81383722873142,
180,180,0,90,0,12,180,180,-12,180,j,present,resp,freq_top,,,,,0,168,168,680,,,,,0.9605875708830891,560.4250112211885,None,560.4250112211885,None,j,1,1.0249656090381905,None,None,006,001,1,33,F,2021_Nov_08_1505,eye_tracking_exp,2021.2.3,85.81383722873142,
0,0,180,0,-168,0,0,0,180,-168,f,abs,resp,freq_top,,,,,0,169,169,325,,,,,0.8048242701127977,562.5665756797098,None,562.5665756797098,None,f,1,0.6912856539274799,None,None,006,001,1,33,F,2021_Nov_08_1505,eye_tracking_exp,2021.2.3,85.81383722873142,
0,270,0,0,0,-168,0,0,0,12,None,present,inhibit,freq_top,,,,,0,170,170,940,,,,,0.7527781902826858,564.2960842203393,None,564.2960842203393,None,None,1,,None,None,006,001,1,33,F,2021_Nov_08_1505,eye_tracking_exp,2021.2.3,85.81383722873142,
180,180,0,12,0,180,0,180,0,-168,None,abs,inhibit,freq_top,,,,,0,171,171,466,,,,,0.9260280242428741,568.23834166081,None,568.23834166081,None,None,1,,None,None,006,001,1,33,F,2021_Nov_08_1505,eye_tracking_exp,2021.2.3,85.81383722873142,
-12,0,0,180,90,180,12,0,180,0,j,present,resp,freq_top,,,,,0,172,172,711,,,,,0.9034603397814398,572.1572792534935,None,572.1572792534935,None,j,1,0.988800330520462,None,None,006,001,1,33,F,2021_Nov_08_1505,eye_tracking_exp,2021.2.3,85.81383722873142,
0,180,0,12,0,12,0,180,180,180,j,abs,resp,freq_top,,,,,0,173,173,0,,,,,1.0491529470764909,574.5228144038083,None,574.5228144038083,None,j,1,0.8302506000545691,None,None,006,001,1,33,F,2021_Nov_08_1505,eye_tracking_exp,2021.2.3,85.81383722873142,
-168,0,-168,0,270,0,0,0,180,180,f,present,resp,freq_top,,,,,0,174,174,839,,,,,0.7420932797887522,576.2291476817045,None,576.2291476817045,None,f,1,1.5879067405876413,None,None,006,001,1,33,F,2021_Nov_08_1505,eye_tracking_exp,2021.2.3,85.81383722873142,
270,0,-12,0,0,0,0,0,-12,0,j,present,resp,freq_top,,,,,0,175,175,627,,,,,0.7308006951776957,578.8068041904917,None,578.8068041904917,None,j,1,1.203591531899292,None,None,006,001,1,33,F,2021_Nov_08_1505,eye_tracking_exp,2021.2.3,85.81383722873142,
-12,0,0,90,180,180,-12,0,180,0,j,present,resp,freq_top,,,,,0,176,176,641,,,,,1.0316653300244716,581.3480168153328,None,581.3480168153328,None,j,1,0.7582252110405534,None,None,006,001,1,33,F,2021_Nov_08_1505,eye_tracking_exp,2021.2.3,85.81383722873142,
12,0,270,180,180,0,0,-168,180,0,None,present,inhibit,freq_top,,,,,0,177,177,958,,,,,0.9206169228381841,583.3131509911618,None,583.3131509911618,None,None,1,,None,None,006,001,1,33,F,2021_Nov_08_1505,eye_tracking_exp,2021.2.3,85.81383722873142,
180,180,0,12,180,0,180,0,12,180,j,abs,resp,freq_top,,,,,0,178,178,38,,,,,0.9705490140840842,587.2904472145347,None,587.2904472145347,None,f,0,0.6388169774181733,587.9497797870099,None,006,001,1,33,F,2021_Nov_08_1505,eye_tracking_exp,2021.2.3,85.81383722873142,
180,0,180,12,0,12,180,0,180,180,j,abs,resp,freq_top,,,,,0,179,179,17,,,,,0.748799449428904,589.2321571032771,None,589.2321571032771,None,j,1,0.8241665578061657,None,None,006,001,1,33,F,2021_Nov_08_1505,eye_tracking_exp,2021.2.3,85.81383722873142,
-12,180,180,0,0,-12,0,0,0,0,j,abs,resp,freq_top,,,,,0,180,180,136,,,,,0.8231003812958438,590.949994098879,None,590.949994098879,None,j,1,0.6583096982103598,None,None,006,001,1,33,F,2021_Nov_08_1505,eye_tracking_exp,2021.2.3,85.81383722873142,
180,180,0,180,180,-12,180,0,-12,180,j,abs,resp,freq_top,,,,,0,181,181,85,,,,,1.027872970297396,592.9976205345774,None,592.9976205345774,None,j,1,2.914719056818285,None,None,006,001,1,33,F,2021_Nov_08_1505,eye_tracking_exp,2021.2.3,85.81383722873142,
168,0,168,0,0,0,0,0,180,180,f,abs,resp,freq_top,,,,,0,182,182,265,,,,,0.9494546562684771,597.1513811494297,None,597.1513811494297,None,f,1,1.0492405029435758,None,None,006,001,1,33,F,2021_Nov_08_1505,eye_tracking_exp,2021.2.3,85.81383722873142,
0,0,180,168,180,0,180,168,0,0,f,abs,resp,freq_top,,,,,0,183,183,241,,,,,0.9981356443826526,599.469696151049,None,599.469696151049,None,f,1,1.7867108803657175,None,None,006,001,1,33,F,2021_Nov_08_1505,eye_tracking_exp,2021.2.3,85.81383722873142,
180,0,12,0,0,0,12,0,0,0,j,abs,resp,freq_top,,,,,0,184,184,51,,,,,0.8641394976412708,602.4582537084243,None,602.4582537084243,None,j,1,0.6221939227179973,None,None,006,001,1,33,F,2021_Nov_08_1505,eye_tracking_exp,2021.2.3,85.81383722873142,
0,0,-168,0,180,180,0,0,180,168,f,abs,resp,freq_top,,,,,0,185,185,397,,,,,0.7024547518111923,604.1414222882522,None,604.1414222882522,None,f,1,1.0350929012311099,None,None,006,001,1,33,F,2021_Nov_08_1505,eye_tracking_exp,2021.2.3,85.81383722873142,
90,180,180,180,-12,180,0,180,12,180,j,present,resp,freq_top,,,,,0,186,186,653,,,,,0.9859957864799946,606.4368234272442,None,606.4368234272442,None,j,1,1.3147224978820304,None,None,006,001,1,33,F,2021_Nov_08_1505,eye_tracking_exp,2021.2.3,85.81383722873142,
0,0,0,0,0,0,168,0,0,168,f,abs,resp,freq_top,,,,,0,187,187,232,,,,,0.8048376657513016,608.6950840177997,None,608.6950840177997,None,f,1,0.753759978011658,None,None,006,001,1,33,F,2021_Nov_08_1505,eye_tracking_exp,2021.2.3,85.81383722873142,
180,180,0,-12,0,180,0,180,-12,180,j,abs,resp,freq_top,,,,,0,188,188,73,,,,,0.7195439487853793,610.5069483831394,None,610.5069483831394,None,j,1,1.180632090272411,None,None,006,001,1,33,F,2021_Nov_08_1505,eye_tracking_exp,2021.2.3,85.81383722873142,
90,180,0,168,180,0,180,0,-168,180,f,present,resp,freq_top,,,,,0,189,189,857,,,,,1.0470092466022765,613.0013009635877,None,613.0013009635877,None,f,1,0.9114500462237629,None,None,006,001,1,33,F,2021_Nov_08_1505,eye_tracking_exp,2021.2.3,85.81383722873142,
0,168,0,270,180,180,180,-168,0,0,f,present,resp,freq_top,,,,,0,190,190,914,,,,,1.097761565606046,615.295801389042,None,615.295801389042,None,j,0,1.2558286912208132,616.5786257417531,None,006,001,1,33,F,2021_Nov_08_1505,eye_tracking_exp,2021.2.3,85.81383722873142,
0,0,180,180,0,180,168,0,-168,0,f,abs,resp,freq_top,,,,,0,191,191,385,,,,,0.8855893163518201,618.0255658965216,None,618.0255658965216,None,f,1,0.7980754462842015,None,None,006,001,1,33,F,2021_Nov_08_1505,eye_tracking_exp,2021.2.3,85.81383722873142,
180,0,180,168,180,0,180,180,168,180,f,abs,resp,freq_top,,,,,0,192,192,213,,,,,1.0946770713612695,620.2728138755774,None,620.2728138755774,None,f,1,1.4138701101583138,None,None,006,001,1,33,F,2021_Nov_08_1505,eye_tracking_exp,2021.2.3,85.81383722873142,
180,180,-168,180,0,180,0,180,0,-168,f,abs,resp,freq_top,,,,,0,193,193,334,,,,,1.026499690231563,622.9920218634325,None,622.9920218634325,None,f,1,0.6626958471460966,None,None,006,001,1,33,F,2021_Nov_08_1505,eye_tracking_exp,2021.2.3,85.81383722873142,
168,0,90,180,0,180,168,180,0,180,f,present,resp,freq_top,,,,,0,194,194,741,,,,,0.8605376544907397,624.7925989358664,None,624.7925989358664,None,f,1,2.55837637636796,None,None,006,001,1,33,F,2021_Nov_08_1505,eye_tracking_exp,2021.2.3,85.81383722873142,
90,0,180,0,180,180,12,0,180,-168,None,present,inhibit,freq_top,,,,,0,195,195,967,,,,,1.097966469976823,628.6403795553706,None,628.6403795553706,None,None,1,,None,None,006,001,1,33,F,2021_Nov_08_1505,eye_tracking_exp,2021.2.3,85.81383722873142,
90,0,-168,0,0,180,180,180,168,0,f,present,resp,freq_top,,,,,0,196,196,907,,,,,0.8365413685585952,632.7602031314273,None,632.7602031314273,None,f,1,1.118660342610383,None,None,006,001,1,33,F,2021_Nov_08_1505,eye_tracking_exp,2021.2.3,85.81383722873142,
180,180,180,-168,180,180,-168,180,180,180,f,abs,resp,freq_top,,,,,0,197,197,281,,,,,1.0213407417035774,635.1962852207216,None,635.1962852207216,None,f,1,0.6666177543156664,None,None,006,001,1,33,F,2021_Nov_08_1505,eye_tracking_exp,2021.2.3,85.81383722873142,
0,-12,0,90,0,0,0,-12,0,0,j,present,resp,freq_top,,,,,0,198,198,634,,,,,1.045284120179546,637.2069796847427,None,637.2069796847427,None,j,1,0.912090567042469,None,None,006,001,1,33,F,2021_Nov_08_1505,eye_tracking_exp,2021.2.3,85.81383722873142,
180,0,180,-12,180,180,-12,180,180,180,j,abs,resp,freq_top,,,,,0,199,199,71,,,,,0.7392507495186418,639.1718307274314,None,639.1718307274314,None,j,1,1.010097496862727,None,None,006,001,1,33,F,2021_Nov_08_1505,eye_tracking_exp,2021.2.3,85.81383722873142,
0,0,180,12,0,180,0,12,0,0,j,abs,resp,freq_top,,,,,0,200,200,31,,,,,0.7218909870569021,641.1856164137535,None,641.1856164137535,None,j,1,0.7404186115054472,None,None,006,001,1,33,F,2021_Nov_08_1505,eye_tracking_exp,2021.2.3,85.81383722873142,
0,180,12,180,0,180,180,12,180,180,j,abs,resp,freq_top,,,,,0,201,201,52,,,,,1.0635551059199257,643.2664823182131,None,643.2664823182131,None,j,1,0.6755177337581699,643.9726329782497,None,006,001,1,33,F,2021_Nov_08_1505,eye_tracking_exp,2021.2.3,85.81383722873142,
0,-168,0,0,0,0,-168,0,0,0,f,abs,resp,freq_top,,,,,0,202,202,306,,,,,0.7775100501149279,645.2785049121194,None,645.2785049121194,None,f,1,0.7436037084371492,None,None,006,001,1,33,F,2021_Nov_08_1505,eye_tracking_exp,2021.2.3,85.81383722873142,
12,180,180,180,90,0,0,12,0,180,j,present,resp,freq_top,,,,,0,203,203,538,,,,,0.8240660947349462,647.1966915077246,None,647.1966915077246,None,j,1,0.857339620073617,None,None,006,001,1,33,F,2021_Nov_08_1505,eye_tracking_exp,2021.2.3,85.81383722873142,
0,-168,0,0,270,180,180,-168,0,0,f,present,resp,freq_top,,,,,0,204,204,844,,,,,0.8172937638641116,649.1980794034534,None,649.1980794034534,None,f,1,1.0640681675322412,None,None,006,001,1,33,F,2021_Nov_08_1505,eye_tracking_exp,2021.2.3,85.81383722873142,
-12,0,0,-12,0,270,0,0,0,0,j,present,resp,freq_top,,,,,0,205,205,580,,,,,1.0636186502008305,651.5391488921123,None,651.5391488921123,None,j,1,1.2020502975428826,None,None,006,001,1,33,F,2021_Nov_08_1505,eye_tracking_exp,2021.2.3,85.81383722873142,
180,0,-168,0,0,0,0,0,168,0,f,abs,resp,freq_top,,,,,0,206,206,403,,,,,0.7355092751815641,653.7750969006593,None,653.7750969006593,None,f,1,1.3981070195550274,None,None,006,001,1,33,F,2021_Nov_08_1505,eye_tracking_exp,2021.2.3,85.81383722873142,
0,0,168,0,0,0,0,0,168,0,f,abs,resp,freq_top,,,,,0,207,207,249,,,,,1.0210391741429532,656.7752586910246,None,656.7752586910246,None,f,1,0.8623433494030905,None,None,006,001,1,33,F,2021_Nov_08_1505,eye_tracking_exp,2021.2.3,85.81383722873142,
180,180,270,0,0,0,0,12,0,12,j,present,resp,freq_top,,,,,0,208,208,532,,,,,0.9649074587150364,658.9068108613246,None,658.9068108613246,None,j,1,0.9384334195492556,None,None,006,001,1,33,F,2021_Nov_08_1505,eye_tracking_exp,2021.2.3,85.81383722873142,
0,0,0,-12,0,0,-12,0,0,0,j,abs,resp,freq_top,,,,,0,209,209,94,,,,,0.7668319621929196,661.872299104507,None,661.872299104507,None,j,1,0.6603924473456573,None,None,006,001,1,33,F,2021_Nov_08_1505,eye_tracking_exp,2021.2.3,85.81383722873142,
0,12,0,-12,180,180,180,180,270,0,j,present,resp,freq_top,,,,,0,210,210,700,,,,,0.8211335462533405,663.4713463524276,None,663.4713463524276,None,j,1,1.413686888608936,None,None,006,001,1,33,F,2021_Nov_08_1505,eye_tracking_exp,2021.2.3,85.81383722873142,
-168,180,180,270,0,-168,0,180,180,180,f,present,resp,freq_top,,,,,0,211,211,850,,,,,0.7525062924352883,666.1191528704658,None,666.1191528704658,None,f,1,0.7997721322099096,None,None,006,001,1,33,F,2021_Nov_08_1505,eye_tracking_exp,2021.2.3,85.81383722873142,
12,0,180,180,180,180,168,180,0,180,None,abs,inhibit,freq_top,,,,,0,212,212,447,,,,,0.8877795248221616,667.885084165704,None,667.885084165704,None,None,1,,None,None,006,001,1,33,F,2021_Nov_08_1505,eye_tracking_exp,2021.2.3,85.81383722873142,
0,270,180,180,180,-168,0,12,0,0,None,present,inhibit,freq_top,,,,,0,213,213,938,,,,,0.7208420436033118,671.82602041879,None,671.82602041879,None,None,1,,None,None,006,001,1,33,F,2021_Nov_08_1505,eye_tracking_exp,2021.2.3,85.81383722873142,
180,0,180,180,168,180,-168,180,180,180,f,abs,resp,freq_top,,,,,0,214,214,373,,,,,0.7580008949794228,675.840741531134,None,675.840741531134,None,f,1,1.0129306393791921,None,None,006,001,1,33,F,2021_Nov_08_1505,eye_tracking_exp,2021.2.3,85.81383722873142,
0,0,0,0,-168,0,0,0,0,168,f,abs,resp,freq_top,,,,,0,215,215,360,,,,,0.9599481970840924,678.0761872651055,None,678.0761872651055,None,f,1,0.6323882250981114,None,None,006,001,1,33,F,2021_Nov_08_1505,eye_tracking_exp,2021.2.3,85.81383722873142,
0,180,-168,0,180,168,0,180,0,180,f,abs,resp,freq_top,,,,,0,216,216,400,,,,,0.7138849025649848,679.7102231892095,None,679.7102231892095,None,f,1,1.1895688951335615,None,None,006,001,1,33,F,2021_Nov_08_1505,eye_tracking_exp,2021.2.3,85.81383722873142,
90,0,180,180,180,168,0,168,0,0,f,present,resp,freq_top,,,,,0,217,217,743,,,,,0.9084310309999382,682.1107790115639,None,682.1107790115639,None,f,1,0.8224719848149107,None,None,006,001,1,33,F,2021_Nov_08_1505,eye_tracking_exp,2021.2.3,85.81383722873142,
12,0,12,0,270,180,180,0,180,180,j,present,resp,freq_top,,,,,0,218,218,559,,,,,0.8185313171954046,684.0758836063178,None,684.0758836063178,None,j,1,0.9837588702284847,None,None,006,001,1,33,F,2021_Nov_08_1505,eye_tracking_exp,2021.2.3,85.81383722873142,
0,168,180,90,0,180,0,168,0,0,f,present,resp,freq_top,,,,,0,219,219,747,,,,,1.0958778485595648,686.4662750092139,None,686.4662750092139,None,j,0,0.785373695056478,687.277386868238,None,006,001,1,33,F,2021_Nov_08_1505,eye_tracking_exp,2021.2.3,85.81383722873142,
0,0,0,0,168,0,0,168,0,0,f,abs,resp,freq_top,,,,,0,220,220,218,,,,,0.9146089391785405,688.7478738602622,None,688.7478738602622,None,f,1,0.7278605397768843,None,None,006,001,1,33,F,2021_Nov_08_1505,eye_tracking_exp,2021.2.3,85.81383722873142,
0,0,-12,0,12,180,180,180,180,0,j,abs,resp,freq_top,,,,,0,221,221,189,,,,,1.0443193257348198,690.8191883979416,None,690.8191883979416,None,j,1,0.6245827454149548,None,None,006,001,1,33,F,2021_Nov_08_1505,eye_tracking_exp,2021.2.3,85.81383722873142,
0,0,-12,0,-12,0,0,0,0,0,j,abs,resp,freq_top,,,,,0,222,222,119,,,,,0.8750471553255734,692.6547496188432,None,692.6547496188432,None,j,1,0.629257460750523,None,None,006,001,1,33,F,2021_Nov_08_1505,eye_tracking_exp,2021.2.3,85.81383722873142,
-12,0,180,180,180,180,180,12,180,180,j,abs,resp,freq_top,,,,,0,223,223,174,,,,,0.8402550023736445,694.4548041929047,None,694.4548041929047,None,j,1,0.844965373598825,None,None,006,001,1,33,F,2021_Nov_08_1505,eye_tracking_exp,2021.2.3,85.81383722873142,
180,180,90,180,180,168,180,0,168,180,f,present,resp,freq_top,,,,,0,224,224,729,,,,,1.0983987648009217,696.7734168163588,None,696.7734168163588,None,f,1,0.89444062646362,None,None,006,001,1,33,F,2021_Nov_08_1505,eye_tracking_exp,2021.2.3,85.81383722873142,
0,0,0,0,-12,0,0,0,180,-12,j,abs,resp,freq_top,,,,,0,225,225,115,,,,,0.7718225430410999,698.7378881346376,None,698.7378881346376,None,j,1,0.8490062087621482,None,None,006,001,1,33,F,2021_Nov_08_1505,eye_tracking_exp,2021.2.3,85.81383722873142,
180,180,180,-12,180,12,0,180,0,180,j,abs,resp,freq_top,,,,,0,226,226,157,,,,,0.9766652388663373,700.6445903307904,None,700.6445903307904,None,j,1,0.8942715917510213,None,None,006,001,1,33,F,2021_Nov_08_1505,eye_tracking_exp,2021.2.3,85.81383722873142,
180,12,180,270,180,180,0,0,0,12,j,present,resp,freq_top,,,,,0,227,227,552,,,,,0.7211988029088822,702.3033825958846,None,702.3033825958846,None,j,1,1.0595199263843824,None,None,006,001,1,33,F,2021_Nov_08_1505,eye_tracking_exp,2021.2.3,85.81383722873142,
90,0,180,0,0,180,168,0,180,168,f,present,resp,freq_top,,,,,0,228,228,757,,,,,1.0811366625610184,704.7279120681414,None,704.7279120681414,None,f,1,0.9229839487015852,None,None,006,001,1,33,F,2021_Nov_08_1505,eye_tracking_exp,2021.2.3,85.81383722873142,
12,0,270,0,180,180,180,180,12,0,j,present,resp,freq_top,,,,,0,229,229,573,,,,,1.0248413624794388,706.9985076649682,None,706.9985076649682,None,j,1,0.8604097130337323,None,None,006,001,1,33,F,2021_Nov_08_1505,eye_tracking_exp,2021.2.3,85.81383722873142,
180,180,0,12,180,0,180,0,0,12,j,abs,resp,freq_top,,,,,0,230,230,46,,,,,0.7113276882008444,708.8460377508854,None,708.8460377508854,None,j,1,0.6129830401405343,None,None,006,001,1,33,F,2021_Nov_08_1505,eye_tracking_exp,2021.2.3,85.81383722873142,
-12,0,0,12,0,270,0,0,0,0,j,present,resp,freq_top,,,,,0,231,231,650,,,,,0.7035126587639748,710.4483965699219,None,710.4483965699219,None,j,1,0.7386129585574963,None,None,006,001,1,33,F,2021_Nov_08_1505,eye_tracking_exp,2021.2.3,85.81383722873142,
0,180,180,180,180,12,0,12,0,0,j,abs,resp,freq_top,,,,,0,232,232,14,,,,,0.8926199732396063,712.4113296723226,None,712.4113296723226,None,j,1,0.7107602638607204,None,None,006,001,1,33,F,2021_Nov_08_1505,eye_tracking_exp,2021.2.3,85.81383722873142,
180,180,0,180,0,180,-12,180,-12,180,j,abs,resp,freq_top,,,,,0,233,233,91,,,,,0.9137876997768105,714.7541254279822,None,714.7541254279822,None,j,1,0.959980817635369,None,None,006,001,1,33,F,2021_Nov_08_1505,eye_tracking_exp,2021.2.3,85.81383722873142,
-168,0,0,180,168,180,180,0,180,0,f,abs,resp,freq_top,,,,,0,234,234,415,,,,,1.0981045515469656,717.1417042140056,None,717.1417042140056,None,f,1,0.8443653003705549,None,None,006,001,1,33,F,2021_Nov_08_1505,eye_tracking_exp,2021.2.3,85.81383722873142,
0,0,180,12,0,0,180,-168,0,0,None,abs,inhibit,freq_top,,,,,0,235,235,451,,,,,1.0250030552021587,719.2728123663364,None,719.2728123663364,None,None,1,,None,None,006,001,1,33,F,2021_Nov_08_1505,eye_tracking_exp,2021.2.3,85.81383722873142,
0,168,0,0,0,0,0,168,0,0,f,abs,resp,freq_top,,,,,0,236,236,270,,,,,0.8529233934181015,723.1545964311335,None,723.1545964311335,None,f,1,0.8485268746117072,None,None,006,001,1,33,F,2021_Nov_08_1505,eye_tracking_exp,2021.2.3,85.81383722873142,
90,0,0,0,180,-168,0,-168,0,0,f,present,resp,freq_top,,,,,0,237,237,813,,,,,0.7267481909136876,725.3552985892529,None,725.3552985892529,None,f,1,1.0789136411258369,None,None,006,001,1,33,F,2021_Nov_08_1505,eye_tracking_exp,2021.2.3,85.81383722873142,
180,180,-12,0,90,0,0,-12,180,180,j,present,resp,freq_top,,,,,0,238,238,606,,,,,1.0588826167077097,727.7690877166388,None,727.7690877166388,None,j,1,0.7771580043481663,None,None,006,001,1,33,F,2021_Nov_08_1505,eye_tracking_exp,2021.2.3,85.81383722873142,
0,12,0,0,0,-12,0,180,0,0,j,abs,resp,freq_top,,,,,0,239,239,198,,,,,0.9084598582786649,729.791325742266,None,729.791325742266,None,j,1,1.5219804862063029,None,None,006,001,1,33,F,2021_Nov_08_1505,eye_tracking_exp,2021.2.3,85.81383722873142,
270,180,180,-168,180,180,180,180,12,180,None,present,inhibit,freq_top,,,,,0,240,240,927,,,,,0.9213558491505648,732.2870595777931,None,732.2870595777931,None,None,1,,None,None,006,001,1,33,F,2021_Nov_08_1505,eye_tracking_exp,2021.2.3,85.81383722873142,
0,180,-12,180,90,180,180,-12,180,0,j,present,resp,freq_top,,,,,0,241,241,626,,,,,1.0247075261678475,736.5966798564041,None,736.5966798564041,None,j,1,1.036743102609762,None,None,006,001,1,33,F,2021_Nov_08_1505,eye_tracking_exp,2021.2.3,85.81383722873142,
-168,0,0,180,0,180,-168,0,180,180,f,abs,resp,freq_top,,,,,0,242,242,307,,,,,0.8900807191870717,738.830758522141,None,738.830758522141,None,f,1,0.7557068956739386,None,None,006,001,1,33,F,2021_Nov_08_1505,eye_tracking_exp,2021.2.3,85.81383722873142,
0,-12,0,180,180,180,0,-12,0,0,j,abs,resp,freq_top,,,,,0,243,243,130,,,,,0.9767366346730778,740.8309930578034,None,740.8309930578034,None,j,1,0.834429681464826,None,None,006,001,1,33,F,2021_Nov_08_1505,eye_tracking_exp,2021.2.3,85.81383722873142,
180,0,-12,0,0,0,12,0,0,0,j,abs,resp,freq_top,,,,,0,244,244,191,,,,,0.7033435593873044,742.6784603593987,None,742.6784603593987,None,j,1,0.8743303252776968,None,None,006,001,1,33,F,2021_Nov_08_1505,eye_tracking_exp,2021.2.3,85.81383722873142,
180,90,0,0,-12,0,0,-12,180,180,j,present,resp,freq_top,,,,,0,245,245,604,,,,,1.0861641232869645,744.9140168714766,None,744.9140168714766,None,j,1,0.9744833922450198,None,None,006,001,1,33,F,2021_Nov_08_1505,eye_tracking_exp,2021.2.3,85.81383722873142,
0,270,0,-12,0,-12,0,0,0,0,j,present,resp,freq_top,,,,,0,246,246,574,,,,,0.7705981941557334,746.927026507361,None,746.927026507361,None,j,1,0.9135575468681054,None,None,006,001,1,33,F,2021_Nov_08_1505,eye_tracking_exp,2021.2.3,85.81383722873142,
180,-168,0,180,0,180,0,180,-168,180,f,abs,resp,freq_top,,,,,0,247,247,320,,,,,1.0637023010684588,749.1863683163756,None,749.1863683163756,None,f,1,0.8302279614763393,None,None,006,001,1,33,F,2021_Nov_08_1505,eye_tracking_exp,2021.2.3,85.81383722873142,
0,0,0,0,0,-12,0,0,0,-12,j,abs,resp,freq_top,,,,,0,248,248,86,,,,,0.9464843652190765,751.280328977773,None,751.280328977773,None,j,1,0.7362657908415713,None,None,006,001,1,33,F,2021_Nov_08_1505,eye_tracking_exp,2021.2.3,85.81383722873142,
90,0,12,180,180,-168,0,0,0,0,None,present,inhibit,freq_top,,,,,0,249,249,942,,,,,0.7836662397996589,753.1051142357719,None,753.1051142357719,None,None,1,,None,None,006,001,1,33,F,2021_Nov_08_1505,eye_tracking_exp,2021.2.3,85.81383722873142,
168,0,0,0,0,0,0,0,168,180,f,abs,resp,freq_top,,,,,0,250,250,279,,,,,1.01442549357295,757.42372202966,None,757.42372202966,None,f,1,1.0735772756343067,None,None,006,001,1,33,F,2021_Nov_08_1505,eye_tracking_exp,2021.2.3,85.81383722873142,
-12,0,0,180,12,180,180,180,180,180,j,abs,resp,freq_top,,,,,0,251,251,205,,,,,0.9607072295013275,760.2852940705925,None,760.2852940705925,None,j,1,0.8514282347096014,None,None,006,001,1,33,F,2021_Nov_08_1505,eye_tracking_exp,2021.2.3,85.81383722873142,
0,180,180,180,12,0,180,12,0,0,j,abs,resp,freq_top,,,,,0,252,252,8,,,,,0.8191158825305964,762.2366727448716,None,762.2366727448716,None,j,1,0.5951046008485719,None,None,006,001,1,33,F,2021_Nov_08_1505,eye_tracking_exp,2021.2.3,85.81383722873142,
0,0,-168,180,180,-168,0,180,180,180,f,abs,resp,freq_top,,,,,0,253,253,330,,,,,1.0604912137564981,764.2608782138086,None,764.2608782138086,None,f,1,0.7468878114159452,None,None,006,001,1,33,F,2021_Nov_08_1505,eye_tracking_exp,2021.2.3,85.81383722873142,
0,0,180,180,168,0,0,270,-168,0,f,present,resp,freq_top,,,,,0,254,254,891,,,,,1.09404414181951,766.2728552287117,None,766.2728552287117,None,f,1,1.2949879970838083,None,None,006,001,1,33,F,2021_Nov_08_1505,eye_tracking_exp,2021.2.3,85.81383722873142,
270,0,0,12,180,0,180,-168,0,0,None,present,inhibit,freq_top,,,,,0,255,255,955,,,,,0.9138482810682458,768.8027084190471,None,768.8027084190471,None,None,1,,None,None,006,001,1,33,F,2021_Nov_08_1505,eye_tracking_exp,2021.2.3,85.81383722873142,
-168,0,90,180,180,0,-168,180,180,180,f,present,resp,freq_top,,,,,0,256,256,811,,,,,0.9567495194532507,772.7570412767673,None,772.7570412767673,None,f,1,2.314841425875784,None,None,006,001,1,33,F,2021_Nov_08_1505,eye_tracking_exp,2021.2.3,85.81383722873142,
0,0,180,180,180,180,12,0,168,0,None,abs,inhibit,freq_top,,,,,0,257,257,455,,,,,0.8701315490223476,776.2279218781914,None,776.2279218781914,None,None,1,,None,None,006,001,1,33,F,2021_Nov_08_1505,eye_tracking_exp,2021.2.3,85.81383722873142,
0,12,0,90,0,0,180,180,180,-12,j,present,resp,freq_top,,,,,0,258,258,706,,,,,0.847957514851509,780.3490560769642,None,780.3490560769642,None,j,1,1.2980140202780603,None,None,006,001,1,33,F,2021_Nov_08_1505,eye_tracking_exp,2021.2.3,85.81383722873142,
180,-12,180,-168,0,180,0,180,0,180,None,abs,inhibit,freq_top,,,,,0,259,259,495,,,,,0.9441829876470882,782.8894183968332,None,782.8894183968332,None,None,1,,None,None,006,001,1,33,F,2021_Nov_08_1505,eye_tracking_exp,2021.2.3,85.81383722873142,
0,0,180,180,12,0,0,0,168,0,None,abs,inhibit,freq_top,,,,,0,260,260,457,,,,,0.7957462066967594,786.9252483225573,None,786.9252483225573,None,None,1,,None,None,006,001,1,33,F,2021_Nov_08_1505,eye_tracking_exp,2021.2.3,85.81383722873142,
270,180,168,180,-168,180,180,180,0,180,f,present,resp,freq_top,,,,,0,261,261,865,,,,,0.9382351379978078,790.9735358047219,None,790.9735358047219,None,f,1,1.8733553572055825,None,None,006,001,1,33,F,2021_Nov_08_1505,eye_tracking_exp,2021.2.3,85.81383722873142,
0,12,0,0,12,0,180,180,180,180,j,abs,resp,freq_top,,,,,0,262,262,12,,,,,1.0283892661643694,794.3982847202569,None,794.3982847202569,None,j,1,0.5599357215905911,None,None,006,001,1,33,F,2021_Nov_08_1505,eye_tracking_exp,2021.2.3,85.81383722873142,
0,180,0,180,168,180,0,180,-12,180,None,abs,inhibit,freq_top,,,,,0,263,263,499,,,,,0.8320948587554056,796.0920442303468,None,796.0920442303468,None,f,0,0.8662522771228396,796.9748539736283,None,006,001,1,33,F,2021_Nov_08_1505,eye_tracking_exp,2021.2.3,85.81383722873142,
180,0,180,0,-168,180,-168,180,180,180,f,abs,resp,freq_top,,,,,0,264,264,287,,,,,1.04170218645668,798.5531778676814,None,798.5531778676814,None,f,1,0.9810494852717966,None,None,006,001,1,33,F,2021_Nov_08_1505,eye_tracking_exp,2021.2.3,85.81383722873142,
270,0,168,180,180,180,180,0,0,168,f,present,resp,freq_top,,,,,0,265,265,761,,,,,0.9895179183981653,800.8341905304951,None,800.8341905304951,None,f,1,1.9487330667761853,None,None,006,001,1,33,F,2021_Nov_08_1505,eye_tracking_exp,2021.2.3,85.81383722873142,
270,180,180,168,0,180,0,180,168,180,f,present,resp,freq_top,,,,,0,266,266,717,,,,,1.0124494744980324,804.1289273026996,None,804.1289273026996,None,f,1,1.0534229046825203,None,None,006,001,1,33,F,2021_Nov_08_1505,eye_tracking_exp,2021.2.3,85.81383722873142,
12,180,180,180,180,0,0,-168,180,180,None,abs,inhibit,freq_top,,,,,0,267,267,454,,,,,1.0735287980612496,806.5882000489582,None,806.5882000489582,None,f,0,0.9132176663588325,807.5205396795391,None,006,001,1,33,F,2021_Nov_08_1505,eye_tracking_exp,2021.2.3,85.81383722873142,
0,270,180,180,168,0,0,0,0,168,f,present,resp,freq_top,,,,,0,268,268,724,,,,,1.0542929165213069,809.1195259542219,None,809.1195259542219,None,f,1,0.6699706785730086,None,None,006,001,1,33,F,2021_Nov_08_1505,eye_tracking_exp,2021.2.3,85.81383722873142,
180,180,90,180,180,180,-168,180,-168,0,f,present,resp,freq_top,,,,,0,269,269,805,,,,,0.8520346453382515,810.9198835833777,None,810.9198835833777,None,f,1,0.7575819735902769,None,None,006,001,1,33,F,2021_Nov_08_1505,eye_tracking_exp,2021.2.3,85.81383722873142,
90,180,168,180,168,0,0,180,180,180,f,present,resp,freq_top,,,,,0,270,270,725,,,,,1.035527241248938,813.2496588366375,None,813.2496588366375,None,f,1,0.7970253181374574,None,None,006,001,1,33,F,2021_Nov_08_1505,eye_tracking_exp,2021.2.3,85.81383722873142,
180,270,180,0,0,180,168,0,12,180,None,present,inhibit,freq_top,,,,,0,271,271,945,,,,,0.7894890698981927,815.14305136029,None,815.14305136029,None,None,1,,None,None,006,001,1,33,F,2021_Nov_08_1505,eye_tracking_exp,2021.2.3,85.81383722873142,
168,0,12,180,180,0,180,0,180,180,None,abs,inhibit,freq_top,,,,,0,272,272,483,,,,,0.7860208686726617,819.2613518128528,None,819.2613518128528,None,None,1,,None,None,006,001,1,33,F,2021_Nov_08_1505,eye_tracking_exp,2021.2.3,85.81383722873142,
180,270,180,168,180,180,0,0,180,180,f,present,resp,freq_top,,,,,0,273,273,719,,,,,0.8606630591146968,823.1102178766887,None,823.1102178766887,None,None,0,,826.0994521766079,None,006,001,1,33,F,2021_Nov_08_1505,eye_tracking_exp,2021.2.3,85.81383722873142,
90,0,0,180,180,180,-168,0,0,168,f,present,resp,freq_top,,,,,0,274,274,876,,,,,1.0206229066248769,827.6407475077176,None,827.6407475077176,None,f,1,1.460309378857346,None,None,006,001,1,33,F,2021_Nov_08_1505,eye_tracking_exp,2021.2.3,85.81383722873142,
180,0,-12,180,180,180,180,0,12,0,j,abs,resp,freq_top,,,,,0,275,275,193,,,,,0.9011075444557282,830.323217913814,None,830.323217913814,None,j,1,1.1450587350918795,None,None,006,001,1,33,F,2021_Nov_08_1505,eye_tracking_exp,2021.2.3,85.81383722873142,
-12,180,180,-12,0,180,180,180,0,0,j,abs,resp,freq_top,,,,,0,276,276,134,,,,,0.9967311687919098,832.7591533051273,None,832.7591533051273,None,j,1,1.0619443671093904,None,None,006,001,1,33,F,2021_Nov_08_1505,eye_tracking_exp,2021.2.3,85.81383722873142,
0,-168,0,0,270,-168,180,0,0,0,f,present,resp,freq_top,,,,,0,277,277,842,,,,,0.9787309895597038,835.2071197420773,None,835.2071197420773,None,f,1,0.8217071027429483,None,None,006,001,1,33,F,2021_Nov_08_1505,eye_tracking_exp,2021.2.3,85.81383722873142,
0,-168,0,0,-168,0,0,270,0,0,f,present,resp,freq_top,,,,,0,278,278,796,,,,,0.8135283370351154,836.9497797870099,None,836.9497797870099,None,f,1,1.2870137845347926,None,None,006,001,1,33,F,2021_Nov_08_1505,eye_tracking_exp,2021.2.3,85.81383722873142,
270,0,-168,0,-168,0,180,180,180,0,f,present,resp,freq_top,,,,,0,279,279,833,,,,,0.7900411498224694,839.6439531302967,None,839.6439531302967,None,f,1,0.6891953586055024,None,None,006,001,1,33,F,2021_Nov_08_1505,eye_tracking_exp,2021.2.3,85.81383722873142,
180,0,12,180,180,0,180,0,0,12,j,abs,resp,freq_top,,,,,0,280,280,54,,,,,0.875536670038479,842.009122441199,None,842.009122441199,None,j,1,0.658839139079646,None,None,006,001,1,33,F,2021_Nov_08_1505,eye_tracking_exp,2021.2.3,85.81383722873142,
0,0,0,168,0,0,-168,0,0,0,f,abs,resp,freq_top,,,,,0,281,281,374,,,,,0.7823593618011914,843.7154910352729,None,843.7154910352729,None,f,1,0.9524153068741725,None,None,006,001,1,33,F,2021_Nov_08_1505,eye_tracking_exp,2021.2.3,85.81383722873142,
0,12,0,0,0,12,0,180,0,0,j,abs,resp,freq_top,,,,,0,282,282,58,,,,,0.9839037144230991,845.9408553579015,None,845.9408553579015,None,j,1,0.6791151546531182,None,None,006,001,1,33,F,2021_Nov_08_1505,eye_tracking_exp,2021.2.3,85.81383722873142,
168,180,180,0,0,168,0,0,0,0,f,abs,resp,freq_top,,,,,0,283,283,276,,,,,0.8715362332903257,848.1399631564709,None,848.1399631564709,None,f,1,0.6879918918239127,None,None,006,001,1,33,F,2021_Nov_08_1505,eye_tracking_exp,2021.2.3,85.81383722873142,
90,180,180,-168,180,168,0,180,0,180,f,present,resp,freq_top,,,,,0,284,284,871,,,,,0.8660499341572456,850.3886527601389,None,850.3886527601389,None,f,1,0.743575334752677,None,None,006,001,1,33,F,2021_Nov_08_1505,eye_tracking_exp,2021.2.3,85.81383722873142,
90,180,0,0,0,-168,180,0,-168,180,f,present,resp,freq_top,,,,,0,285,285,820,,,,,0.7566055067495071,852.1765054427669,None,852.1765054427669,None,f,1,0.7146432326771901,None,None,006,001,1,33,F,2021_Nov_08_1505,eye_tracking_exp,2021.2.3,85.81383722873142,
180,168,0,0,90,180,168,0,180,180,f,present,resp,freq_top,,,,,0,286,286,773,,,,,0.7063694174823141,853.9414554311297,None,853.9414554311297,None,f,1,1.3987626327616454,None,None,006,001,1,33,F,2021_Nov_08_1505,eye_tracking_exp,2021.2.3,85.81383722873142,
0,270,180,180,180,-168,0,-168,0,0,f,present,resp,freq_top,,,,,0,287,287,798,,,,,0.9997732775641381,856.6241845207078,None,856.6241845207078,None,f,1,0.7469107518409146,None,None,006,001,1,33,F,2021_Nov_08_1505,eye_tracking_exp,2021.2.3,85.81383722873142,
0,168,0,180,0,180,180,168,0,0,f,abs,resp,freq_top,,,,,0,288,288,243,,,,,0.8422367200577249,858.5668527758971,None,858.5668527758971,None,f,1,0.7242797205108218,None,None,006,001,1,33,F,2021_Nov_08_1505,eye_tracking_exp,2021.2.3,85.81383722873142,
180,180,0,0,0,-168,180,180,-168,180,f,abs,resp,freq_top,,,,,0,289,289,316,,,,,0.9362021055087668,860.5421076032726,None,860.5421076032726,None,f,1,0.5737313688841823,861.1322367608846,None,006,001,1,33,F,2021_Nov_08_1505,eye_tracking_exp,2021.2.3,85.81383722873142,
168,0,0,180,168,180,0,180,0,180,f,abs,resp,freq_top,,,,,0,290,290,275,,,,,0.9651723388940516,862.6256690076953,None,862.6256690076953,None,f,1,0.8732708398492832,None,None,006,001,1,33,F,2021_Nov_08_1505,eye_tracking_exp,2021.2.3,85.81383722873142,
0,0,0,0,180,12,0,12,0,0,j,abs,resp,freq_top,,,,,0,291,291,29,,,,,0.921933367770736,864.743183750692,None,864.743183750692,None,j,1,0.7720127084503474,None,None,006,001,1,33,F,2021_Nov_08_1505,eye_tracking_exp,2021.2.3,85.81383722873142,
0,0,-12,180,180,180,0,0,180,-12,j,abs,resp,freq_top,,,,,0,292,292,117,,,,,0.7349266336214018,866.7086526756248,None,866.7086526756248,None,j,1,0.9505915430672758,None,None,006,001,1,33,F,2021_Nov_08_1505,eye_tracking_exp,2021.2.3,85.81383722873142,
180,180,0,0,180,180,180,-12,0,12,j,abs,resp,freq_top,,,,,0,293,293,182,,,,,0.7941296500144709,871.0734691265643,None,871.0734691265643,None,j,1,0.9208474706792913,None,None,006,001,1,33,F,2021_Nov_08_1505,eye_tracking_exp,2021.2.3,85.81383722873142,
12,0,0,180,12,180,0,180,180,180,j,abs,resp,freq_top,,,,,0,294,294,65,,,,,0.9137776707989989,873.1912612675987,None,873.1912612675987,None,j,1,0.5950671717364457,None,None,006,001,1,33,F,2021_Nov_08_1505,eye_tracking_exp,2021.2.3,85.81383722873142,
0,180,0,0,180,180,180,12,0,12,j,abs,resp,freq_top,,,,,0,295,295,42,,,,,0.9266181642511913,874.7800930837948,None,874.7800930837948,None,j,1,0.798358579428168,None,None,006,001,1,33,F,2021_Nov_08_1505,eye_tracking_exp,2021.2.3,85.81383722873142,
0,270,180,180,180,168,0,0,0,168,f,present,resp,freq_top,,,,,0,296,296,730,,,,,0.9844393719017484,876.8507658932613,None,876.8507658932613,None,f,1,1.1925556781279738,None,None,006,001,1,33,F,2021_Nov_08_1505,eye_tracking_exp,2021.2.3,85.81383722873142,
90,180,0,12,180,0,-12,0,180,0,j,present,resp,freq_top,,,,,0,297,297,645,,,,,0.8093260229894762,879.181227246343,None,879.181227246343,None,j,1,1.3092575452683377,None,None,006,001,1,33,F,2021_Nov_08_1505,eye_tracking_exp,2021.2.3,85.81383722873142,
-12,0,0,0,0,-12,0,0,0,0,j,abs,resp,freq_top,,,,,0,298,298,90,,,,,1.0114034708025392,881.8406232068373,None,881.8406232068373,None,j,1,0.6498815067243413,None,None,006,001,1,33,F,2021_Nov_08_1505,eye_tracking_exp,2021.2.3,85.81383722873142,
-12,0,90,0,0,-12,0,0,0,0,j,present,resp,freq_top,,,,,0,299,299,594,,,,,1.0190054083123832,883.8410122885216,None,883.8410122885216,None,j,1,0.9694534021691652,None,None,006,001,1,33,F,2021_Nov_08_1505,eye_tracking_exp,2021.2.3,85.81383722873142,
180,180,0,0,0,0,0,-168,0,-168,f,abs,resp,freq_top,,,,,0,300,300,308,,,,,0.730373865699986,885.818006362344,None,885.818006362344,None,f,1,0.927530680612108,None,None,006,001,1,33,F,2021_Nov_08_1505,eye_tracking_exp,2021.2.3,85.81383722873142,
180,180,-168,0,180,0,-168,180,0,180,f,abs,resp,freq_top,,,,,0,301,301,305,,,,,0.9233042200061023,888.0083065468643,None,888.0083065468643,None,f,1,0.7693241509841755,None,None,006,001,1,33,F,2021_Nov_08_1505,eye_tracking_exp,2021.2.3,85.81383722873142,
0,270,0,0,-12,180,180,180,0,-12,j,present,resp,freq_top,,,,,0,302,302,584,,,,,0.7828155138353651,889.8423229112377,None,889.8423229112377,None,j,1,1.4793239728896879,None,None,006,001,1,33,F,2021_Nov_08_1505,eye_tracking_exp,2021.2.3,85.81383722873142,
0,0,180,180,168,0,0,0,-168,0,f,abs,resp,freq_top,,,,,0,303,303,387,,,,,0.9845572442321096,892.5954582787599,None,892.5954582787599,None,f,1,0.8861467572023685,None,None,006,001,1,33,F,2021_Nov_08_1505,eye_tracking_exp,2021.2.3,85.81383722873142,
90,180,-12,180,-12,0,180,0,180,180,j,present,resp,freq_top,,,,,0,304,304,585,,,,,1.0751468474155463,894.8563600366942,None,894.8563600366942,None,j,1,0.6892967794301512,None,None,006,001,1,33,F,2021_Nov_08_1505,eye_tracking_exp,2021.2.3,85.81383722873142,
0,270,0,-168,0,-12,0,0,0,0,None,present,inhibit,freq_top,,,,,0,305,305,994,,,,,0.9906363470490196,898.6319836615876,None,898.6319836615876,None,None,1,,None,None,006,001,1,33,F,2021_Nov_08_1505,eye_tracking_exp,2021.2.3,85.81383722873142,
-12,0,90,180,180,180,0,-12,180,180,j,present,resp,freq_top,,,,,0,306,306,608,,,,,0.7708347164730525,902.6686647978277,None,902.6686647978277,None,j,1,1.3090848883839499,None,None,006,001,1,33,F,2021_Nov_08_1505,eye_tracking_exp,2021.2.3,85.81383722873142,
0,180,180,0,0,0,-168,0,0,-168,f,abs,resp,freq_top,,,,,0,307,307,302,,,,,1.0494833379026665,905.5748610972332,None,905.5748610972332,None,f,1,0.6899596369839855,None,None,006,001,1,33,F,2021_Nov_08_1505,eye_tracking_exp,2021.2.3,85.81383722873142,
0,90,0,168,0,168,0,0,0,0,f,present,resp,freq_top,,,,,0,308,308,714,,,,,0.7750963582498278,907.3636075509021,None,907.3636075509021,None,f,1,1.9892832868426922,None,None,006,001,1,33,F,2021_Nov_08_1505,eye_tracking_exp,2021.2.3,85.81383722873142,
-12,180,180,0,180,0,180,12,0,0,j,abs,resp,freq_top,,,,,0,309,309,208,,,,,0.9888426839344715,910.7644039458755,None,910.7644039458755,None,j,1,0.6847032611294708,None,None,006,001,1,33,F,2021_Nov_08_1505,eye_tracking_exp,2021.2.3,85.81383722873142,
0,180,168,180,90,180,180,168,180,180,f,present,resp,freq_top,,,,,0,310,310,766,,,,,0.7914473949507059,912.5056437973763,None,912.5056437973763,None,f,1,1.040863625566999,None,None,006,001,1,33,F,2021_Nov_08_1505,eye_tracking_exp,2021.2.3,85.81383722873142,
0,-168,180,180,180,180,180,168,0,270,f,present,resp,freq_top,,,,,0,311,311,887,,,,,0.9548728059225473,914.8475137861387,None,914.8475137861387,None,f,1,1.033455981152656,None,None,006,001,1,33,F,2021_Nov_08_1505,eye_tracking_exp,2021.2.3,85.81383722873142,
180,12,180,270,180,0,180,0,0,-168,None,present,inhibit,freq_top,,,,,0,312,312,972,,,,,0.7441513063594033,916.7300382833455,None,916.7300382833455,None,None,1,,None,None,006,001,1,33,F,2021_Nov_08_1505,eye_tracking_exp,2021.2.3,85.81383722873142,
180,168,180,180,-168,0,0,0,180,180,f,abs,resp,freq_top,,,,,0,313,313,407,,,,,1.0975256192126874,920.8488156552703,None,920.8488156552703,None,f,1,0.8709402737549681,None,None,006,001,1,33,F,2021_Nov_08_1505,eye_tracking_exp,2021.2.3,85.81383722873142,
0,0,0,270,0,0,12,0,0,12,j,present,resp,freq_top,,,,,0,314,314,526,,,,,0.7748999187333687,923.0853899977919,None,923.0853899977919,None,j,1,0.6844234483105538,None,None,006,001,1,33,F,2021_Nov_08_1505,eye_tracking_exp,2021.2.3,85.81383722873142,
180,90,0,-168,180,0,0,180,0,168,f,present,resp,freq_top,,,,,0,315,315,900,,,,,0.9487631106062349,924.8391052147526,None,924.8391052147526,None,f,1,1.024987643922941,None,None,006,001,1,33,F,2021_Nov_08_1505,eye_tracking_exp,2021.2.3,85.81383722873142,
90,180,168,180,180,12,0,180,0,180,None,present,inhibit,freq_top,,,,,0,316,316,974,,,,,0.7250320831982477,927.0734950854676,None,927.0734950854676,None,None,1,,None,None,006,001,1,33,F,2021_Nov_08_1505,eye_tracking_exp,2021.2.3,85.81383722873142,
0,168,0,0,0,180,180,180,180,-168,f,abs,resp,freq_top,,,,,0,317,317,412,,,,,0.9837639218907439,931.4278205177361,None,931.4278205177361,None,f,1,0.9633829430676997,None,None,006,001,1,33,F,2021_Nov_08_1505,eye_tracking_exp,2021.2.3,85.81383722873142,
0,270,180,180,180,12,0,0,0,12,j,present,resp,freq_top,,,,,0,318,318,520,,,,,0.8591308085184833,933.5221765996175,None,933.5221765996175,None,j,1,1.3810562466605916,None,None,006,001,1,33,F,2021_Nov_08_1505,eye_tracking_exp,2021.2.3,85.81383722873142,
0,90,0,0,-168,0,180,180,180,168,f,present,resp,freq_top,,,,,0,319,319,864,,,,,0.9700741783470712,936.1344007070475,None,936.1344007070475,None,f,1,0.9448353074258193,None,None,006,001,1,33,F,2021_Nov_08_1505,eye_tracking_exp,2021.2.3,85.81383722873142,
270,0,180,180,-168,0,0,0,180,168,f,present,resp,freq_top,,,,,0,320,320,899,,,,,0.7571675002099698,938.2646591581033,None,938.2646591581033,None,f,1,0.8149469216477883,None,None,006,001,1,33,F,2021_Nov_08_1505,eye_tracking_exp,2021.2.3,85.81383722873142,
180,0,180,180,0,0,0,12,0,12,j,abs,resp,freq_top,,,,,0,321,321,28,,,,,1.063803087609726,940.2059455545241,None,940.2059455545241,None,j,1,1.4030265333749412,None,None,006,001,1,33,F,2021_Nov_08_1505,eye_tracking_exp,2021.2.3,85.81383722873142,
0,-168,0,270,0,0,-168,0,180,0,f,present,resp,freq_top,,,,,0,322,322,810,,,,,1.0989213043037793,943.0067526349048,None,943.0067526349048,None,f,1,1.4006147702493763,None,None,006,001,1,33,F,2021_Nov_08_1505,eye_tracking_exp,2021.2.3,85.81383722873142,
180,-168,180,270,0,180,12,0,180,180,None,present,inhibit,freq_top,,,,,0,323,323,983,,,,,0.956682429830003,945.4191128152743,None,945.4191128152743,None,None,1,,None,None,006,001,1,33,F,2021_Nov_08_1505,eye_tracking_exp,2021.2.3,85.81383722873142,
180,0,0,0,0,-12,180,180,-12,180,j,abs,resp,freq_top,,,,,0,324,324,106,,,,,0.7269910685878107,949.172771284866,None,949.172771284866,None,j,1,1.250789343866927,None,None,006,001,1,33,F,2021_Nov_08_1505,eye_tracking_exp,2021.2.3,85.81383722873142,
0,12,180,180,180,0,180,-168,0,0,None,abs,inhibit,freq_top,,,,,0,325,325,453,,,,,0.7091783842805055,951.4333241068562,None,951.4333241068562,None,None,1,,None,None,006,001,1,33,F,2021_Nov_08_1505,eye_tracking_exp,2021.2.3,85.81383722873142,
12,0,90,0,0,-168,0,0,0,0,None,present,inhibit,freq_top,,,,,0,326,326,944,,,,,1.0849575614111069,955.9512036026135,None,955.9512036026135,None,None,1,,None,None,006,001,1,33,F,2021_Nov_08_1505,eye_tracking_exp,2021.2.3,85.81383722873142,
12,0,12,180,270,180,180,0,180,180,j,present,resp,freq_top,,,,,0,327,327,567,,,,,0.7656832678001161,959.9886143047443,None,959.9886143047443,None,j,1,0.9636754334896978,None,None,006,001,1,33,F,2021_Nov_08_1505,eye_tracking_exp,2021.2.3,85.81383722873142,
0,180,0,-168,180,0,180,0,-168,180,f,abs,resp,freq_top,,,,,0,328,328,283,,,,,0.7374927599424056,961.9760387258539,None,961.9760387258539,None,f,1,0.6865973554449738,None,None,006,001,1,33,F,2021_Nov_08_1505,eye_tracking_exp,2021.2.3,85.81383722873142,
0,168,0,0,0,0,168,0,0,0,f,abs,resp,freq_top,,,,,0,329,329,236,,,,,1.016812635820423,963.9659346759327,None,963.9659346759327,None,f,1,0.8078064124492812,None,None,006,001,1,33,F,2021_Nov_08_1505,eye_tracking_exp,2021.2.3,85.81383722873142,
0,0,180,-168,180,0,180,168,0,0,f,abs,resp,freq_top,,,,,0,330,330,381,,,,,0.7074449839987583,965.5420837573038,None,965.5420837573038,None,f,1,0.8795891159134044,None,None,006,001,1,33,F,2021_Nov_08_1505,eye_tracking_exp,2021.2.3,85.81383722873142,
0,270,0,-168,180,180,180,-12,0,0,None,present,inhibit,freq_top,,,,,0,331,331,996,,,,,1.0516232278718278,967.8123219664521,None,967.8123219664521,None,None,1,,None,None,006,001,1,33,F,2021_Nov_08_1505,eye_tracking_exp,2021.2.3,85.81383722873142,
0,12,0,-12,0,180,180,0,0,0,j,abs,resp,freq_top,,,,,0,332,332,196,,,,,1.065758936735988,971.8953125768785,None,971.8953125768785,None,j,1,0.6544560086222191,None,None,006,001,1,33,F,2021_Nov_08_1505,eye_tracking_exp,2021.2.3,85.81383722873142,
180,-168,180,90,12,0,0,0,0,180,None,present,inhibit,freq_top,,,,,0,333,333,981,,,,,0.8751042122623648,973.7190981152926,None,973.7190981152926,None,None,1,,None,None,006,001,1,33,F,2021_Nov_08_1505,eye_tracking_exp,2021.2.3,85.81383722873142,
180,270,180,0,180,180,-12,180,-12,180,j,present,resp,freq_top,,,,,0,334,334,595,,,,,0.9121167258497973,977.8499038162299,None,977.8499038162299,None,j,1,0.7630291171917634,None,None,006,001,1,33,F,2021_Nov_08_1505,eye_tracking_exp,2021.2.3,85.81383722873142,
180,180,0,0,-168,0,0,168,0,180,f,abs,resp,freq_top,,,,,0,335,335,380,,,,,0.7889827218352621,980.1795604433428,None,980.1795604433428,None,f,1,1.2017638440738665,None,None,006,001,1,33,F,2021_Nov_08_1505,eye_tracking_exp,2021.2.3,85.81383722873142,
0,0,180,180,180,12,0,0,0,-12,j,abs,resp,freq_top,,,,,0,336,336,156,,,,,1.0369139043615232,982.7111311470908,None,982.7111311470908,None,j,1,0.6377828471959219,None,None,006,001,1,33,F,2021_Nov_08_1505,eye_tracking_exp,2021.2.3,85.81383722873142,
180,12,180,180,12,0,0,0,180,180,j,abs,resp,freq_top,,,,,0,337,337,57,,,,,0.9416524813106205,984.5568250934448,None,984.5568250934448,None,j,1,0.5681215293734567,None,None,006,001,1,33,F,2021_Nov_08_1505,eye_tracking_exp,2021.2.3,85.81383722873142,
180,180,0,270,180,0,180,12,0,12,j,present,resp,freq_top,,,,,0,338,338,546,,,,,0.984881958842581,986.8281454265998,None,986.8281454265998,None,j,1,0.7928462367235625,None,None,006,001,1,33,F,2021_Nov_08_1505,eye_tracking_exp,2021.2.3,85.81383722873142,
180,0,180,180,-168,90,0,168,180,180,f,present,resp,freq_top,,,,,0,339,339,884,,,,,1.068628104841749,989.0162870982131,None,989.0162870982131,None,f,1,1.532787539421406,None,None,006,001,1,33,F,2021_Nov_08_1505,eye_tracking_exp,2021.2.3,85.81383722873142,
90,180,180,180,-168,180,-168,180,180,0,f,present,resp,freq_top,,,,,0,340,340,807,,,,,0.8973423910827485,991.6523707571141,None,991.6523707571141,None,f,1,0.9767345723957988,None,None,006,001,1,33,F,2021_Nov_08_1505,eye_tracking_exp,2021.2.3,85.81383722873142,
0,-12,0,0,-12,0,0,0,0,0,j,abs,resp,freq_top,,,,,0,341,341,82,,,,,0.7254677496913129,993.6539077656053,None,993.6539077656053,None,j,1,0.590512893631967,None,None,006,001,1,33,F,2021_Nov_08_1505,eye_tracking_exp,2021.2.3,85.81383722873142,
168,0,0,90,0,180,12,0,180,180,None,present,inhibit,freq_top,,,,,0,342,342,991,,,,,0.848532925105604,995.9117192067788,None,995.9117192067788,None,None,1,,None,None,006,001,1,33,F,2021_Nov_08_1505,eye_tracking_exp,2021.2.3,85.81383722873142,
-168,0,-168,180,180,0,180,0,180,180,f,abs,resp,freq_top,,,,,0,343,343,343,,,,,0.8179282528551969,1000.0068483206232,None,1000.0068483206232,None,f,1,1.7733441586569825,None,None,006,001,1,33,F,2021_Nov_08_1505,eye_tracking_exp,2021.2.3,85.81383722873142,
180,-168,180,180,0,180,0,180,0,168,f,abs,resp,freq_top,,,,,0,344,344,398,,,,,0.9684255538642799,1003.0309635371013,None,1003.0309635371013,None,f,1,1.0693179027330189,None,None,006,001,1,33,F,2021_Nov_08_1505,eye_tracking_exp,2021.2.3,85.81383722873142,
180,12,180,0,-12,0,270,0,180,180,j,present,resp,freq_top,,,,,0,345,345,701,,,,,0.9934202588278451,1005.3502215109365,None,1005.3502215109365,None,j,1,1.6460773201542906,None,None,006,001,1,33,F,2021_Nov_08_1505,eye_tracking_exp,2021.2.3,85.81383722873142,
-12,0,0,12,0,0,0,0,0,0,j,abs,resp,freq_top,,,,,0,346,346,146,,,,,0.8596615379075425,1008.8083581024512,None,1008.8083581024512,None,j,1,1.6129437999406946,None,None,006,001,1,33,F,2021_Nov_08_1505,eye_tracking_exp,2021.2.3,85.81383722873142,
0,90,0,0,0,-12,0,0,0,-12,j,present,resp,freq_top,,,,,0,347,347,590,,,,,1.071256857376924,1011.7499384985313,None,1011.7499384985313,None,j,1,0.8144126512197545,None,None,006,001,1,33,F,2021_Nov_08_1505,eye_tracking_exp,2021.2.3,85.81383722873142,
180,180,270,180,-168,180,168,180,180,180,f,present,resp,freq_top,,,,,0,348,348,861,,,,,0.7558264774265969,1013.5975745329888,None,1013.5975745329888,None,f,1,0.7898005934293906,None,None,006,001,1,33,F,2021_Nov_08_1505,eye_tracking_exp,2021.2.3,85.81383722873142,
12,0,0,180,180,0,0,12,180,180,j,abs,resp,freq_top,,,,,0,349,349,34,,,,,0.9129208787804478,1015.7980143854584,None,1015.7980143854584,None,j,1,0.6533968250405451,None,None,006,001,1,33,F,2021_Nov_08_1505,eye_tracking_exp,2021.2.3,85.81383722873142,
0,0,0,0,0,-168,0,-168,0,0,f,abs,resp,freq_top,,,,,0,350,350,294,,,,,1.0377714337884014,1017.7866356326995,None,1017.7866356326995,None,f,1,0.7294760286713426,None,None,006,001,1,33,F,2021_Nov_08_1505,eye_tracking_exp,2021.2.3,85.81383722873142,
-168,0,0,-168,0,0,0,270,0,0,f,present,resp,freq_top,,,,,0,351,351,790,,,,,0.8813874593007883,1019.7402485836537,None,1019.7402485836537,None,f,1,0.711215148345218,None,None,006,001,1,33,F,2021_Nov_08_1505,eye_tracking_exp,2021.2.3,85.81383722873142,
0,180,0,180,-168,0,-168,0,180,180,f,abs,resp,freq_top,,,,,0,352,352,303,,,,,1.0814299981847766,1021.8121106730614,None,1021.8121106730614,None,f,1,0.7840298690935015,None,None,006,001,1,33,F,2021_Nov_08_1505,eye_tracking_exp,2021.2.3,85.81383722873142,
0,90,0,-168,0,0,180,180,180,12,None,present,inhibit,freq_top,,,,,0,353,353,928,,,,,1.0097684545814067,1024.3523812312305,None,1024.3523812312305,None,None,1,,None,None,006,001,1,33,F,2021_Nov_08_1505,eye_tracking_exp,2021.2.3,85.81383722873142,
0,0,0,180,0,0,-168,0,180,168,f,abs,resp,freq_top,,,,,0,354,354,393,,,,,0.7453390543501865,1028.3648028677962,None,1028.3648028677962,None,f,1,0.8699284802642069,None,None,006,001,1,33,F,2021_Nov_08_1505,eye_tracking_exp,2021.2.3,85.81383722873142,
180,-12,180,0,180,0,180,180,-12,180,j,abs,resp,freq_top,,,,,0,355,355,131,,,,,0.7904433109156905,1030.3533205812746,None,1030.3533205812746,None,j,1,0.6892285618523601,None,None,006,001,1,33,F,2021_Nov_08_1505,eye_tracking_exp,2021.2.3,85.81383722873142,
180,90,180,-168,180,-168,180,0,180,180,f,present,resp,freq_top,,,,,0,356,356,801,,,,,1.0548116132529604,1032.4009717684858,None,1032.4009717684858,None,f,1,0.8656582408475515,None,None,006,001,1,33,F,2021_Nov_08_1505,eye_tracking_exp,2021.2.3,85.81383722873142,
180,180,0,270,180,180,180,-12,0,12,j,present,resp,freq_top,,,,,0,357,357,686,,,,,0.7927927679704846,1034.4025060603453,None,1034.4025060603453,None,j,1,1.1521385729029134,None,None,006,001,1,33,F,2021_Nov_08_1505,eye_tracking_exp,2021.2.3,85.81383722873142,
270,180,180,180,-168,180,180,180,168,180,f,present,resp,freq_top,,,,,0,358,358,863,,,,,0.8066603157213645,1036.637196269523,None,1036.637196269523,None,f,1,0.7572227748278237,None,None,006,001,1,33,F,2021_Nov_08_1505,eye_tracking_exp,2021.2.3,85.81383722873142,
0,0,180,-12,180,0,180,-12,0,0,j,abs,resp,freq_top,,,,,0,359,359,101,,,,,0.7250056244555412,1038.4846022960337,None,1038.4846022960337,None,j,1,0.734104863156972,None,None,006,001,1,33,F,2021_Nov_08_1505,eye_tracking_exp,2021.2.3,85.81383722873142,
180,90,180,180,168,0,0,180,-12,180,None,present,inhibit,freq_top,,,,,0,360,360,1003,,,,,1.0035261660695247,1040.943769999296,None,1040.943769999296,None,None,1,,None,None,006,001,1,33,F,2021_Nov_08_1505,eye_tracking_exp,2021.2.3,85.81383722873142,
0,-12,0,-12,180,270,180,0,0,0,j,present,resp,freq_top,,,,,0,361,361,630,,,,,0.982460459707466,1044.922599005291,None,1044.922599005291,None,j,1,1.303223911585519,None,None,006,001,1,33,F,2021_Nov_08_1505,eye_tracking_exp,2021.2.3,85.81383722873142,
180,180,168,0,270,0,0,168,0,180,f,present,resp,freq_top,,,,,0,362,362,746,,,,,0.8762615671567312,1047.3932592578967,None,1047.3932592578967,None,f,1,0.9294911814249645,None,None,006,001,1,33,F,2021_Nov_08_1505,eye_tracking_exp,2021.2.3,85.81383722873142,
12,0,180,0,0,180,180,0,12,0,j,abs,resp,freq_top,,,,,0,363,363,41,,,,,1.0925328703008792,1049.724502094672,None,1049.724502094672,None,j,1,0.6294750929446309,None,None,006,001,1,33,F,2021_Nov_08_1505,eye_tracking_exp,2021.2.3,85.81383722873142,
0,-168,0,12,180,0,180,180,0,0,None,abs,inhibit,freq_top,,,,,0,364,364,476,,,,,0.9802385744889367,1051.5357615572211,None,1051.5357615572211,None,None,1,,None,None,006,001,1,33,F,2021_Nov_08_1505,eye_tracking_exp,2021.2.3,85.81383722873142,
180,0,180,12,180,-168,180,180,180,180,None,abs,inhibit,freq_top,,,,,0,365,365,437,,,,,0.9551542380660549,1055.867125133078,None,1055.867125133078,None,None,1,,None,None,006,001,1,33,F,2021_Nov_08_1505,eye_tracking_exp,2021.2.3,85.81383722873142,
90,0,-168,0,168,0,180,180,180,180,f,present,resp,freq_top,,,,,0,366,366,903,,,,,1.004510627583271,1060.150486472845,None,1060.150486472845,None,f,1,1.322526468327851,None,None,006,001,1,33,F,2021_Nov_08_1505,eye_tracking_exp,2021.2.3,85.81383722873142,
180,-12,180,0,180,-12,180,0,180,0,j,abs,resp,freq_top,,,,,0,367,367,89,,,,,1.0887771707757337,1062.9516110970071,None,1062.9516110970071,None,j,1,0.6492415895991144,None,None,006,001,1,33,F,2021_Nov_08_1505,eye_tracking_exp,2021.2.3,85.81383722873142,
90,0,12,0,180,180,0,0,180,-168,None,present,inhibit,freq_top,,,,,0,368,368,971,,,,,0.7590846648593054,1064.504742480145,None,1064.504742480145,None,None,1,,None,None,006,001,1,33,F,2021_Nov_08_1505,eye_tracking_exp,2021.2.3,85.81383722873142,
0,0,0,0,0,-168,0,0,0,-168,f,abs,resp,freq_top,,,,,0,369,369,296,,,,,1.02162442714885,1068.551923388637,None,1068.551923388637,None,f,1,0.6813171336252708,None,None,006,001,1,33,F,2021_Nov_08_1505,eye_tracking_exp,2021.2.3,85.81383722873142,
0,0,180,0,180,-168,0,168,0,0,f,abs,resp,freq_top,,,,,0,370,370,379,,,,,1.0457473948039842,1070.5877690104426,None,1070.5877690104426,None,f,1,0.7734564459969988,None,None,006,001,1,33,F,2021_Nov_08_1505,eye_tracking_exp,2021.2.3,85.81383722873142,
0,90,180,12,0,0,12,180,180,180,j,present,resp,freq_top,,,,,0,371,371,528,,,,,0.8581624465344868,1072.5290086204695,None,1072.5290086204695,None,j,1,0.8152484674974403,None,None,006,001,1,33,F,2021_Nov_08_1505,eye_tracking_exp,2021.2.3,85.81383722873142,
0,168,0,270,0,0,0,168,0,0,f,present,resp,freq_top,,,,,0,372,372,774,,,,,0.8554875989711732,1074.7538649334165,None,1074.7538649334165,None,f,1,0.9583906839507108,None,None,006,001,1,33,F,2021_Nov_08_1505,eye_tracking_exp,2021.2.3,85.81383722873142,
0,0,0,0,-12,0,0,-12,0,0,j,abs,resp,freq_top,,,,,0,373,373,78,,,,,0.8337354488603367,1076.894436313003,None,1076.894436313003,None,j,1,0.7858475959437783,None,None,006,001,1,33,F,2021_Nov_08_1505,eye_tracking_exp,2021.2.3,85.81383722873142,
90,180,180,12,180,-168,0,180,180,180,None,present,inhibit,freq_top,,,,,0,374,374,941,,,,,0.8194108562567409,1078.824814839074,None,1078.824814839074,None,None,1,,None,None,006,001,1,33,F,2021_Nov_08_1505,eye_tracking_exp,2021.2.3,85.81383722873142,
0,12,0,0,0,90,0,12,0,0,j,present,resp,freq_top,,,,,0,375,375,564,,,,,1.009178384780328,1083.0964620732884,None,1083.0964620732884,None,j,1,0.759887788175547,None,None,006,001,1,33,F,2021_Nov_08_1505,eye_tracking_exp,2021.2.3,85.81383722873142,
180,168,180,180,90,180,0,180,168,180,f,present,resp,freq_top,,,,,0,376,376,775,,,,,0.8272779118734083,1085.0031893228006,None,1085.0031893228006,None,f,1,0.773231267616211,None,None,006,001,1,33,F,2021_Nov_08_1505,eye_tracking_exp,2021.2.3,85.81383722873142,
180,180,0,168,180,180,0,0,-168,180,f,abs,resp,freq_top,,,,,0,377,377,388,,,,,1.0210585277305668,1092.7342895063557,None,1092.7342895063557,None,f,1,1.0733312697557267,None,None,006,001,1,33,F,2021_Nov_08_1505,eye_tracking_exp,2021.2.3,85.81383722873142,
0,168,0,168,180,0,180,0,0,0,f,abs,resp,freq_top,,,,,0,378,378,266,,,,,1.0337351080111994,1095.121100089982,None,1095.121100089982,None,f,1,1.2961386405149824,None,None,006,001,1,33,F,2021_Nov_08_1505,eye_tracking_exp,2021.2.3,85.81383722873142,
0,12,0,270,168,0,0,0,0,0,None,present,inhibit,freq_top,,,,,0,379,379,936,,,,,1.0912867309541086,1097.9338802612438,None,1097.9338802612438,None,None,1,,None,None,006,001,1,33,F,2021_Nov_08_1505,eye_tracking_exp,2021.2.3,85.81383722873142,
270,0,168,0,0,0,168,0,0,0,f,present,resp,freq_top,,,,,0,380,380,765,,,,,0.816404321715161,1102.229441379517,None,1102.229441379517,None,f,1,0.970272013128124,None,None,006,001,1,33,F,2021_Nov_08_1505,eye_tracking_exp,2021.2.3,85.81383722873142,
180,180,-12,180,270,180,-12,0,0,180,j,present,resp,freq_top,,,,,0,381,381,599,,,,,0.7890808070475402,1104.336058213139,None,1104.336058213139,None,j,1,0.7034712455933914,1105.0557114263538,None,006,001,1,33,F,2021_Nov_08_1505,eye_tracking_exp,2021.2.3,85.81383722873142,
90,180,-168,180,180,168,0,180,0,180,f,present,resp,freq_top,,,,,0,382,382,904,,,,,0.9239700933971571,1106.5134924412814,None,1106.5134924412814,None,f,1,0.8292288455886592,None,None,006,001,1,33,F,2021_Nov_08_1505,eye_tracking_exp,2021.2.3,85.81383722873142,
0,270,0,12,0,0,0,0,0,-12,j,present,resp,freq_top,,,,,0,383,383,648,,,,,1.0066015897134228,1108.9717844843653,None,1108.9717844843653,None,j,1,0.9629666950859246,None,None,006,001,1,33,F,2021_Nov_08_1505,eye_tracking_exp,2021.2.3,85.81383722873142,
180,180,0,180,90,168,180,180,0,168,f,present,resp,freq_top,,,,,0,384,384,758,,,,,0.8393952739036865,1111.1134727004428,None,1111.1134727004428,None,f,1,0.8055422528486815,None,None,006,001,1,33,F,2021_Nov_08_1505,eye_tracking_exp,2021.2.3,85.81383722873142,
0,0,180,180,180,12,0,-168,0,0,None,abs,inhibit,freq_top,,,,,0,385,385,449,,,,,0.9077596043314964,1113.1966573989375,None,1113.1966573989375,None,None,1,,None,None,006,001,1,33,F,2021_Nov_08_1505,eye_tracking_exp,2021.2.3,85.81383722873142,
0,270,180,180,-168,180,180,180,0,-168,f,present,resp,freq_top,,,,,0,386,386,794,,,,,1.0731667295487815,1117.2920180299661,None,1117.2920180299661,None,f,1,0.7388236482511275,None,None,006,001,1,33,F,2021_Nov_08_1505,eye_tracking_exp,2021.2.3,85.81383722873142,
168,0,180,180,180,180,0,168,180,180,f,abs,resp,freq_top,,,,,0,387,387,244,,,,,0.830901306548715,1119.1862182980694,None,1119.1862182980694,None,f,1,1.0996831776901672,None,None,006,001,1,33,F,2021_Nov_08_1505,eye_tracking_exp,2021.2.3,85.81383722873142,
180,12,0,180,0,0,180,180,-12,180,j,abs,resp,freq_top,,,,,0,388,388,180,,,,,1.0239027569541375,1121.5879114825584,None,1121.5879114825584,None,j,1,1.2100000604259549,None,None,006,001,1,33,F,2021_Nov_08_1505,eye_tracking_exp,2021.2.3,85.81383722873142,
180,0,180,0,-12,180,-12,0,180,180,j,abs,resp,freq_top,,,,,0,389,389,77,,,,,0.9770403658317288,1124.0575635638415,None,1124.0575635638415,None,j,1,0.7564186525523837,None,None,006,001,1,33,F,2021_Nov_08_1505,eye_tracking_exp,2021.2.3,85.81383722873142,
180,0,180,12,180,180,12,180,180,180,j,abs,resp,freq_top,,,,,0,390,390,1,,,,,0.9865306938816958,1126.0816467844634,None,1126.0816467844634,None,j,1,0.6363176784616371,None,None,006,001,1,33,F,2021_Nov_08_1505,eye_tracking_exp,2021.2.3,85.81383722873142,
180,0,-12,0,90,0,12,0,0,0,j,present,resp,freq_top,,,,,0,391,391,695,,,,,0.8672508627310399,1127.74070709031,None,1127.74070709031,None,j,1,0.5773728595413559,None,None,006,001,1,33,F,2021_Nov_08_1505,eye_tracking_exp,2021.2.3,85.81383722873142,
90,0,-12,0,-12,0,0,0,0,0,j,present,resp,freq_top,,,,,0,392,392,623,,,,,0.9836347831580512,1129.6230610435668,None,1129.6230610435668,None,j,1,0.8241741040001216,None,None,006,001,1,33,F,2021_Nov_08_1505,eye_tracking_exp,2021.2.3,85.81383722873142,
90,0,180,0,0,0,-168,0,180,-168,f,present,resp,freq_top,,,,,0,393,393,827,,,,,1.0263336263688538,1131.9774278289697,None,1131.9774278289697,None,f,1,1.2206250994786387,None,None,006,001,1,33,F,2021_Nov_08_1505,eye_tracking_exp,2021.2.3,85.81383722873142,
0,180,0,180,168,180,168,180,180,180,f,abs,resp,freq_top,,,,,0,394,394,233,,,,,0.8729442496912168,1134.3769730652239,None,1134.3769730652239,None,f,1,0.8521728929881647,None,None,006,001,1,33,F,2021_Nov_08_1505,eye_tracking_exp,2021.2.3,85.81383722873142,
12,0,0,0,0,-168,0,0,0,0,None,abs,inhibit,freq_top,,,,,0,395,395,440,,,,,0.9255080052301604,1136.4240006350883,None,1136.4240006350883,None,None,1,,None,None,006,001,1,33,F,2021_Nov_08_1505,eye_tracking_exp,2021.2.3,85.81383722873142,
0,0,0,12,0,180,180,180,180,-12,j,abs,resp,freq_top,,,,,0,396,396,144,,,,,0.9298999928149696,1140.3898492844237,None,1140.3898492844237,None,j,1,0.7768938876106404,None,None,006,001,1,33,F,2021_Nov_08_1505,eye_tracking_exp,2021.2.3,85.81383722873142,
180,168,0,90,180,0,180,180,-168,180,f,present,resp,freq_top,,,,,0,397,397,915,,,,,1.0044258980775436,1142.2609425073715,None,1142.2609425073715,None,f,1,1.0163384999177651,None,None,006,001,1,33,F,2021_Nov_08_1505,eye_tracking_exp,2021.2.3,85.81383722873142,
