ori10,ori11,ori12,ori13,ori14,ori16,ori17,ori18,ori19,ori20,corrAns,distractor,respon,dist_freq,practice_trials.thisRepN,practice_trials.thisTrialN,practice_trials.thisN,practice_trials.thisIndex,trials.thisRepN,trials.thisTrialN,trials.thisN,trials.thisIndex,key_resp.keys,key_resp.rt,fixdur,int14_2.started,int14_2.stopped,per15_2.started,per15_2.stopped,response_pract.keys,response_pract.corr,response_pract.rt,key_resp_2.keys,key_resp_2.rt,int14.started,int14.stopped,per15.started,per15.stopped,response.keys,response.corr,response.rt,text_7.started,text_7.stopped,participant,session,1=top 2=bottom,age,gender,date,expName,psychopyVersion,frameRate,
,,,,,,,,,,,,,,,,,,,,,,space,1.2563552059255017,,,,,,,,,,,,,,,,,,,,007,001,1,26,m,2021_Nov_08_1616,eye_tracking_exp,2021.2.3,85.92111064486808,
180,0,180,12,180,180,12,180,180,180,j,abs,resp,pract,0,0,0,1,,,,,,,1.05071761504351,31.85306838752149,None,31.85306838752149,None,j,1,1.6139740984472155,,,,,,,,,,,,007,001,1,26,m,2021_Nov_08_1616,eye_tracking_exp,2021.2.3,85.92111064486808,
180,270,0,0,0,0,0,168,0,168,f,present,resp,pract,0,1,1,43,,,,,,,0.8770276423806587,34.66571212362396,None,34.66571212362396,None,f,1,1.5373739056922204,,,,,,,,,,,,007,001,1,26,m,2021_Nov_08_1616,eye_tracking_exp,2021.2.3,85.92111064486808,
180,0,180,12,0,180,180,0,12,180,j,abs,resp,pract,0,2,2,3,,,,,,,0.9403948193538261,37.85457189091903,None,37.85457189091903,None,None,0,,,,,,,,,,,,,007,001,1,26,m,2021_Nov_08_1616,eye_tracking_exp,2021.2.3,85.92111064486808,
168,0,180,0,0,180,180,0,168,0,f,abs,resp,pract,0,3,3,13,,,,,,,1.0783317832515182,42.45586850789914,None,42.45586850789914,None,f,1,2.354751217426383,,,,,,,,,,,,007,001,1,26,m,2021_Nov_08_1616,eye_tracking_exp,2021.2.3,85.92111064486808,
90,0,0,12,0,180,180,180,0,12,j,present,resp,pract,0,4,4,36,,,,,,,1.026114077385392,46.66830710830254,None,46.66830710830254,None,j,1,1.597969529680995,,,,,,,,,,,,007,001,1,26,m,2021_Nov_08_1616,eye_tracking_exp,2021.2.3,85.92111064486808,
90,0,180,180,180,168,0,168,0,0,f,present,resp,pract,0,5,5,44,,,,,,,0.9487819853886529,49.5747901630275,None,49.5747901630275,None,f,1,1.5556462562271918,,,,,,,,,,,,007,001,1,26,m,2021_Nov_08_1616,eye_tracking_exp,2021.2.3,85.92111064486808,
12,0,0,12,0,0,90,180,180,0,j,present,resp,pract,0,6,6,38,,,,,,,0.8970334973634881,52.540862783356715,None,52.540862783356715,None,j,1,2.5895310753694503,,,,,,,,,,,,007,001,1,26,m,2021_Nov_08_1616,eye_tracking_exp,2021.2.3,85.92111064486808,
180,12,180,12,0,180,0,180,180,180,j,abs,resp,pract,0,7,7,5,,,,,,,1.0438692217945649,57.07134502429835,None,57.07134502429835,None,j,1,1.0661528200580506,,,,,,,,,,,,007,001,1,26,m,2021_Nov_08_1616,eye_tracking_exp,2021.2.3,85.92111064486808,
12,0,0,-168,0,0,180,180,180,180,None,abs,inhibit,pract,0,8,8,27,,,,,,,0.8307104264030907,59.872003595610295,None,59.872003595610295,None,None,1,,,,,,,,,,,,,007,001,1,26,m,2021_Nov_08_1616,eye_tracking_exp,2021.2.3,85.92111064486808,
0,0,168,0,0,0,0,0,168,0,f,abs,resp,pract,0,9,9,11,,,,,,,1.0380885643298383,64.21492552361087,None,64.21492552361087,None,f,1,2.274654420907609,,,,,,,,,,,,007,001,1,26,m,2021_Nov_08_1616,eye_tracking_exp,2021.2.3,85.92111064486808,
180,270,0,0,168,0,0,168,180,0,f,present,resp,pract,0,10,10,45,,,,,,,0.703476968745283,68.36977188463788,None,68.36977188463788,None,f,1,1.5277473788300995,,,,,,,,,,,,007,001,1,26,m,2021_Nov_08_1616,eye_tracking_exp,2021.2.3,85.92111064486808,
0,0,0,-168,180,180,180,180,0,12,None,abs,inhibit,pract,0,11,11,25,,,,,,,0.9904595223762775,72.47638237946012,None,72.47638237946012,None,None,1,,,,,,,,,,,,,007,001,1,26,m,2021_Nov_08_1616,eye_tracking_exp,2021.2.3,85.92111064486808,
180,12,180,12,180,90,180,180,0,180,j,present,resp,pract,0,12,12,37,,,,,,,0.8962932278339295,77.44260531994587,None,77.44260531994587,None,j,1,1.8300735077609716,,,,,,,,,,,,007,001,1,26,m,2021_Nov_08_1616,eye_tracking_exp,2021.2.3,85.92111064486808,
0,180,0,0,180,0,180,168,0,168,f,abs,resp,pract,0,13,13,14,,,,,,,1.0443726197512553,88.32765145284066,None,88.32765145284066,None,f,1,1.2802841823649942,,,,,,,,,,,,007,001,1,26,m,2021_Nov_08_1616,eye_tracking_exp,2021.2.3,85.92111064486808,
180,180,168,0,270,0,0,168,0,180,f,present,resp,pract,0,14,14,47,,,,,,,0.8589617485882706,91.3502577326617,None,91.3502577326617,None,f,1,1.7142669209024461,,,,,,,,,,,,007,001,1,26,m,2021_Nov_08_1616,eye_tracking_exp,2021.2.3,85.92111064486808,
180,180,90,180,12,180,12,0,0,180,j,present,resp,pract,0,15,15,39,,,,,,,1.0608382165821573,94.99888769122481,None,94.99888769122481,None,j,1,1.3131037809762347,,,,,,,,,,,,007,001,1,26,m,2021_Nov_08_1616,eye_tracking_exp,2021.2.3,85.92111064486808,
180,180,180,-168,180,180,12,180,0,180,None,abs,inhibit,pract,0,16,16,22,,,,,,,0.8668643397437943,97.43397338125942,None,97.43397338125942,None,None,1,,,,,,,,,,,,,007,001,1,26,m,2021_Nov_08_1616,eye_tracking_exp,2021.2.3,85.92111064486808,
90,0,0,12,0,12,180,180,180,0,j,present,resp,pract,0,17,17,32,,,,,,,0.9417242293422894,102.0714461432799,None,102.0714461432799,None,j,1,1.1198050413986493,,,,,,,,,,,,007,001,1,26,m,2021_Nov_08_1616,eye_tracking_exp,2021.2.3,85.92111064486808,
0,0,180,0,0,0,168,0,180,168,f,abs,resp,pract,0,18,18,15,,,,,,,0.9067024114834037,105.52948252136048,None,105.52948252136048,None,f,1,1.7256477865994384,,,,,,,,,,,,007,001,1,26,m,2021_Nov_08_1616,eye_tracking_exp,2021.2.3,85.92111064486808,
0,270,0,0,12,0,180,180,180,12,j,present,resp,pract,0,19,19,42,,,,,,,0.7086974206598488,114.3196769384449,None,114.3196769384449,None,j,1,1.0796466196516121,,,,,,,,,,,,007,001,1,26,m,2021_Nov_08_1616,eye_tracking_exp,2021.2.3,85.92111064486808,
0,180,180,180,12,0,180,12,0,0,j,abs,resp,pract,0,20,20,8,,,,,,,0.7422273038749492,116.40049545281727,None,116.40049545281727,None,j,1,0.8388243744448118,,,,,,,,,,,,007,001,1,26,m,2021_Nov_08_1616,eye_tracking_exp,2021.2.3,85.92111064486808,
90,0,180,168,180,180,0,168,0,0,f,present,resp,pract,0,21,21,46,,,,,,,1.0725318573894986,118.50850259694926,None,118.50850259694926,None,f,1,0.9697972990070411,,,,,,,,,,,,007,001,1,26,m,2021_Nov_08_1616,eye_tracking_exp,2021.2.3,85.92111064486808,
0,180,0,0,180,168,180,0,0,168,f,abs,resp,pract,0,22,22,16,,,,,,,1.0667077187113332,121.17751119930472,None,121.17751119930472,None,f,1,1.8048281734991178,,,,,,,,,,,,007,001,1,26,m,2021_Nov_08_1616,eye_tracking_exp,2021.2.3,85.92111064486808,
90,0,0,12,0,0,0,12,0,0,j,present,resp,pract,0,23,23,34,,,,,,,0.7295601676302398,124.07231908682661,None,124.07231908682661,None,j,1,1.0220395897413255,,,,,,,,,,,,007,001,1,26,m,2021_Nov_08_1616,eye_tracking_exp,2021.2.3,85.92111064486808,
0,180,0,180,168,180,12,180,0,180,None,abs,inhibit,pract,0,24,24,28,,,,,,,0.9948791558528097,126.32038477130118,None,126.32038477130118,None,None,1,,,,,,,,,,,,,007,001,1,26,m,2021_Nov_08_1616,eye_tracking_exp,2021.2.3,85.92111064486808,
0,270,0,0,12,0,0,12,0,0,j,present,resp,pract,0,25,25,40,,,,,,,0.7061116028299641,130.34807748672029,None,130.34807748672029,None,j,1,0.9380018696465413,,,,,,,,,,,,007,001,1,26,m,2021_Nov_08_1616,eye_tracking_exp,2021.2.3,85.92111064486808,
180,180,0,168,180,180,180,0,0,168,f,abs,resp,pract,0,26,26,18,,,,,,,0.9028135811227106,132.46453968678543,None,132.46453968678543,None,f,1,1.4930557207844686,,,,,,,,,,,,007,001,1,26,m,2021_Nov_08_1616,eye_tracking_exp,2021.2.3,85.92111064486808,
180,0,180,0,168,180,0,180,12,180,None,abs,inhibit,pract,0,27,27,30,,,,,,,0.7827442664732852,135.00641275439557,None,135.00641275439557,None,None,1,,,,,,,,,,,,,007,001,1,26,m,2021_Nov_08_1616,eye_tracking_exp,2021.2.3,85.92111064486808,
0,168,180,90,0,180,0,168,0,0,f,present,resp,pract,0,28,28,48,,,,,,,1.0060438078943874,139.33692059202076,None,139.33692059202076,None,f,1,2.0767093396825658,,,,,,,,,,,,007,001,1,26,m,2021_Nov_08_1616,eye_tracking_exp,2021.2.3,85.92111064486808,
180,270,180,12,180,0,12,180,0,180,j,present,resp,pract,0,29,29,33,,,,,,,0.972684977890677,142.8092766250047,None,142.8092766250047,None,j,1,1.3884331949193438,,,,,,,,,,,,007,001,1,26,m,2021_Nov_08_1616,eye_tracking_exp,2021.2.3,85.92111064486808,
180,270,180,12,180,180,180,180,12,180,j,present,resp,pract,0,30,30,35,,,,,,,0.7142775544267559,145.37550668909898,None,145.37550668909898,None,j,1,1.8624186017877946,,,,,,,,,,,,007,001,1,26,m,2021_Nov_08_1616,eye_tracking_exp,2021.2.3,85.92111064486808,
0,0,0,0,168,0,0,12,0,0,None,abs,inhibit,pract,0,31,31,29,,,,,,,0.7947226769291303,181.57631328652133,None,181.57631328652133,None,None,1,,,,,,,,,,,,,007,001,1,26,m,2021_Nov_08_1616,eye_tracking_exp,2021.2.3,85.92111064486808,
0,0,180,0,168,0,0,0,180,168,f,abs,resp,pract,0,32,32,17,,,,,,,0.9162927854723606,185.77759348298787,None,185.77759348298787,None,f,1,1.1537124991227756,,,,,,,,,,,,007,001,1,26,m,2021_Nov_08_1616,eye_tracking_exp,2021.2.3,85.92111064486808,
180,0,180,0,12,0,12,180,180,180,j,abs,resp,pract,0,33,33,7,,,,,,,0.7177374260892723,188.46078379585015,None,188.46078379585015,None,j,1,0.8865757750936609,,,,,,,,,,,,007,001,1,26,m,2021_Nov_08_1616,eye_tracking_exp,2021.2.3,85.92111064486808,
0,0,0,-168,0,0,0,12,0,0,None,abs,inhibit,pract,0,34,34,23,,,,,,,0.9589314392346122,190.62536353782707,None,190.62536353782707,None,None,1,,,,,,,,,,,,,007,001,1,26,m,2021_Nov_08_1616,eye_tracking_exp,2021.2.3,85.92111064486808,
0,180,0,-168,180,0,180,0,12,180,None,abs,inhibit,pract,0,35,35,24,,,,,,,0.7296380829387867,194.70973691256586,None,194.70973691256586,None,None,1,,,,,,,,,,,,,007,001,1,26,m,2021_Nov_08_1616,eye_tracking_exp,2021.2.3,85.92111064486808,
180,0,180,0,12,180,180,180,12,180,j,abs,resp,pract,0,36,36,9,,,,,,,0.7488374848928169,198.61610647255293,None,198.61610647255293,None,j,1,1.0503667890261568,,,,,,,,,,,,007,001,1,26,m,2021_Nov_08_1616,eye_tracking_exp,2021.2.3,85.92111064486808,
180,12,180,-168,180,180,0,180,180,180,None,abs,inhibit,pract,0,37,37,26,,,,,,,1.0083907453144474,200.73566230969664,None,200.73566230969664,None,None,1,,,,,,,,,,,,,007,001,1,26,m,2021_Nov_08_1616,eye_tracking_exp,2021.2.3,85.92111064486808,
168,0,270,180,180,180,180,168,180,180,f,present,resp,pract,0,38,38,49,,,,,,,1.0837366174708079,204.85471466487797,None,204.85471466487797,None,f,1,1.5798550454892393,,,,,,,,,,,,007,001,1,26,m,2021_Nov_08_1616,eye_tracking_exp,2021.2.3,85.92111064486808,
12,0,0,12,0,0,180,0,180,180,j,abs,resp,pract,0,39,39,6,,,,,,,0.8930838444465627,207.70085172365725,None,207.70085172365725,None,j,1,1.0223936570946535,,,,,,,,,,,,007,001,1,26,m,2021_Nov_08_1616,eye_tracking_exp,2021.2.3,85.92111064486808,
180,168,180,0,180,0,180,0,0,168,f,abs,resp,pract,0,40,40,20,,,,,,,0.7853588235475697,209.79593103263323,None,209.79593103263323,None,f,1,1.086709252143919,,,,,,,,,,,,007,001,1,26,m,2021_Nov_08_1616,eye_tracking_exp,2021.2.3,85.92111064486808,
0,0,0,-168,0,12,0,0,0,0,None,abs,inhibit,pract,0,41,41,21,,,,,,,0.8940444945510295,211.9247548015701,None,211.9247548015701,None,None,1,,,,,,,,,,,,,007,001,1,26,m,2021_Nov_08_1616,eye_tracking_exp,2021.2.3,85.92111064486808,
0,180,0,12,0,180,180,180,0,12,j,abs,resp,pract,0,42,42,4,,,,,,,0.9699779921682347,216.4672068130676,None,216.4672068130676,None,j,1,1.2785998721992655,,,,,,,,,,,,007,001,1,26,m,2021_Nov_08_1616,eye_tracking_exp,2021.2.3,85.92111064486808,
0,180,0,12,0,12,0,180,180,180,j,abs,resp,pract,0,43,43,0,,,,,,,0.8567120347355229,219.2209144838307,None,219.2209144838307,None,j,1,2.4448536615163903,,,,,,,,,,,,007,001,1,26,m,2021_Nov_08_1616,eye_tracking_exp,2021.2.3,85.92111064486808,
180,180,0,168,180,180,180,180,168,180,f,abs,resp,pract,0,44,44,10,,,,,,,0.8456416793134238,224.7982504303618,None,224.7982504303618,None,f,1,1.5076829584941152,,,,,,,,,,,,007,001,1,26,m,2021_Nov_08_1616,eye_tracking_exp,2021.2.3,85.92111064486808,
180,168,0,180,0,180,180,180,168,180,f,abs,resp,pract,0,45,45,12,,,,,,,0.7692611419221833,227.59887700581749,None,227.59887700581749,None,f,1,1.0420895213865151,,,,,,,,,,,,007,001,1,26,m,2021_Nov_08_1616,eye_tracking_exp,2021.2.3,85.92111064486808,
0,0,168,0,0,0,0,0,180,168,f,abs,resp,pract,0,46,46,19,,,,,,,0.9321773887474123,229.84746035909848,None,229.84746035909848,None,f,1,0.7774406261050899,,,,,,,,,,,,007,001,1,26,m,2021_Nov_08_1616,eye_tracking_exp,2021.2.3,85.92111064486808,
0,180,0,12,0,180,180,12,0,0,j,abs,resp,pract,0,47,47,2,,,,,,,1.0897295711984143,232.37588430057076,None,232.37588430057076,None,j,1,0.8087624564250291,,,,,,,,,,,,007,001,1,26,m,2021_Nov_08_1616,eye_tracking_exp,2021.2.3,85.92111064486808,
0,180,180,180,168,0,0,0,0,12,None,abs,inhibit,pract,0,48,48,31,,,,,,,0.8643274775292152,234.36437967732127,None,234.36437967732127,None,None,1,,,,,,,,,,,,,007,001,1,26,m,2021_Nov_08_1616,eye_tracking_exp,2021.2.3,85.92111064486808,
180,0,90,180,12,0,180,180,12,180,j,present,resp,pract,0,49,49,41,,,,,,,1.0756430003984105,238.72036014053083,None,238.72036014053083,None,j,1,1.4726631919984357,,,,,,,,,,,,007,001,1,26,m,2021_Nov_08_1616,eye_tracking_exp,2021.2.3,85.92111064486808,
,,,,,,,,,,,,,,,,,,,,,,,,,,,,,,,,space,9.236610744148493,,,,,,,,,,007,001,1,26,m,2021_Nov_08_1616,eye_tracking_exp,2021.2.3,85.92111064486808,
270,0,-168,0,0,180,180,0,-168,0,f,present,resp,freq_top,,,,,0,0,0,837,,,0.8835846526536304,,,,,,,,,,252.13148666935012,None,252.13148666935012,None,f,1,1.7248210257457686,None,None,007,001,1,26,m,2021_Nov_08_1616,eye_tracking_exp,2021.2.3,85.92111064486808,
90,0,12,180,180,-168,0,0,0,0,None,present,inhibit,freq_top,,,,,0,1,1,942,,,0.7583264643771714,,,,,,,,,,254.9200429589655,None,254.9200429589655,None,None,1,,None,None,007,001,1,26,m,2021_Nov_08_1616,eye_tracking_exp,2021.2.3,85.92111064486808,
168,180,180,168,0,180,180,180,180,90,f,present,resp,freq_top,,,,,0,2,2,778,,,1.0273290353236875,,,,,,,,,,259.6857665829848,None,259.6857665829848,None,f,1,2.137569985956361,None,None,007,001,1,26,m,2021_Nov_08_1616,eye_tracking_exp,2021.2.3,85.92111064486808,
270,180,180,180,168,180,12,180,0,180,None,present,inhibit,freq_top,,,,,0,3,3,931,,,1.0943216448617124,,,,,,,,,,263.7818314247015,None,263.7818314247015,None,None,1,,None,None,007,001,1,26,m,2021_Nov_08_1616,eye_tracking_exp,2021.2.3,85.92111064486808,
0,0,0,12,0,180,180,180,180,-12,j,abs,resp,freq_top,,,,,0,4,4,144,,,0.7493929467753665,,,,,,,,,,268.2061408499867,None,268.2061408499867,None,j,1,2.86536554088525,None,None,007,001,1,26,m,2021_Nov_08_1616,eye_tracking_exp,2021.2.3,85.92111064486808,
270,0,168,0,180,180,180,180,12,0,None,present,inhibit,freq_top,,,,,0,5,5,977,,,0.862307678605546,,,,,,,,,,272.55937298988283,None,272.55937298988283,None,None,1,,None,None,007,001,1,26,m,2021_Nov_08_1616,eye_tracking_exp,2021.2.3,85.92111064486808,
180,-168,180,180,12,180,180,0,0,180,None,abs,inhibit,freq_top,,,,,0,6,6,477,,,0.9871240305097717,,,,,,,,,,277.1136655811242,None,277.1136655811242,None,None,1,,None,None,007,001,1,26,m,2021_Nov_08_1616,eye_tracking_exp,2021.2.3,85.92111064486808,
12,0,180,180,90,180,-12,180,180,180,j,present,resp,freq_top,,,,,0,7,7,671,,,1.0481531412648872,,,,,,,,,,281.84519831243233,None,281.84519831243233,None,j,1,1.7374563704797765,None,None,007,001,1,26,m,2021_Nov_08_1616,eye_tracking_exp,2021.2.3,85.92111064486808,
270,180,180,168,0,180,0,180,168,180,f,present,resp,freq_top,,,,,0,8,8,717,,,1.0270205302010442,,,,,,,,,,285.7405311131042,None,285.7405311131042,None,f,1,1.890189193913102,None,None,007,001,1,26,m,2021_Nov_08_1616,eye_tracking_exp,2021.2.3,85.92111064486808,
90,180,0,0,0,-168,180,0,-168,180,f,present,resp,freq_top,,,,,0,9,9,820,,,0.8938680102965364,,,,,,,,,,288.69446221153703,None,288.69446221153703,None,f,1,1.431379180176009,None,None,007,001,1,26,m,2021_Nov_08_1616,eye_tracking_exp,2021.2.3,85.92111064486808,
180,90,0,-168,180,0,0,180,0,168,f,present,resp,freq_top,,,,,0,10,10,900,,,0.7325855734242201,,,,,,,,,,290.9425475161115,None,290.9425475161115,None,f,1,1.935252942635998,None,None,007,001,1,26,m,2021_Nov_08_1616,eye_tracking_exp,2021.2.3,85.92111064486808,
0,-168,0,0,-168,0,0,0,0,0,f,abs,resp,freq_top,,,,,0,11,11,292,,,0.7964390911889161,,,,,,,,,,294.2845805026336,None,294.2845805026336,None,f,1,0.9457110599105363,None,None,007,001,1,26,m,2021_Nov_08_1616,eye_tracking_exp,2021.2.3,85.92111064486808,
180,270,180,0,180,180,-12,180,-12,180,j,present,resp,freq_top,,,,,0,12,12,595,,,0.8996436249007883,,,,,,,,,,297.0159251828227,None,297.0159251828227,None,j,1,1.0620108659131802,None,None,007,001,1,26,m,2021_Nov_08_1616,eye_tracking_exp,2021.2.3,85.92111064486808,
0,0,0,180,0,0,-168,0,180,168,f,abs,resp,freq_top,,,,,0,13,13,393,,,0.8518750652513092,,,,,,,,,,299.732554485774,None,299.732554485774,None,f,1,1.4971493792982074,None,None,007,001,1,26,m,2021_Nov_08_1616,eye_tracking_exp,2021.2.3,85.92111064486808,
0,270,0,-168,0,180,180,180,0,-12,None,present,inhibit,freq_top,,,,,0,14,14,998,,,0.8857614788189669,,,,,,,,,,303.2754405542655,None,303.2754405542655,None,None,1,,None,None,007,001,1,26,m,2021_Nov_08_1616,eye_tracking_exp,2021.2.3,85.92111064486808,
180,-12,180,12,180,0,180,0,180,180,j,abs,resp,freq_top,,,,,0,15,15,145,,,0.8282127429277008,,,,,,,,,,308.1340795410979,None,308.1340795410979,None,f,0,1.1749818954776856,309.33628882478297,None,007,001,1,26,m,2021_Nov_08_1616,eye_tracking_exp,2021.2.3,85.92111064486808,
180,12,180,0,180,180,-12,0,180,180,j,abs,resp,freq_top,,,,,0,16,16,199,,,0.9410056940165397,,,,,,,,,,311.06505361268137,None,311.06505361268137,None,j,1,1.4760140033176867,None,None,007,001,1,26,m,2021_Nov_08_1616,eye_tracking_exp,2021.2.3,85.92111064486808,
180,270,180,180,-12,180,-12,180,180,180,j,present,resp,freq_top,,,,,0,17,17,597,,,0.9133611493120446,,,,,,,,,,313.50047978692237,None,313.50047978692237,None,j,1,1.2167355823221442,None,None,007,001,1,26,m,2021_Nov_08_1616,eye_tracking_exp,2021.2.3,85.92111064486808,
180,180,180,168,180,180,168,180,0,180,f,abs,resp,freq_top,,,,,0,18,18,211,,,1.009950886028791,,,,,,,,,,316.6083145760167,None,316.6083145760167,None,f,1,1.0368998538760934,None,None,007,001,1,26,m,2021_Nov_08_1616,eye_tracking_exp,2021.2.3,85.92111064486808,
90,180,180,180,180,-168,180,180,-168,180,f,present,resp,freq_top,,,,,0,19,19,799,,,0.8017298326576783,,,,,,,,,,319.324826762062,None,319.324826762062,None,f,1,1.1044388805203198,None,None,007,001,1,26,m,2021_Nov_08_1616,eye_tracking_exp,2021.2.3,85.92111064486808,
0,180,180,180,180,180,168,0,0,12,None,abs,inhibit,freq_top,,,,,0,20,20,442,,,0.9871163238010401,,,,,,,,,,322.2314208967364,None,322.2314208967364,None,None,1,,None,None,007,001,1,26,m,2021_Nov_08_1616,eye_tracking_exp,2021.2.3,85.92111064486808,
180,180,0,0,-12,0,0,12,180,180,j,abs,resp,freq_top,,,,,0,21,21,170,,,0.9955085779765183,,,,,,,,,,327.4693949070461,None,327.4693949070461,None,j,1,1.536055434931768,None,None,007,001,1,26,m,2021_Nov_08_1616,eye_tracking_exp,2021.2.3,85.92111064486808,
168,0,168,180,90,180,0,0,180,180,f,present,resp,freq_top,,,,,0,22,22,777,,,1.0414043812790477,,,,,,,,,,331.0581865774984,None,331.0581865774984,None,f,1,2.0421858108056767,None,None,007,001,1,26,m,2021_Nov_08_1616,eye_tracking_exp,2021.2.3,85.92111064486808,
0,270,0,0,0,-168,0,0,0,12,None,present,inhibit,freq_top,,,,,0,23,23,940,,,0.9572226677399668,,,,,,,,,,334.72925710149866,None,334.72925710149866,None,None,1,,None,None,007,001,1,26,m,2021_Nov_08_1616,eye_tracking_exp,2021.2.3,85.92111064486808,
12,180,0,180,12,0,180,0,180,180,j,abs,resp,freq_top,,,,,0,24,24,13,,,0.97611247994814,,,,,,,,,,339.37868846570564,None,339.37868846570564,None,j,1,1.1128408112563193,None,None,007,001,1,26,m,2021_Nov_08_1616,eye_tracking_exp,2021.2.3,85.92111064486808,
0,0,0,-168,0,0,0,0,0,-12,None,abs,inhibit,freq_top,,,,,0,25,25,494,,,0.9513552709761228,,,,,,,,,,342.8722668068076,None,342.8722668068076,None,None,1,,None,None,007,001,1,26,m,2021_Nov_08_1616,eye_tracking_exp,2021.2.3,85.92111064486808,
0,168,180,180,-168,0,0,270,0,0,f,present,resp,freq_top,,,,,0,26,26,866,,,0.8694598762383675,,,,,,,,,,347.344273903851,None,347.344273903851,None,f,1,1.6113416846528708,None,None,007,001,1,26,m,2021_Nov_08_1616,eye_tracking_exp,2021.2.3,85.92111064486808,
0,0,12,0,0,-168,0,0,0,0,None,abs,inhibit,freq_top,,,,,0,27,27,438,,,0.9880930040934159,,,,,,,,,,350.78022046352635,None,350.78022046352635,None,None,1,,None,None,007,001,1,26,m,2021_Nov_08_1616,eye_tracking_exp,2021.2.3,85.92111064486808,
180,180,-168,0,180,0,-168,180,0,180,f,abs,resp,freq_top,,,,,0,28,28,305,,,0.7789598025058416,,,,,,,,,,354.8997376641637,None,354.8997376641637,None,f,1,1.5109607226731896,None,None,007,001,1,26,m,2021_Nov_08_1616,eye_tracking_exp,2021.2.3,85.92111064486808,
180,180,12,180,168,0,180,0,180,180,None,abs,inhibit,freq_top,,,,,0,29,29,501,,,0.829408245653079,,,,,,,,,,357.9942039204616,None,357.9942039204616,None,None,1,,None,None,007,001,1,26,m,2021_Nov_08_1616,eye_tracking_exp,2021.2.3,85.92111064486808,
168,0,0,90,0,180,180,180,12,180,None,present,inhibit,freq_top,,,,,0,30,30,993,,,0.9653185167161114,,,,,,,,,,362.46631666419853,None,362.46631666419853,None,None,1,,None,None,007,001,1,26,m,2021_Nov_08_1616,eye_tracking_exp,2021.2.3,85.92111064486808,
180,0,180,0,-168,180,-168,180,180,180,f,abs,resp,freq_top,,,,,0,31,31,287,,,1.026773718158373,,,,,,,,,,367.7614328589625,None,367.7614328589625,None,f,1,1.6405312628194224,None,None,007,001,1,26,m,2021_Nov_08_1616,eye_tracking_exp,2021.2.3,85.92111064486808,
0,12,0,0,0,90,0,12,0,0,j,present,resp,freq_top,,,,,0,32,32,564,,,0.9361975235610605,,,,,,,,,,371.0676271661723,None,371.0676271661723,None,j,1,1.2302864311277517,None,None,007,001,1,26,m,2021_Nov_08_1616,eye_tracking_exp,2021.2.3,85.92111064486808,
0,0,180,0,-12,0,0,0,-12,0,j,abs,resp,freq_top,,,,,0,33,33,107,,,0.9897928805165597,,,,,,,,,,373.5152289711041,None,373.5152289711041,None,j,1,1.1507495620935515,None,None,007,001,1,26,m,2021_Nov_08_1616,eye_tracking_exp,2021.2.3,85.92111064486808,
0,270,0,0,0,168,180,180,180,-168,f,present,resp,freq_top,,,,,0,34,34,870,,,0.8093959006583435,,,,,,,,,,376.10410727184353,None,376.10410727184353,None,f,1,2.065945450689469,None,None,007,001,1,26,m,2021_Nov_08_1616,eye_tracking_exp,2021.2.3,85.92111064486808,
180,180,90,180,180,168,180,0,168,180,f,present,resp,freq_top,,,,,0,35,35,729,,,0.8539243158716562,,,,,,,,,,379.77595716660653,None,379.77595716660653,None,f,1,0.9226109572518908,None,None,007,001,1,26,m,2021_Nov_08_1616,eye_tracking_exp,2021.2.3,85.92111064486808,
0,0,0,168,0,168,0,0,0,0,f,abs,resp,freq_top,,,,,0,36,36,210,,,1.0071163645552321,,,,,,,,,,382.4003303421232,None,382.4003303421232,None,f,1,0.9218004961767292,None,None,007,001,1,26,m,2021_Nov_08_1616,eye_tracking_exp,2021.2.3,85.92111064486808,
180,12,0,180,0,180,12,0,180,180,j,abs,resp,freq_top,,,,,0,37,37,59,,,0.993029160359248,,,,,,,,,,385.2351070608529,None,385.2351070608529,None,j,1,0.8700139954744373,None,None,007,001,1,26,m,2021_Nov_08_1616,eye_tracking_exp,2021.2.3,85.92111064486808,
0,0,-168,0,168,0,0,0,0,0,f,abs,resp,freq_top,,,,,0,38,38,399,,,0.7417998328145954,,,,,,,,,,386.9649204676607,None,386.9649204676607,None,f,1,0.9482610692830349,None,None,007,001,1,26,m,2021_Nov_08_1616,eye_tracking_exp,2021.2.3,85.92111064486808,
0,180,180,0,0,0,-168,0,0,-168,f,abs,resp,freq_top,,,,,0,39,39,302,,,0.8231750966847733,,,,,,,,,,389.00163178866933,None,389.00163178866933,None,f,1,0.863574980328849,None,None,007,001,1,26,m,2021_Nov_08_1616,eye_tracking_exp,2021.2.3,85.92111064486808,
0,0,-168,0,90,0,180,180,-168,0,f,present,resp,freq_top,,,,,0,40,40,823,,,0.705339947717592,,,,,,,,,,391.1652253942084,None,391.1652253942084,None,f,1,1.4999939920235192,None,None,007,001,1,26,m,2021_Nov_08_1616,eye_tracking_exp,2021.2.3,85.92111064486808,
180,168,0,270,180,0,180,0,168,180,f,present,resp,freq_top,,,,,0,41,41,754,,,0.8726156537969278,,,,,,,,,,393.60136362717094,None,393.60136362717094,None,f,1,1.33598655329115,None,None,007,001,1,26,m,2021_Nov_08_1616,eye_tracking_exp,2021.2.3,85.92111064486808,
0,180,168,180,90,180,180,168,180,180,f,present,resp,freq_top,,,,,0,42,42,766,,,0.813117077392741,,,,,,,,,,405.2255698809131,None,405.2255698809131,None,f,1,1.9508811073210381,None,None,007,001,1,26,m,2021_Nov_08_1616,eye_tracking_exp,2021.2.3,85.92111064486808,
180,0,180,180,0,0,0,12,0,12,j,abs,resp,freq_top,,,,,0,43,43,28,,,0.8566856978017005,,,,,,,,,,408.745970408665,None,408.745970408665,None,j,1,1.1985480509829358,None,None,007,001,1,26,m,2021_Nov_08_1616,eye_tracking_exp,2021.2.3,85.92111064486808,
-168,0,0,180,168,180,180,0,180,0,f,abs,resp,freq_top,,,,,0,44,44,415,,,0.9784667777739681,,,,,,,,,,411.9448602731936,None,411.9448602731936,None,f,1,1.697403897276672,None,None,007,001,1,26,m,2021_Nov_08_1616,eye_tracking_exp,2021.2.3,85.92111064486808,
12,180,180,90,0,12,0,0,180,180,j,present,resp,freq_top,,,,,0,45,45,570,,,0.9912292232276247,,,,,,,,,,415.38109600296593,None,415.38109600296593,None,j,1,0.962495603132993,None,None,007,001,1,26,m,2021_Nov_08_1616,eye_tracking_exp,2021.2.3,85.92111064486808,
-12,180,180,12,0,270,0,180,180,180,j,present,resp,freq_top,,,,,0,46,46,708,,,0.8073497014348572,,,,,,,,,,417.77159395809576,None,417.77159395809576,None,j,1,2.2200652643041394,None,None,007,001,1,26,m,2021_Nov_08_1616,eye_tracking_exp,2021.2.3,85.92111064486808,
180,12,180,180,270,180,12,0,0,180,j,present,resp,freq_top,,,,,0,47,47,563,,,0.8036915179829546,,,,,,,,,,421.2535988546697,None,421.2535988546697,None,j,1,1.074085981319513,None,None,007,001,1,26,m,2021_Nov_08_1616,eye_tracking_exp,2021.2.3,85.92111064486808,
-12,0,270,0,0,12,0,0,0,0,j,present,resp,freq_top,,,,,0,48,48,664,,,0.7433285333893119,,,,,,,,,,423.47864563351686,None,423.47864563351686,None,j,1,1.057060865474341,None,None,007,001,1,26,m,2021_Nov_08_1616,eye_tracking_exp,2021.2.3,85.92111064486808,
0,0,90,180,168,180,180,180,168,0,f,present,resp,freq_top,,,,,0,49,49,751,,,0.7360062789630216,,,,,,,,,,425.96057355892844,None,425.96057355892844,None,f,1,2.7663247826931183,None,None,007,001,1,26,m,2021_Nov_08_1616,eye_tracking_exp,2021.2.3,85.92111064486808,
-168,0,0,0,0,0,0,0,168,180,f,abs,resp,freq_top,,,,,0,50,50,419,,,0.7759557378396196,,,,,,,,,,430.13781007682337,None,430.13781007682337,None,f,1,1.5970051262775087,None,None,007,001,1,26,m,2021_Nov_08_1616,eye_tracking_exp,2021.2.3,85.92111064486808,
90,0,180,0,0,0,-168,0,180,-168,f,present,resp,freq_top,,,,,0,51,51,827,,,0.9528900096918178,,,,,,,,,,433.3386990786712,None,433.3386990786712,None,f,1,1.0681803310617397,None,None,007,001,1,26,m,2021_Nov_08_1616,eye_tracking_exp,2021.2.3,85.92111064486808,
0,270,0,0,12,0,180,180,180,12,j,present,resp,freq_top,,,,,0,52,52,514,,,0.9653047995733233,,,,,,,,,,435.98611349654675,None,435.98611349654675,None,j,1,1.0138498579362931,None,None,007,001,1,26,m,2021_Nov_08_1616,eye_tracking_exp,2021.2.3,85.92111064486808,
180,270,0,168,180,180,180,180,168,180,f,present,resp,freq_top,,,,,0,53,53,752,,,0.7553724632420306,,,,,,,,,,438.30507716887587,None,438.30507716887587,None,f,1,1.429914916981943,None,None,007,001,1,26,m,2021_Nov_08_1616,eye_tracking_exp,2021.2.3,85.92111064486808,
90,180,180,-168,180,168,0,180,0,180,f,present,resp,freq_top,,,,,0,54,54,871,,,0.9714463715706417,,,,,,,,,,441.24632251400544,None,441.24632251400544,None,f,1,1.0010774743423099,None,None,007,001,1,26,m,2021_Nov_08_1616,eye_tracking_exp,2021.2.3,85.92111064486808,
180,180,0,180,12,180,168,180,0,180,None,abs,inhibit,freq_top,,,,,0,55,55,443,,,1.0603085884309793,,,,,,,,,,443.83650660790227,None,443.83650660790227,None,None,1,,None,None,007,001,1,26,m,2021_Nov_08_1616,eye_tracking_exp,2021.2.3,85.92111064486808,
0,0,180,0,12,0,0,0,180,-168,None,abs,inhibit,freq_top,,,,,0,56,56,465,,,1.0394199231379517,,,,,,,,,,448.1794375913305,None,448.1794375913305,None,None,1,,None,None,007,001,1,26,m,2021_Nov_08_1616,eye_tracking_exp,2021.2.3,85.92111064486808,
0,0,270,0,168,0,0,-12,0,0,None,present,inhibit,freq_top,,,,,0,57,57,1002,,,0.9805425626396054,,,,,,,,,,453.26267601871587,None,453.26267601871587,None,None,1,,None,None,007,001,1,26,m,2021_Nov_08_1616,eye_tracking_exp,2021.2.3,85.92111064486808,
180,-12,180,-168,0,180,0,180,0,180,None,abs,inhibit,freq_top,,,,,0,58,58,495,,,1.0373683917049314,,,,,,,,,,457.65285914669585,None,457.65285914669585,None,None,1,,None,None,007,001,1,26,m,2021_Nov_08_1616,eye_tracking_exp,2021.2.3,85.92111064486808,
0,0,-168,0,0,-168,0,0,0,0,f,abs,resp,freq_top,,,,,0,59,59,298,,,1.084241122591386,,,,,,,,,,462.4169123455431,None,462.4169123455431,None,f,1,1.1884672433370724,None,None,007,001,1,26,m,2021_Nov_08_1616,eye_tracking_exp,2021.2.3,85.92111064486808,
0,180,0,12,0,180,180,12,0,0,j,abs,resp,freq_top,,,,,0,60,60,2,,,0.9043462455704186,,,,,,,,,,465.1583254576253,None,465.1583254576253,None,j,1,0.7510473650363565,None,None,007,001,1,26,m,2021_Nov_08_1616,eye_tracking_exp,2021.2.3,85.92111064486808,
0,90,0,-12,0,0,-12,180,180,180,j,present,resp,freq_top,,,,,0,61,61,598,,,0.9747431316511554,,,,,,,,,,467.2303140212207,None,467.2303140212207,None,j,1,1.191012724993925,None,None,007,001,1,26,m,2021_Nov_08_1616,eye_tracking_exp,2021.2.3,85.92111064486808,
180,270,0,180,180,12,180,180,0,12,j,present,resp,freq_top,,,,,0,62,62,548,,,1.0195484713590774,,,,,,,,,,469.7942645314797,None,469.7942645314797,None,j,1,1.0270698816675576,None,None,007,001,1,26,m,2021_Nov_08_1616,eye_tracking_exp,2021.2.3,85.92111064486808,
180,180,0,12,0,180,0,0,-12,180,j,abs,resp,freq_top,,,,,0,63,63,178,,,1.0073961570734982,,,,,,,,,,472.37204117565125,None,472.37204117565125,None,j,1,0.9133255182969151,None,None,007,001,1,26,m,2021_Nov_08_1616,eye_tracking_exp,2021.2.3,85.92111064486808,
180,180,180,12,0,180,0,180,-12,180,j,abs,resp,freq_top,,,,,0,64,64,143,,,0.7475802696123819,,,,,,,,,,474.6658881008334,None,474.6658881008334,None,j,1,0.6835705190205772,None,None,007,001,1,26,m,2021_Nov_08_1616,eye_tracking_exp,2021.2.3,85.92111064486808,
270,180,0,0,12,0,0,12,0,180,j,present,resp,freq_top,,,,,0,65,65,534,,,0.8506768466526815,,,,,,,,,,476.79650907097675,None,476.79650907097675,None,j,1,1.112014352253027,None,None,007,001,1,26,m,2021_Nov_08_1616,eye_tracking_exp,2021.2.3,85.92111064486808,
-12,180,270,0,0,-12,180,180,180,0,j,present,resp,freq_top,,,,,0,66,66,640,,,0.9120883059078106,,,,,,,,,,479.4194892193591,None,479.4194892193591,None,j,1,2.4090786720771575,None,None,007,001,1,26,m,2021_Nov_08_1616,eye_tracking_exp,2021.2.3,85.92111064486808,
168,0,270,180,168,180,0,0,180,180,f,present,resp,freq_top,,,,,0,67,67,779,,,0.9081358870853803,,,,,,,,,,484.23301887846173,None,484.23301887846173,None,f,1,1.4196831854824268,None,None,007,001,1,26,m,2021_Nov_08_1616,eye_tracking_exp,2021.2.3,85.92111064486808,
180,180,168,0,180,0,-168,180,0,180,f,abs,resp,freq_top,,,,,0,68,68,375,,,0.9718343304970216,,,,,,,,,,487.52715074787557,None,487.52715074787557,None,f,1,1.613262643419148,None,None,007,001,1,26,m,2021_Nov_08_1616,eye_tracking_exp,2021.2.3,85.92111064486808,
180,-168,180,180,180,168,180,0,180,180,f,abs,resp,freq_top,,,,,0,69,69,369,,,1.0432790081027798,,,,,,,,,,491.22261630116554,None,491.22261630116554,None,None,0,,494.2117117511443,None,007,001,1,26,m,2021_Nov_08_1616,eye_tracking_exp,2021.2.3,85.92111064486808,
168,180,180,12,180,180,180,0,270,0,None,present,inhibit,freq_top,,,,,0,70,70,988,,,1.0990492837453174,,,,,,,,,,495.8362168341082,None,495.8362168341082,None,None,1,,None,None,007,001,1,26,m,2021_Nov_08_1616,eye_tracking_exp,2021.2.3,85.92111064486808,
180,0,168,0,0,0,168,0,0,0,f,abs,resp,freq_top,,,,,0,71,71,261,,,0.8816369422620295,,,,,,,,,,500.3298467911627,None,500.3298467911627,None,f,1,0.9549512217126903,None,None,007,001,1,26,m,2021_Nov_08_1616,eye_tracking_exp,2021.2.3,85.92111064486808,
180,0,-168,0,0,0,0,0,168,0,f,abs,resp,freq_top,,,,,0,72,72,403,,,0.8330317600445862,,,,,,,,,,502.94250918145553,None,502.94250918145553,None,f,1,1.1253792628813244,None,None,007,001,1,26,m,2021_Nov_08_1616,eye_tracking_exp,2021.2.3,85.92111064486808,
180,0,180,12,180,-168,180,180,180,180,None,abs,inhibit,freq_top,,,,,0,73,73,437,,,1.0007890380446236,,,,,,,,,,506.0721153396298,None,506.0721153396298,None,f,0,0.8748538214967994,506.9779563642951,None,007,001,1,26,m,2021_Nov_08_1616,eye_tracking_exp,2021.2.3,85.92111064486808,
270,180,12,180,180,12,180,0,0,180,j,present,resp,freq_top,,,,,0,74,74,554,,,0.9118533916135405,,,,,,,,,,509.06031339639594,None,509.06031339639594,None,j,1,1.0067002933064941,None,None,007,001,1,26,m,2021_Nov_08_1616,eye_tracking_exp,2021.2.3,85.92111064486808,
12,0,0,180,0,180,12,180,180,180,j,abs,resp,freq_top,,,,,0,75,75,67,,,0.9633909799622677,,,,,,,,,,511.28439094227724,None,511.28439094227724,None,j,1,1.7432421871999395,None,None,007,001,1,26,m,2021_Nov_08_1616,eye_tracking_exp,2021.2.3,85.92111064486808,
90,0,180,180,180,168,0,168,0,0,f,present,resp,freq_top,,,,,0,76,76,743,,,1.0549676012091123,,,,,,,,,,514.7087670759029,None,514.7087670759029,None,f,1,1.1983083839113533,None,None,007,001,1,26,m,2021_Nov_08_1616,eye_tracking_exp,2021.2.3,85.92111064486808,
180,0,-168,180,-168,0,180,180,0,180,f,abs,resp,freq_top,,,,,0,77,77,291,,,1.0169775039508608,,,,,,,,,,518.0621302177024,None,518.0621302177024,None,f,1,0.7409780276029778,None,None,007,001,1,26,m,2021_Nov_08_1616,eye_tracking_exp,2021.2.3,85.92111064486808,
0,0,0,0,0,0,168,0,0,168,f,abs,resp,freq_top,,,,,0,78,78,232,,,1.08415271473971,,,,,,,,,,520.5684676610945,None,520.5684676610945,None,f,1,0.9866171584108088,None,None,007,001,1,26,m,2021_Nov_08_1616,eye_tracking_exp,2021.2.3,85.92111064486808,
180,180,-12,180,180,0,0,180,0,12,j,abs,resp,freq_top,,,,,0,79,79,194,,,0.9084434168295256,,,,,,,,,,523.3446213305506,None,523.3446213305506,None,j,1,1.7296092358155875,None,None,007,001,1,26,m,2021_Nov_08_1616,eye_tracking_exp,2021.2.3,85.92111064486808,
-168,0,270,0,0,0,180,180,168,180,f,present,resp,freq_top,,,,,0,80,80,923,,,0.9330514620569684,,,,,,,,,,526.9693262366927,None,526.9693262366927,None,f,1,1.7528723362302117,None,None,007,001,1,26,m,2021_Nov_08_1616,eye_tracking_exp,2021.2.3,85.92111064486808,
0,0,180,-168,180,180,180,-168,0,0,f,abs,resp,freq_top,,,,,0,81,81,311,,,0.9605513145832938,,,,,,,,,,530.2285980170418,None,530.2285980170418,None,f,1,1.2296277994500997,None,None,007,001,1,26,m,2021_Nov_08_1616,eye_tracking_exp,2021.2.3,85.92111064486808,
-168,0,0,180,-168,180,180,0,180,0,f,abs,resp,freq_top,,,,,0,82,82,345,,,0.9750267859799941,,,,,,,,,,532.6405854155055,None,532.6405854155055,None,f,1,1.1856953759015596,None,None,007,001,1,26,m,2021_Nov_08_1616,eye_tracking_exp,2021.2.3,85.92111064486808,
-12,0,0,-12,0,270,0,0,0,0,j,present,resp,freq_top,,,,,0,83,83,580,,,1.0004876407360808,,,,,,,,,,546.6192182204941,None,546.6192182204941,None,j,1,1.9897077770147007,None,None,007,001,1,26,m,2021_Nov_08_1616,eye_tracking_exp,2021.2.3,85.92111064486808,
180,180,0,0,270,180,180,12,0,-12,j,present,resp,freq_top,,,,,0,84,84,672,,,0.7891654422159124,,,,,,,,,,550.1254974072799,None,550.1254974072799,None,j,1,2.0040708979868214,None,None,007,001,1,26,m,2021_Nov_08_1616,eye_tracking_exp,2021.2.3,85.92111064486808,
180,180,0,270,180,180,180,-12,0,12,j,present,resp,freq_top,,,,,0,85,85,686,,,0.7749415570435486,,,,,,,,,,553.7624337859343,None,553.7624337859343,None,j,1,0.8951751142303692,None,None,007,001,1,26,m,2021_Nov_08_1616,eye_tracking_exp,2021.2.3,85.92111064486808,
270,180,12,180,180,180,180,12,180,180,j,present,resp,freq_top,,,,,0,86,86,556,,,0.7920770945888493,,,,,,,,,,556.2782383806007,None,556.2782383806007,None,j,1,1.3383977127159596,None,None,007,001,1,26,m,2021_Nov_08_1616,eye_tracking_exp,2021.2.3,85.92111064486808,
180,12,0,270,180,180,180,180,-12,180,j,present,resp,freq_top,,,,,0,87,87,684,,,0.9119777663939159,,,,,,,,,,559.3621028401176,None,559.3621028401176,None,j,1,1.182536237873137,None,None,007,001,1,26,m,2021_Nov_08_1616,eye_tracking_exp,2021.2.3,85.92111064486808,
180,270,0,180,0,180,-168,180,168,180,f,present,resp,freq_top,,,,,0,88,88,875,,,0.9125463377884084,,,,,,,,,,562.6324328109658,None,562.6324328109658,None,f,1,0.9523013007528789,None,None,007,001,1,26,m,2021_Nov_08_1616,eye_tracking_exp,2021.2.3,85.92111064486808,
0,180,0,180,168,180,12,180,0,180,None,abs,inhibit,freq_top,,,,,0,89,89,427,,,1.043401737298984,,,,,,,,,,565.4091811203944,None,565.4091811203944,None,None,1,,None,None,007,001,1,26,m,2021_Nov_08_1616,eye_tracking_exp,2021.2.3,85.92111064486808,
12,0,270,180,180,0,0,-168,180,0,None,present,inhibit,freq_top,,,,,0,90,90,958,,,1.0305165807801064,,,,,,,,,,570.082695101526,None,570.082695101526,None,None,1,,None,None,007,001,1,26,m,2021_Nov_08_1616,eye_tracking_exp,2021.2.3,85.92111064486808,
0,12,0,270,168,0,0,0,0,0,None,present,inhibit,freq_top,,,,,0,91,91,936,,,0.8293265838546109,,,,,,,,,,574.2360494293753,None,574.2360494293753,None,None,1,,None,None,007,001,1,26,m,2021_Nov_08_1616,eye_tracking_exp,2021.2.3,85.92111064486808,
168,180,180,168,0,0,0,0,0,0,f,abs,resp,freq_top,,,,,0,92,92,274,,,1.0014864566091166,,,,,,,,,,578.7658836033042,None,578.7658836033042,None,None,0,,581.7441638501768,None,007,001,1,26,m,2021_Nov_08_1616,eye_tracking_exp,2021.2.3,85.92111064486808,
90,180,0,12,180,0,0,180,12,180,j,present,resp,freq_top,,,,,0,93,93,542,,,0.9110083970032179,,,,,,,,,,583.2736158849184,None,583.2736158849184,None,j,1,1.1743688427995949,None,None,007,001,1,26,m,2021_Nov_08_1616,eye_tracking_exp,2021.2.3,85.92111064486808,
0,0,0,-168,0,-168,0,0,0,0,f,abs,resp,freq_top,,,,,0,94,94,280,,,0.9549200574211141,,,,,,,,,,586.1331175524756,None,586.1331175524756,None,f,1,1.0179972453370283,None,None,007,001,1,26,m,2021_Nov_08_1616,eye_tracking_exp,2021.2.3,85.92111064486808,
180,180,0,0,0,12,180,180,12,180,j,abs,resp,freq_top,,,,,0,95,95,36,,,0.7374774035855902,,,,,,,,,,588.8635835540117,None,588.8635835540117,None,j,1,0.9115141302463599,None,None,007,001,1,26,m,2021_Nov_08_1616,eye_tracking_exp,2021.2.3,85.92111064486808,
0,270,180,180,168,0,0,0,0,168,f,present,resp,freq_top,,,,,0,96,96,724,,,0.7412086779548521,,,,,,,,,,592.3101925818519,None,592.3101925818519,None,f,1,1.1769997473529656,None,None,007,001,1,26,m,2021_Nov_08_1616,eye_tracking_exp,2021.2.3,85.92111064486808,
0,180,0,180,180,168,180,180,168,180,f,abs,resp,freq_top,,,,,0,97,97,225,,,0.9241271007450788,,,,,,,,,,595.1108312312172,None,595.1108312312172,None,f,1,0.9043769413729024,None,None,007,001,1,26,m,2021_Nov_08_1616,eye_tracking_exp,2021.2.3,85.92111064486808,
90,0,12,0,12,180,180,180,180,180,j,present,resp,freq_top,,,,,0,98,98,515,,,0.7282981988129971,,,,,,,,,,598.217386186061,None,598.217386186061,None,j,1,1.7338843047946284,None,None,007,001,1,26,m,2021_Nov_08_1616,eye_tracking_exp,2021.2.3,85.92111064486808,
180,-168,180,0,180,0,180,180,12,180,None,abs,inhibit,freq_top,,,,,0,99,99,481,,,0.8841382270767302,,,,,,,,,,601.6419295433152,None,601.6419295433152,None,None,1,,None,None,007,001,1,26,m,2021_Nov_08_1616,eye_tracking_exp,2021.2.3,85.92111064486808,
180,0,180,12,180,180,12,180,180,180,j,abs,resp,freq_top,,,,,0,100,100,1,,,0.8997583621187983,,,,,,,,,,606.3963571208442,None,606.3963571208442,None,j,1,1.0260230738422251,None,None,007,001,1,26,m,2021_Nov_08_1616,eye_tracking_exp,2021.2.3,85.92111064486808,
-168,0,90,0,0,0,0,168,180,180,f,present,resp,freq_top,,,,,0,101,101,888,,,0.9856777235531957,,,,,,,,,,609.0910656401029,None,609.0910656401029,None,f,1,1.8513685611760593,None,None,007,001,1,26,m,2021_Nov_08_1616,eye_tracking_exp,2021.2.3,85.92111064486808,
168,0,0,0,90,168,0,0,0,0,f,present,resp,freq_top,,,,,0,102,102,734,,,1.057883233116229,,,,,,,,,,612.1624652988357,None,612.1624652988357,None,f,1,1.1640815713253687,None,None,007,001,1,26,m,2021_Nov_08_1616,eye_tracking_exp,2021.2.3,85.92111064486808,
270,180,180,-168,180,180,180,180,12,180,None,present,inhibit,freq_top,,,,,0,103,103,927,,,0.780603513616318,,,,,,,,,,614.8696700110413,None,614.8696700110413,None,j,0,1.096035742390086,615.999016278347,None,007,001,1,26,m,2021_Nov_08_1616,eye_tracking_exp,2021.2.3,85.92111064486808,
270,180,180,-168,180,0,180,180,-168,180,f,present,resp,freq_top,,,,,0,104,104,787,,,0.7722488184849621,,,,,,,,,,617.8822078589692,None,617.8822078589692,None,f,1,1.3953240760674817,None,None,007,001,1,26,m,2021_Nov_08_1616,eye_tracking_exp,2021.2.3,85.92111064486808,
-168,180,90,180,-168,180,0,180,0,180,f,present,resp,freq_top,,,,,0,105,105,797,,,0.7981931494734876,,,,,,,,,,620.8708571780444,None,620.8708571780444,None,f,1,1.2875777283479692,None,None,007,001,1,26,m,2021_Nov_08_1616,eye_tracking_exp,2021.2.3,85.92111064486808,
0,90,0,12,0,0,168,180,180,0,None,present,inhibit,freq_top,,,,,0,106,106,948,,,1.0358890058481294,,,,,,,,,,623.9182110452748,None,623.9182110452748,None,None,1,,None,None,007,001,1,26,m,2021_Nov_08_1616,eye_tracking_exp,2021.2.3,85.92111064486808,
180,-12,180,0,180,12,180,0,180,0,j,abs,resp,freq_top,,,,,0,107,107,159,,,0.886016452203297,,,,,,,,,,628.1324371877599,None,628.1324371877599,None,j,1,1.145254424711311,None,None,007,001,1,26,m,2021_Nov_08_1616,eye_tracking_exp,2021.2.3,85.92111064486808,
180,180,12,180,180,180,0,-168,180,180,None,abs,inhibit,freq_top,,,,,0,108,108,452,,,1.0518565773721993,,,,,,,,,,631.3904910126366,None,631.3904910126366,None,None,1,,None,None,007,001,1,26,m,2021_Nov_08_1616,eye_tracking_exp,2021.2.3,85.92111064486808,
0,0,0,0,0,12,0,-12,0,0,j,abs,resp,freq_top,,,,,0,109,109,154,,,0.8848651195314847,,,,,,,,,,635.8266769375405,None,635.8266769375405,None,j,1,1.1618397484526213,None,None,007,001,1,26,m,2021_Nov_08_1616,eye_tracking_exp,2021.2.3,85.92111064486808,
180,-168,180,168,180,0,180,0,180,270,f,present,resp,freq_top,,,,,0,110,110,859,,,0.7473977079140931,,,,,,,,,,638.4509206203948,None,638.4509206203948,None,f,1,1.481912107385142,None,None,007,001,1,26,m,2021_Nov_08_1616,eye_tracking_exp,2021.2.3,85.92111064486808,
180,0,180,0,180,180,-168,180,168,180,f,abs,resp,freq_top,,,,,0,111,111,371,,,1.034052509771643,,,,,,,,,,641.6650399087957,None,641.6650399087957,None,f,1,0.8438613070175052,None,None,007,001,1,26,m,2021_Nov_08_1616,eye_tracking_exp,2021.2.3,85.92111064486808,
180,180,-168,0,90,0,0,-168,180,180,f,present,resp,freq_top,,,,,0,112,112,816,,,0.9319471575306979,,,,,,,,,,644.0279489841196,None,644.0279489841196,None,f,1,1.5538348681802745,None,None,007,001,1,26,m,2021_Nov_08_1616,eye_tracking_exp,2021.2.3,85.92111064486808,
0,0,168,0,0,0,0,0,-168,0,f,abs,resp,freq_top,,,,,0,113,113,389,,,0.8829985225814109,,,,,,,,,,647.1948182408996,None,647.1948182408996,None,f,1,1.3140917284981697,None,None,007,001,1,26,m,2021_Nov_08_1616,eye_tracking_exp,2021.2.3,85.92111064486808,
-168,180,180,168,180,180,180,180,0,0,f,abs,resp,freq_top,,,,,0,114,114,414,,,1.0874986779871736,,,,,,,,,,650.2547383297388,None,650.2547383297388,None,f,1,0.9092484614084242,None,None,007,001,1,26,m,2021_Nov_08_1616,eye_tracking_exp,2021.2.3,85.92111064486808,
180,0,180,168,180,168,180,0,180,180,f,abs,resp,freq_top,,,,,0,115,115,227,,,0.8532807369941827,,,,,,,,,,652.1239284029361,None,652.1239284029361,None,f,1,0.8964202359929914,None,None,007,001,1,26,m,2021_Nov_08_1616,eye_tracking_exp,2021.2.3,85.92111064486808,
0,-168,0,0,-168,0,0,270,0,0,f,present,resp,freq_top,,,,,0,116,116,796,,,0.877096242812251,,,,,,,,,,654.2198003639678,None,654.2198003639678,None,f,1,1.4882907529899967,None,None,007,001,1,26,m,2021_Nov_08_1616,eye_tracking_exp,2021.2.3,85.92111064486808,
0,12,0,12,180,90,180,180,0,0,j,present,resp,freq_top,,,,,0,117,117,560,,,0.9772702455658651,,,,,,,,,,657.4542113640236,None,657.4542113640236,None,j,1,1.2778588360924914,None,None,007,001,1,26,m,2021_Nov_08_1616,eye_tracking_exp,2021.2.3,85.92111064486808,
0,168,0,0,168,180,180,270,0,0,f,present,resp,freq_top,,,,,0,118,118,726,,,1.0427777444492121,,,,,,,,,,660.6210963168851,None,660.6210963168851,None,f,1,1.0870141183222586,None,None,007,001,1,26,m,2021_Nov_08_1616,eye_tracking_exp,2021.2.3,85.92111064486808,
270,0,168,0,168,0,180,180,180,180,f,present,resp,freq_top,,,,,0,119,119,763,,,0.9033643452265235,,,,,,,,,,663.4452178117936,None,663.4452178117936,None,f,1,1.1419742457510438,None,None,007,001,1,26,m,2021_Nov_08_1616,eye_tracking_exp,2021.2.3,85.92111064486808,
180,12,0,0,270,180,-12,0,180,180,j,present,resp,freq_top,,,,,0,120,120,703,,,1.0236733148522372,,,,,,,,,,666.6450883795005,None,666.6450883795005,None,j,1,1.4300945163631695,None,None,007,001,1,26,m,2021_Nov_08_1616,eye_tracking_exp,2021.2.3,85.92111064486808,
270,180,0,12,0,180,0,180,168,180,None,present,inhibit,freq_top,,,,,0,121,121,962,,,0.8089857702801679,,,,,,,,,,669.6942454848868,None,669.6942454848868,None,None,1,,None,None,007,001,1,26,m,2021_Nov_08_1616,eye_tracking_exp,2021.2.3,85.92111064486808,
-168,0,90,0,180,180,180,-168,180,180,f,present,resp,freq_top,,,,,0,122,122,818,,,0.9156556981101134,,,,,,,,,,673.7412172129261,None,673.7412172129261,None,f,1,1.8541051124229853,None,None,007,001,1,26,m,2021_Nov_08_1616,eye_tracking_exp,2021.2.3,85.92111064486808,
-12,180,180,12,0,0,180,180,180,180,j,abs,resp,freq_top,,,,,0,123,123,204,,,0.8081824768046986,,,,,,,,,,677.4938705296736,None,677.4938705296736,None,j,1,0.9494397845555795,None,None,007,001,1,26,m,2021_Nov_08_1616,eye_tracking_exp,2021.2.3,85.92111064486808,
-168,0,90,180,180,0,-168,180,180,180,f,present,resp,freq_top,,,,,0,124,124,811,,,0.9426211728700482,,,,,,,,,,680.3306186157351,None,680.3306186157351,None,f,1,0.9604433406238968,None,None,007,001,1,26,m,2021_Nov_08_1616,eye_tracking_exp,2021.2.3,85.92111064486808,
-168,0,-168,180,90,0,180,0,180,180,f,present,resp,freq_top,,,,,0,125,125,847,,,0.8376253193491157,,,,,,,,,,696.7305447837862,None,696.7305447837862,None,f,1,1.7431226555127068,None,None,007,001,1,26,m,2021_Nov_08_1616,eye_tracking_exp,2021.2.3,85.92111064486808,
180,180,270,0,0,0,0,12,0,12,j,present,resp,freq_top,,,,,0,126,126,532,,,0.7539648249347575,,,,,,,,,,699.9193942882594,None,699.9193942882594,None,j,1,1.2103216205359786,None,None,007,001,1,26,m,2021_Nov_08_1616,eye_tracking_exp,2021.2.3,85.92111064486808,
0,12,180,180,180,180,0,180,0,12,j,abs,resp,freq_top,,,,,0,127,127,48,,,0.7783341909631031,,,,,,,,,,702.8847098745573,None,702.8847098745573,None,j,1,0.9330032717298309,None,None,007,001,1,26,m,2021_Nov_08_1616,eye_tracking_exp,2021.2.3,85.92111064486808,
0,0,180,0,180,-12,0,12,0,0,j,abs,resp,freq_top,,,,,0,128,128,169,,,1.0933384008825786,,,,,,,,,,705.9320519697249,None,705.9320519697249,None,f,0,2.4777312148871715,708.4294821893272,None,007,001,1,26,m,2021_Nov_08_1616,eye_tracking_exp,2021.2.3,85.92111064486808,
0,168,0,0,0,0,0,0,0,168,f,abs,resp,freq_top,,,,,0,129,129,272,,,0.7120016739101706,,,,,,,,,,710.558459598742,None,710.558459598742,None,f,1,0.9704782674198213,None,None,007,001,1,26,m,2021_Nov_08_1616,eye_tracking_exp,2021.2.3,85.92111064486808,
270,0,-168,0,0,0,-168,180,180,0,f,present,resp,freq_top,,,,,0,130,130,835,,,1.0973754551748676,,,,,,,,,,713.3587182218544,None,713.3587182218544,None,f,1,1.0182015962309379,None,None,007,001,1,26,m,2021_Nov_08_1616,eye_tracking_exp,2021.2.3,85.92111064486808,
180,12,180,-168,180,180,0,180,180,180,None,abs,inhibit,freq_top,,,,,0,131,131,425,,,0.9900356907343315,,,,,,,,,,715.6525222846612,None,715.6525222846612,None,None,1,,None,None,007,001,1,26,m,2021_Nov_08_1616,eye_tracking_exp,2021.2.3,85.92111064486808,
168,0,180,0,180,180,180,0,12,180,None,abs,inhibit,freq_top,,,,,0,132,132,489,,,1.0011368149907343,,,,,,,,,,720.1478942047979,None,720.1478942047979,None,None,1,,None,None,007,001,1,26,m,2021_Nov_08_1616,eye_tracking_exp,2021.2.3,85.92111064486808,
-12,0,180,0,0,0,0,0,-12,0,j,abs,resp,freq_top,,,,,0,133,133,111,,,0.9004224627475004,,,,,,,,,,724.8319526316445,None,724.8319526316445,None,j,1,1.4322596699166752,None,None,007,001,1,26,m,2021_Nov_08_1616,eye_tracking_exp,2021.2.3,85.92111064486808,
180,-168,180,90,12,0,0,0,0,180,None,present,inhibit,freq_top,,,,,0,134,134,981,,,1.0601084991063743,,,,,,,,,,728.2566435924236,None,728.2566435924236,None,None,1,,None,None,007,001,1,26,m,2021_Nov_08_1616,eye_tracking_exp,2021.2.3,85.92111064486808,
270,0,-168,0,-168,0,180,180,180,0,f,present,resp,freq_top,,,,,0,135,135,833,,,0.7769675392781527,,,,,,,,,,733.0932507156067,None,733.0932507156067,None,f,1,1.4429825076258567,None,None,007,001,1,26,m,2021_Nov_08_1616,eye_tracking_exp,2021.2.3,85.92111064486808,
180,180,168,180,0,0,180,0,0,168,f,abs,resp,freq_top,,,,,0,136,136,264,,,1.0404849741575137,,,,,,,,,,737.0239537279558,None,737.0239537279558,None,f,1,1.032238117993984,None,None,007,001,1,26,m,2021_Nov_08_1616,eye_tracking_exp,2021.2.3,85.92111064486808,
-12,0,0,0,0,0,0,0,-12,180,j,abs,resp,freq_top,,,,,0,137,137,139,,,0.9336433552044836,,,,,,,,,,739.1993408249946,None,739.1993408249946,None,j,1,1.049618810422544,None,None,007,001,1,26,m,2021_Nov_08_1616,eye_tracking_exp,2021.2.3,85.92111064486808,
-12,180,180,0,0,-12,0,0,0,0,j,abs,resp,freq_top,,,,,0,138,138,136,,,0.7485133968140171,,,,,,,,,,741.7077489436087,None,741.7077489436087,None,j,1,1.4035762903477007,None,None,007,001,1,26,m,2021_Nov_08_1616,eye_tracking_exp,2021.2.3,85.92111064486808,
0,12,180,180,180,0,180,-168,0,0,None,abs,inhibit,freq_top,,,,,0,139,139,453,,,0.963623125416118,,,,,,,,,,744.9086376436098,None,744.9086376436098,None,None,1,,None,None,007,001,1,26,m,2021_Nov_08_1616,eye_tracking_exp,2021.2.3,85.92111064486808,
0,0,-168,0,0,0,168,0,0,0,f,abs,resp,freq_top,,,,,0,140,140,401,,,0.8859001744900026,,,,,,,,,,749.1431041836404,None,749.1431041836404,None,f,1,1.4082751534951967,None,None,007,001,1,26,m,2021_Nov_08_1616,eye_tracking_exp,2021.2.3,85.92111064486808,
180,0,180,168,180,0,180,180,168,180,f,abs,resp,freq_top,,,,,0,141,141,213,,,1.0487211292129133,,,,,,,,,,752.3316738752947,None,752.3316738752947,None,f,1,0.9890141310024774,None,None,007,001,1,26,m,2021_Nov_08_1616,eye_tracking_exp,2021.2.3,85.92111064486808,
-168,0,90,180,180,168,0,0,0,0,f,present,resp,freq_top,,,,,0,142,142,874,,,0.7573255387053348,,,,,,,,,,754.8387475252275,None,754.8387475252275,None,f,1,1.9038414635506342,None,None,007,001,1,26,m,2021_Nov_08_1616,eye_tracking_exp,2021.2.3,85.92111064486808,
180,0,0,180,0,168,180,180,-168,180,f,abs,resp,freq_top,,,,,0,143,143,386,,,0.8725524819602725,,,,,,,,,,758.4175610162492,None,758.4175610162492,None,f,1,1.8769782256094913,None,None,007,001,1,26,m,2021_Nov_08_1616,eye_tracking_exp,2021.2.3,85.92111064486808,
-12,180,270,0,-12,180,0,180,0,180,j,present,resp,freq_top,,,,,0,144,144,587,,,0.7488579305560945,,,,,,,,,,761.6872667660573,None,761.6872667660573,None,j,1,1.183308062441938,None,None,007,001,1,26,m,2021_Nov_08_1616,eye_tracking_exp,2021.2.3,85.92111064486808,
0,-12,0,-12,0,0,180,0,0,0,j,abs,resp,freq_top,,,,,0,145,145,126,,,0.977243454714949,,,,,,,,,,764.6899160833236,None,764.6899160833236,None,j,1,0.9966892124757578,None,None,007,001,1,26,m,2021_Nov_08_1616,eye_tracking_exp,2021.2.3,85.92111064486808,
180,180,12,180,180,180,12,180,0,180,j,abs,resp,freq_top,,,,,0,146,146,25,,,1.012383351775632,,,,,,,,,,767.7239421671911,None,767.7239421671911,None,j,1,0.7158214365590538,None,None,007,001,1,26,m,2021_Nov_08_1616,eye_tracking_exp,2021.2.3,85.92111064486808,
168,0,168,180,0,0,180,180,0,180,f,abs,resp,freq_top,,,,,0,147,147,273,,,0.9320145130021809,,,,,,,,,,770.8898246838398,None,770.8898246838398,None,f,1,1.2768850754109735,None,None,007,001,1,26,m,2021_Nov_08_1616,eye_tracking_exp,2021.2.3,85.92111064486808,
180,0,180,180,168,180,-168,180,180,180,f,abs,resp,freq_top,,,,,0,148,148,373,,,0.7579479454848383,,,,,,,,,,773.9139223931452,None,773.9139223931452,None,f,1,1.2598403394695197,None,None,007,001,1,26,m,2021_Nov_08_1616,eye_tracking_exp,2021.2.3,85.92111064486808,
180,0,180,-168,180,0,180,180,-12,0,None,abs,inhibit,freq_top,,,,,0,149,149,493,,,0.8362172430258096,,,,,,,,,,777.4559370273273,None,777.4559370273273,None,None,1,,None,None,007,001,1,26,m,2021_Nov_08_1616,eye_tracking_exp,2021.2.3,85.92111064486808,
180,270,0,180,180,180,180,12,0,-168,None,present,inhibit,freq_top,,,,,0,150,150,966,,,0.9462625944963269,,,,,,,,,,781.9966120614117,None,781.9966120614117,None,None,1,,None,None,007,001,1,26,m,2021_Nov_08_1616,eye_tracking_exp,2021.2.3,85.92111064486808,
0,168,0,180,0,180,180,168,0,0,f,abs,resp,freq_top,,,,,0,151,151,243,,,1.0999975151602803,,,,,,,,,,786.3628484039364,None,786.3628484039364,None,f,1,2.29821725608781,None,None,007,001,1,26,m,2021_Nov_08_1616,eye_tracking_exp,2021.2.3,85.92111064486808,
0,0,180,180,180,12,0,0,0,-12,j,abs,resp,freq_top,,,,,0,152,152,156,,,0.881055720507216,,,,,,,,,,790.6346293566821,None,790.6346293566821,None,j,1,1.4505299075244693,None,None,007,001,1,26,m,2021_Nov_08_1616,eye_tracking_exp,2021.2.3,85.92111064486808,
0,0,0,0,-12,180,180,180,180,-12,j,abs,resp,freq_top,,,,,0,153,153,80,,,0.8773690241609007,,,,,,,,,,794.5182073023607,None,794.5182073023607,None,j,1,0.9438335672130052,None,None,007,001,1,26,m,2021_Nov_08_1616,eye_tracking_exp,2021.2.3,85.92111064486808,
0,180,-168,0,180,168,0,180,0,180,f,abs,resp,freq_top,,,,,0,154,154,400,,,1.019262865266626,,,,,,,,,,797.6729498277818,None,797.6729498277818,None,f,1,1.0200712408877735,None,None,007,001,1,26,m,2021_Nov_08_1616,eye_tracking_exp,2021.2.3,85.92111064486808,
0,270,180,180,0,0,-168,0,-168,0,f,present,resp,freq_top,,,,,0,155,155,819,,,1.0010012842298226,,,,,,,,,,800.8017038698999,None,800.8017038698999,None,f,1,1.106644179817522,None,None,007,001,1,26,m,2021_Nov_08_1616,eye_tracking_exp,2021.2.3,85.92111064486808,
-168,180,180,-168,180,180,180,180,90,0,f,present,resp,freq_top,,,,,0,156,156,848,,,0.8268220036071747,,,,,,,,,,803.6133077406739,None,803.6133077406739,None,f,1,1.142914803185704,None,None,007,001,1,26,m,2021_Nov_08_1616,eye_tracking_exp,2021.2.3,85.92111064486808,
0,0,0,0,0,0,-12,0,0,-12,j,abs,resp,freq_top,,,,,0,157,157,92,,,0.7159713841782933,,,,,,,,,,806.3549680660253,None,806.3549680660253,None,j,1,0.7852331263347878,None,None,007,001,1,26,m,2021_Nov_08_1616,eye_tracking_exp,2021.2.3,85.92111064486808,
0,168,0,270,0,-168,180,180,0,0,f,present,resp,freq_top,,,,,0,158,158,912,,,1.0867610003248536,,,,,,,,,,809.2377443042096,None,809.2377443042096,None,f,1,2.0960212537029292,None,None,007,001,1,26,m,2021_Nov_08_1616,eye_tracking_exp,2021.2.3,85.92111064486808,
0,168,0,180,180,180,0,-168,0,0,f,abs,resp,freq_top,,,,,0,159,159,410,,,0.8765243544513881,,,,,,,,,,812.9448946838311,None,812.9448946838311,None,f,1,1.1234398914093617,None,None,007,001,1,26,m,2021_Nov_08_1616,eye_tracking_exp,2021.2.3,85.92111064486808,
168,180,90,180,-168,180,180,180,180,180,f,present,resp,freq_top,,,,,0,160,160,867,,,0.7803915670843509,,,,,,,,,,815.7455918916494,None,815.7455918916494,None,f,1,1.7788040721679863,None,None,007,001,1,26,m,2021_Nov_08_1616,eye_tracking_exp,2021.2.3,85.92111064486808,
0,0,0,168,0,-168,0,0,0,0,f,abs,resp,freq_top,,,,,0,161,161,350,,,0.9778594615655574,,,,,,,,,,819.6404797688119,None,819.6404797688119,None,f,1,1.2749469113296072,None,None,007,001,1,26,m,2021_Nov_08_1616,eye_tracking_exp,2021.2.3,85.92111064486808,
0,180,168,0,180,0,180,12,180,180,None,abs,inhibit,freq_top,,,,,0,162,162,472,,,0.8998181004470255,,,,,,,,,,822.8186764642414,None,822.8186764642414,None,None,1,,None,None,007,001,1,26,m,2021_Nov_08_1616,eye_tracking_exp,2021.2.3,85.92111064486808,
270,0,0,12,0,0,-12,0,0,0,j,present,resp,freq_top,,,,,0,163,163,668,,,1.038343044368735,,,,,,,,,,827.854918110228,None,827.854918110228,None,j,1,1.4926436986715999,None,None,007,001,1,26,m,2021_Nov_08_1616,eye_tracking_exp,2021.2.3,85.92111064486808,
270,0,-12,0,180,180,180,180,-12,0,j,present,resp,freq_top,,,,,0,164,164,613,,,0.8092184648417307,,,,,,,,,,831.1609946968383,None,831.1609946968383,None,j,1,1.1946068255638238,None,None,007,001,1,26,m,2021_Nov_08_1616,eye_tracking_exp,2021.2.3,85.92111064486808,
0,-168,0,90,0,12,180,0,0,0,None,present,inhibit,freq_top,,,,,0,165,165,982,,,1.019311068113565,,,,,,,,,,834.3615670604486,None,834.3615670604486,None,None,1,,None,None,007,001,1,26,m,2021_Nov_08_1616,eye_tracking_exp,2021.2.3,85.92111064486808,
0,90,180,180,12,0,0,0,168,0,None,present,inhibit,freq_top,,,,,0,166,166,961,,,0.8837932542800587,,,,,,,,,,838.550726864356,None,838.550726864356,None,None,1,,None,None,007,001,1,26,m,2021_Nov_08_1616,eye_tracking_exp,2021.2.3,85.92111064486808,
168,0,180,0,180,0,168,180,180,180,f,abs,resp,freq_top,,,,,0,167,167,237,,,0.7886482820052153,,,,,,,,,,849.069580724492,None,849.069580724492,None,f,1,1.6044366166606778,None,None,007,001,1,26,m,2021_Nov_08_1616,eye_tracking_exp,2021.2.3,85.92111064486808,
0,0,0,0,0,168,0,0,0,-168,f,abs,resp,freq_top,,,,,0,168,168,366,,,0.998327216126323,,,,,,,,,,851.7889909503065,None,851.7889909503065,None,f,1,1.3808537991608318,None,None,007,001,1,26,m,2021_Nov_08_1616,eye_tracking_exp,2021.2.3,85.92111064486808,
180,12,180,180,12,0,0,0,180,180,j,abs,resp,freq_top,,,,,0,169,169,57,,,1.0485316881666034,,,,,,,,,,855.3426656593001,None,855.3426656593001,None,j,1,0.7392605141867534,None,None,007,001,1,26,m,2021_Nov_08_1616,eye_tracking_exp,2021.2.3,85.92111064486808,
0,-12,0,0,0,-12,180,0,0,0,j,abs,resp,freq_top,,,,,0,170,170,128,,,0.8394881379852769,,,,,,,,,,857.9558650366489,None,857.9558650366489,None,j,1,1.1978323700895999,None,None,007,001,1,26,m,2021_Nov_08_1616,eye_tracking_exp,2021.2.3,85.92111064486808,
0,168,0,168,0,180,0,180,90,0,f,present,resp,freq_top,,,,,0,171,171,770,,,0.902475796726346,,,,,,,,,,861.5679807807537,None,861.5679807807537,None,f,1,0.8980127844588424,None,None,007,001,1,26,m,2021_Nov_08_1616,eye_tracking_exp,2021.2.3,85.92111064486808,
0,0,0,-168,0,0,0,-12,0,0,None,abs,inhibit,freq_top,,,,,0,172,172,492,,,0.8704350512675284,,,,,,,,,,864.4034544658243,None,864.4034544658243,None,None,1,,None,None,007,001,1,26,m,2021_Nov_08_1616,eye_tracking_exp,2021.2.3,85.92111064486808,
180,90,0,180,180,180,180,-168,0,12,None,present,inhibit,freq_top,,,,,0,173,173,952,,,0.9755716698438179,,,,,,,,,,869.4520277977608,None,869.4520277977608,None,None,1,,None,None,007,001,1,26,m,2021_Nov_08_1616,eye_tracking_exp,2021.2.3,85.92111064486808,
0,0,180,180,-168,0,0,0,180,168,f,abs,resp,freq_top,,,,,0,174,174,395,,,0.7511373384685517,,,,,,,,,,874.5127990971159,None,874.5127990971159,None,f,1,1.200840282421268,None,None,007,001,1,26,m,2021_Nov_08_1616,eye_tracking_exp,2021.2.3,85.92111064486808,
0,180,-12,180,0,-12,180,0,180,0,j,abs,resp,freq_top,,,,,0,175,175,120,,,0.8104730096860729,,,,,,,,,,877.326638753806,None,877.326638753806,None,j,1,1.0108422474477265,None,None,007,001,1,26,m,2021_Nov_08_1616,eye_tracking_exp,2021.2.3,85.92111064486808,
180,270,0,0,0,0,0,168,0,168,f,present,resp,freq_top,,,,,0,176,176,742,,,0.7247216059959077,,,,,,,,,,880.2310435871113,None,880.2310435871113,None,f,1,1.8013379085386987,None,None,007,001,1,26,m,2021_Nov_08_1616,eye_tracking_exp,2021.2.3,85.92111064486808,
90,180,0,180,180,168,180,0,-168,180,f,present,resp,freq_top,,,,,0,177,177,890,,,1.0291388543093563,,,,,,,,,,884.1615992977822,None,884.1615992977822,None,f,1,1.0387963629800652,None,None,007,001,1,26,m,2021_Nov_08_1616,eye_tracking_exp,2021.2.3,85.92111064486808,
90,0,168,0,12,0,0,180,180,180,None,present,inhibit,freq_top,,,,,0,178,178,973,,,1.0865099063922592,,,,,,,,,,887.456657839637,None,887.456657839637,None,None,1,,None,None,007,001,1,26,m,2021_Nov_08_1616,eye_tracking_exp,2021.2.3,85.92111064486808,
-12,0,0,180,-12,180,180,0,180,180,j,abs,resp,freq_top,,,,,0,179,179,135,,,1.049618704958992,,,,,,,,,,892.257496312177,None,892.257496312177,None,j,1,1.0704743735841475,None,None,007,001,1,26,m,2021_Nov_08_1616,eye_tracking_exp,2021.2.3,85.92111064486808,
0,180,-12,0,270,-12,180,0,180,0,j,present,resp,freq_top,,,,,0,180,180,624,,,0.8312379256268321,,,,,,,,,,895.1758890697638,None,895.1758890697638,None,j,1,1.5123416759015527,None,None,007,001,1,26,m,2021_Nov_08_1616,eye_tracking_exp,2021.2.3,85.92111064486808,
90,0,180,0,0,180,168,0,180,168,f,present,resp,freq_top,,,,,0,181,181,757,,,0.8656921286952584,,,,,,,,,,898.3412285623999,None,898.3412285623999,None,f,1,1.2423189860091952,None,None,007,001,1,26,m,2021_Nov_08_1616,eye_tracking_exp,2021.2.3,85.92111064486808,
180,180,0,0,168,0,0,168,180,180,f,abs,resp,freq_top,,,,,0,182,182,240,,,0.9020506170092286,,,,,,,,,,901.424472121198,None,901.424472121198,None,f,1,0.9751448328643164,None,None,007,001,1,26,m,2021_Nov_08_1616,eye_tracking_exp,2021.2.3,85.92111064486808,
180,-168,0,180,0,180,0,180,-168,180,f,abs,resp,freq_top,,,,,0,183,183,320,,,0.9695683530566337,,,,,,,,,,904.3542007691685,None,904.3542007691685,None,f,1,0.7664506531837105,None,None,007,001,1,26,m,2021_Nov_08_1616,eye_tracking_exp,2021.2.3,85.92111064486808,
0,0,0,0,270,-168,0,0,0,-168,f,present,resp,freq_top,,,,,0,184,184,800,,,0.9522884385853347,,,,,,,,,,907.2959948734206,None,907.2959948734206,None,f,1,1.2316399162191374,None,None,007,001,1,26,m,2021_Nov_08_1616,eye_tracking_exp,2021.2.3,85.92111064486808,
0,0,90,0,0,0,12,0,180,12,j,present,resp,freq_top,,,,,0,185,185,547,,,0.726729139741191,,,,,,,,,,910.0612919866398,None,910.0612919866398,None,j,1,0.8508004838040506,None,None,007,001,1,26,m,2021_Nov_08_1616,eye_tracking_exp,2021.2.3,85.92111064486808,
0,270,180,180,180,0,-12,0,-12,0,j,present,resp,freq_top,,,,,0,186,186,609,,,0.8543964215790845,,,,,,,,,,912.8148420929065,None,912.8148420929065,None,j,1,1.0722087904687214,None,None,007,001,1,26,m,2021_Nov_08_1616,eye_tracking_exp,2021.2.3,85.92111064486808,
180,12,180,270,180,0,180,0,0,-168,None,present,inhibit,freq_top,,,,,0,187,187,972,,,0.7678907367375121,,,,,,,,,,916.0519721370438,None,916.0519721370438,None,None,1,,None,None,007,001,1,26,m,2021_Nov_08_1616,eye_tracking_exp,2021.2.3,85.92111064486808,
270,180,-12,180,0,180,0,180,0,12,j,present,resp,freq_top,,,,,0,188,188,698,,,0.7218738136637999,,,,,,,,,,920.1344505119196,None,920.1344505119196,None,j,1,2.2004512007333688,None,None,007,001,1,26,m,2021_Nov_08_1616,eye_tracking_exp,2021.2.3,85.92111064486808,
0,0,-168,0,-168,0,0,0,0,0,f,abs,resp,freq_top,,,,,0,189,189,329,,,0.9077218960763055,,,,,,,,,,924.4531826670609,None,924.4531826670609,None,f,1,1.7698017663533392,None,None,007,001,1,26,m,2021_Nov_08_1616,eye_tracking_exp,2021.2.3,85.92111064486808,
0,12,0,0,0,180,180,180,0,12,j,abs,resp,freq_top,,,,,0,190,190,62,,,0.9102160948063658,,,,,,,,,,928.6900386334892,None,928.6900386334892,None,j,1,1.0679578693052463,None,None,007,001,1,26,m,2021_Nov_08_1616,eye_tracking_exp,2021.2.3,85.92111064486808,
0,0,0,-168,0,12,0,0,0,0,None,abs,inhibit,freq_top,,,,,0,191,191,420,,,0.9131584546647383,,,,,,,,,,931.0072561168708,None,931.0072561168708,None,None,1,,None,None,007,001,1,26,m,2021_Nov_08_1616,eye_tracking_exp,2021.2.3,85.92111064486808,
180,180,-168,0,0,90,0,168,180,180,f,present,resp,freq_top,,,,,0,192,192,886,,,1.0505081137066634,,,,,,,,,,936.0201290157456,None,936.0201290157456,None,f,1,2.361959340509202,None,None,007,001,1,26,m,2021_Nov_08_1616,eye_tracking_exp,2021.2.3,85.92111064486808,
0,0,12,0,180,180,180,0,12,0,j,abs,resp,freq_top,,,,,0,193,193,39,,,1.0041027514890208,,,,,,,,,,939.4463750958748,None,939.4463750958748,None,j,1,1.351816654085269,None,None,007,001,1,26,m,2021_Nov_08_1616,eye_tracking_exp,2021.2.3,85.92111064486808,
0,90,0,0,-168,0,180,180,180,168,f,present,resp,freq_top,,,,,0,194,194,864,,,0.9467674909605448,,,,,,,,,,942.5987532482613,None,942.5987532482613,None,f,1,1.3344905960875622,None,None,007,001,1,26,m,2021_Nov_08_1616,eye_tracking_exp,2021.2.3,85.92111064486808,
12,0,168,0,0,0,0,0,180,180,None,abs,inhibit,freq_top,,,,,0,195,195,475,,,0.988589286916266,,,,,,,,,,945.8589079331323,None,945.8589079331323,None,None,1,,None,None,007,001,1,26,m,2021_Nov_08_1616,eye_tracking_exp,2021.2.3,85.92111064486808,
0,180,0,12,0,12,0,180,180,180,j,abs,resp,freq_top,,,,,0,196,196,0,,,0.88000117345017,,,,,,,,,,950.776302782222,None,950.776302782222,None,j,1,2.2449945640255464,None,None,007,001,1,26,m,2021_Nov_08_1616,eye_tracking_exp,2021.2.3,85.92111064486808,
90,0,0,12,0,180,180,180,0,12,j,present,resp,freq_top,,,,,0,197,197,508,,,0.7696188280709059,,,,,,,,,,954.8946611895408,None,954.8946611895408,None,j,1,2.3838988387615245,None,None,007,001,1,26,m,2021_Nov_08_1616,eye_tracking_exp,2021.2.3,85.92111064486808,
0,0,180,0,180,-168,0,168,0,0,f,abs,resp,freq_top,,,,,0,198,198,379,,,1.0550297730335267,,,,,,,,,,960.5676810459881,None,960.5676810459881,None,None,0,,963.5559889753167,None,007,001,1,26,m,2021_Nov_08_1616,eye_tracking_exp,2021.2.3,85.92111064486808,
180,180,180,0,0,0,-168,0,0,168,f,abs,resp,freq_top,,,,,0,199,199,372,,,0.9072308843279103,,,,,,,,,,964.9913128231856,None,964.9913128231856,None,f,1,0.9572953709575813,None,None,007,001,1,26,m,2021_Nov_08_1616,eye_tracking_exp,2021.2.3,85.92111064486808,
180,180,-168,180,0,180,0,0,0,168,f,abs,resp,freq_top,,,,,0,200,200,404,,,0.997619164086113,,,,,,,,,,967.2411479388793,None,967.2411479388793,None,f,1,0.9473989922516921,None,None,007,001,1,26,m,2021_Nov_08_1616,eye_tracking_exp,2021.2.3,85.92111064486808,
0,12,0,0,180,180,180,12,0,0,j,abs,resp,freq_top,,,,,0,201,201,60,,,0.8347218198513519,,,,,,,,,,969.7219535945405,None,969.7219535945405,None,j,1,0.8186971697869012,None,None,007,001,1,26,m,2021_Nov_08_1616,eye_tracking_exp,2021.2.3,85.92111064486808,
0,0,0,180,180,0,-168,0,-168,0,f,abs,resp,freq_top,,,,,0,202,202,315,,,0.753209201154164,,,,,,,,,,971.4760361601475,None,971.4760361601475,None,None,0,,974.4646193745793,None,007,001,1,26,m,2021_Nov_08_1616,eye_tracking_exp,2021.2.3,85.92111064486808,
0,0,180,0,180,168,0,168,0,0,f,abs,resp,freq_top,,,,,0,203,203,239,,,0.7246012985404339,,,,,,,,,,975.723482754991,None,975.723482754991,None,f,1,1.232193806747091,None,None,007,001,1,26,m,2021_Nov_08_1616,eye_tracking_exp,2021.2.3,85.92111064486808,
180,180,180,270,180,180,168,180,168,180,f,present,resp,freq_top,,,,,0,204,204,735,,,0.9630266311756368,,,,,,,,,,978.465989159442,None,978.465989159442,None,f,1,1.1456848595298652,None,None,007,001,1,26,m,2021_Nov_08_1616,eye_tracking_exp,2021.2.3,85.92111064486808,
0,0,180,0,0,0,-12,0,180,-12,j,abs,resp,freq_top,,,,,0,205,205,113,,,0.8705389873425321,,,,,,,,,,980.9476354609506,None,980.9476354609506,None,j,1,0.9361458081330056,None,None,007,001,1,26,m,2021_Nov_08_1616,eye_tracking_exp,2021.2.3,85.92111064486808,
12,180,180,12,0,0,180,180,180,90,j,present,resp,freq_top,,,,,0,206,206,568,,,0.7839231646962874,,,,,,,,,,983.5009343695565,None,983.5009343695565,None,j,1,1.6308591569577402,None,None,007,001,1,26,m,2021_Nov_08_1616,eye_tracking_exp,2021.2.3,85.92111064486808,
0,-168,0,0,0,12,0,180,0,0,None,abs,inhibit,freq_top,,,,,0,207,207,478,,,0.877445648273687,,,,,,,,,,986.6539533446085,None,986.6539533446085,None,None,1,,None,None,007,001,1,26,m,2021_Nov_08_1616,eye_tracking_exp,2021.2.3,85.92111064486808,
0,90,0,-168,0,0,180,180,180,-168,f,present,resp,freq_top,,,,,0,208,208,788,,,0.9106889040989415,,,,,,,,,,990.6792705186272,None,990.6792705186272,None,f,1,1.1396808069221152,None,None,007,001,1,26,m,2021_Nov_08_1616,eye_tracking_exp,2021.2.3,85.92111064486808,
180,-12,180,0,180,0,180,180,-12,180,j,abs,resp,freq_top,,,,,0,209,209,131,,,0.9252052625101025,,,,,,,,,,1002.480435288533,None,1002.480435288533,None,j,1,1.0986129180564603,None,None,007,001,1,26,m,2021_Nov_08_1616,eye_tracking_exp,2021.2.3,85.92111064486808,
-168,0,270,180,180,180,168,180,0,180,f,present,resp,freq_top,,,,,0,210,210,921,,,1.026338456871504,,,,,,,,,,1005.7761989466126,None,1005.7761989466126,None,f,1,1.0341077626471815,None,None,007,001,1,26,m,2021_Nov_08_1616,eye_tracking_exp,2021.2.3,85.92111064486808,
180,0,168,0,270,180,180,180,168,0,f,present,resp,freq_top,,,,,0,211,211,767,,,0.9774031209459633,,,,,,,,,,1008.4575836065305,None,1008.4575836065305,None,f,1,1.9525581731468264,None,None,007,001,1,26,m,2021_Nov_08_1616,eye_tracking_exp,2021.2.3,85.92111064486808,
0,270,180,180,180,168,0,-168,0,0,f,present,resp,freq_top,,,,,0,212,212,868,,,0.803702898672985,,,,,,,,,,1012.2246075904441,None,1012.2246075904441,None,f,1,1.2895596603484591,None,None,007,001,1,26,m,2021_Nov_08_1616,eye_tracking_exp,2021.2.3,85.92111064486808,
0,0,180,90,180,-12,0,12,0,0,j,present,resp,freq_top,,,,,0,213,213,673,,,0.7921708391609279,,,,,,,,,,1015.918321219684,None,1015.918321219684,None,j,1,2.780009651884029,None,None,007,001,1,26,m,2021_Nov_08_1616,eye_tracking_exp,2021.2.3,85.92111064486808,
180,0,-168,0,0,0,-168,0,0,0,f,abs,resp,freq_top,,,,,0,214,214,331,,,1.0693905826180146,,,,,,,,,,1020.9313604366434,None,1020.9313604366434,None,f,1,0.8860261104309757,None,None,007,001,1,26,m,2021_Nov_08_1616,eye_tracking_exp,2021.2.3,85.92111064486808,
0,0,-12,0,0,12,0,0,0,0,j,abs,resp,freq_top,,,,,0,215,215,158,,,0.8218946055687975,,,,,,,,,,1024.3551841889785,None,1024.3551841889785,None,j,1,1.0462215145598748,None,None,007,001,1,26,m,2021_Nov_08_1616,eye_tracking_exp,2021.2.3,85.92111064486808,
180,270,180,180,168,180,-168,0,180,180,f,present,resp,freq_top,,,,,0,216,216,877,,,0.8755255514569603,,,,,,,,,,1026.9676956554176,None,1026.9676956554176,None,f,1,1.1376783492814866,None,None,007,001,1,26,m,2021_Nov_08_1616,eye_tracking_exp,2021.2.3,85.92111064486808,
0,0,180,180,168,0,0,270,-168,0,f,present,resp,freq_top,,,,,0,217,217,891,,,0.9407939272359135,,,,,,,,,,1030.1211969830947,None,1030.1211969830947,None,f,1,1.376302539538301,None,None,007,001,1,26,m,2021_Nov_08_1616,eye_tracking_exp,2021.2.3,85.92111064486808,
-168,0,180,0,180,180,180,0,-168,0,f,abs,resp,freq_top,,,,,0,218,218,321,,,0.9666510290759753,,,,,,,,,,1033.203992901752,None,1033.203992901752,None,f,1,0.8694908934085106,None,None,007,001,1,26,m,2021_Nov_08_1616,eye_tracking_exp,2021.2.3,85.92111064486808,
0,0,180,0,0,0,12,0,180,-168,None,abs,inhibit,freq_top,,,,,0,219,219,463,,,0.8837914417158611,,,,,,,,,,1035.5101660796245,None,1035.5101660796245,None,None,1,,None,None,007,001,1,26,m,2021_Nov_08_1616,eye_tracking_exp,2021.2.3,85.92111064486808,
0,90,0,168,180,180,180,168,0,0,f,present,resp,freq_top,,,,,0,220,220,716,,,0.7689289250978704,,,,,,,,,,1039.947655684744,None,1039.947655684744,None,f,1,1.1489756031623983,None,None,007,001,1,26,m,2021_Nov_08_1616,eye_tracking_exp,2021.2.3,85.92111064486808,
-12,0,0,90,0,0,0,0,-12,180,j,present,resp,freq_top,,,,,0,221,221,643,,,0.8003146548536225,,,,,,,,,,1042.3467605252044,None,1042.3467605252044,None,j,1,1.5664101452202885,None,None,007,001,1,26,m,2021_Nov_08_1616,eye_tracking_exp,2021.2.3,85.92111064486808,
180,90,0,168,180,0,180,0,0,168,f,present,resp,freq_top,,,,,0,222,222,760,,,0.8638460983995435,,,,,,,,,,1045.3476038876797,None,1045.3476038876797,None,j,0,2.3731071797810728,1047.737049903575,None,007,001,1,26,m,2021_Nov_08_1616,eye_tracking_exp,2021.2.3,85.92111064486808,
12,180,180,0,168,0,180,0,180,180,None,abs,inhibit,freq_top,,,,,0,223,223,433,,,1.0845127412538076,,,,,,,,,,1049.7843603047368,None,1049.7843603047368,None,None,1,,None,None,007,001,1,26,m,2021_Nov_08_1616,eye_tracking_exp,2021.2.3,85.92111064486808,
180,-168,180,270,0,180,180,180,12,0,None,present,inhibit,freq_top,,,,,0,224,224,985,,,0.7350736746401568,,,,,,,,,,1053.5387887878096,None,1053.5387887878096,None,None,1,,None,None,007,001,1,26,m,2021_Nov_08_1616,eye_tracking_exp,2021.2.3,85.92111064486808,
0,0,12,0,270,0,0,0,12,0,j,present,resp,freq_top,,,,,0,225,225,543,,,1.091987964792827,,,,,,,,,,1057.9305551069774,None,1057.9305551069774,None,j,1,1.085381424112711,None,None,007,001,1,26,m,2021_Nov_08_1616,eye_tracking_exp,2021.2.3,85.92111064486808,
180,180,0,0,180,-12,180,180,0,-12,j,abs,resp,freq_top,,,,,0,226,226,114,,,1.0515056348923597,,,,,,,,,,1061.387911422189,None,1061.387911422189,None,j,1,1.6601015584710694,None,None,007,001,1,26,m,2021_Nov_08_1616,eye_tracking_exp,2021.2.3,85.92111064486808,
0,0,180,12,0,180,0,12,0,0,j,abs,resp,freq_top,,,,,0,227,227,31,,,0.9849586713795073,,,,,,,,,,1065.365007520537,None,1065.365007520537,None,j,1,0.9629278490428987,None,None,007,001,1,26,m,2021_Nov_08_1616,eye_tracking_exp,2021.2.3,85.92111064486808,
180,90,0,-12,180,0,180,0,-12,0,j,present,resp,freq_top,,,,,0,228,228,612,,,0.9073897220124033,,,,,,,,,,1067.706874490821,None,1067.706874490821,None,j,1,1.276090310420841,None,None,007,001,1,26,m,2021_Nov_08_1616,eye_tracking_exp,2021.2.3,85.92111064486808,
0,0,180,270,180,180,12,0,12,0,j,present,resp,freq_top,,,,,0,229,229,539,,,0.9908389840646734,,,,,,,,,,1070.7427231311049,None,1070.7427231311049,None,j,1,1.1523001537316304,None,None,007,001,1,26,m,2021_Nov_08_1616,eye_tracking_exp,2021.2.3,85.92111064486808,
0,180,168,0,180,168,180,0,180,180,f,abs,resp,freq_top,,,,,0,230,230,260,,,0.9549816486143884,,,,,,,,,,1073.8374009826366,None,1073.8374009826366,None,f,1,0.9376743648899719,None,None,007,001,1,26,m,2021_Nov_08_1616,eye_tracking_exp,2021.2.3,85.92111064486808,
-168,0,0,180,180,168,0,0,0,0,f,abs,resp,freq_top,,,,,0,231,231,370,,,0.72980455019857,,,,,,,,,,1076.2492582847408,None,1076.2492582847408,None,f,1,1.8388316187883902,None,None,007,001,1,26,m,2021_Nov_08_1616,eye_tracking_exp,2021.2.3,85.92111064486808,
90,180,0,12,180,0,-12,0,180,0,j,present,resp,freq_top,,,,,0,232,232,645,,,1.0380991270600595,,,,,,,,,,1079.8853042126793,None,1079.8853042126793,None,j,1,1.0178737896276289,None,None,007,001,1,26,m,2021_Nov_08_1616,eye_tracking_exp,2021.2.3,85.92111064486808,
-12,180,180,270,0,12,180,180,180,0,j,present,resp,freq_top,,,,,0,233,233,710,,,0.8920201238508544,,,,,,,,,,1082.604238424672,None,1082.604238424672,None,j,1,1.3060562408682017,None,None,007,001,1,26,m,2021_Nov_08_1616,eye_tracking_exp,2021.2.3,85.92111064486808,
0,180,168,180,90,168,180,180,180,180,f,present,resp,freq_top,,,,,0,234,234,764,,,0.9582467177079539,,,,,,,,,,1085.063866143828,None,1085.063866143828,None,f,1,1.6303961225858075,None,None,007,001,1,26,m,2021_Nov_08_1616,eye_tracking_exp,2021.2.3,85.92111064486808,
0,0,0,0,-12,0,0,-12,0,0,j,abs,resp,freq_top,,,,,0,235,235,78,,,0.7029922060366032,,,,,,,,,,1087.9703890424462,None,1087.9703890424462,None,j,1,1.1558903302793624,None,None,007,001,1,26,m,2021_Nov_08_1616,eye_tracking_exp,2021.2.3,85.92111064486808,
0,270,0,12,0,0,0,-12,0,0,j,present,resp,freq_top,,,,,0,236,236,646,,,0.7574044795296067,,,,,,,,,,1091.1587848698255,None,1091.1587848698255,None,j,1,1.2470918018480006,None,None,007,001,1,26,m,2021_Nov_08_1616,eye_tracking_exp,2021.2.3,85.92111064486808,
180,180,0,12,180,0,180,0,12,180,j,abs,resp,freq_top,,,,,0,237,237,38,,,0.9130309288478722,,,,,,,,,,1094.2532091692883,None,1094.2532091692883,None,j,1,0.6488842942308111,None,None,007,001,1,26,m,2021_Nov_08_1616,eye_tracking_exp,2021.2.3,85.92111064486808,
180,168,0,180,180,0,180,0,-168,180,f,abs,resp,freq_top,,,,,0,238,238,390,,,0.9554799385081749,,,,,,,,,,1095.9710464667369,None,1095.9710464667369,None,f,1,1.1393457559788658,None,None,007,001,1,26,m,2021_Nov_08_1616,eye_tracking_exp,2021.2.3,85.92111064486808,
-12,0,0,0,0,0,0,-12,180,180,j,abs,resp,freq_top,,,,,0,239,239,104,,,1.0260565865535212,,,,,,,,,,1099.0187661733798,None,1099.0187661733798,None,j,1,0.8587182508272235,None,None,007,001,1,26,m,2021_Nov_08_1616,eye_tracking_exp,2021.2.3,85.92111064486808,
180,-12,180,180,-12,0,90,0,180,0,j,present,resp,freq_top,,,,,0,240,240,631,,,0.7264229518651478,,,,,,,,,,1100.819536428342,None,1100.819536428342,None,j,1,1.1858864454989089,None,None,007,001,1,26,m,2021_Nov_08_1616,eye_tracking_exp,2021.2.3,85.92111064486808,
180,180,0,168,180,180,180,0,0,168,f,abs,resp,freq_top,,,,,0,241,241,256,,,0.7243423372968817,,,,,,,,,,1103.9147307412895,None,1103.9147307412895,None,f,1,0.7307979120596428,None,None,007,001,1,26,m,2021_Nov_08_1616,eye_tracking_exp,2021.2.3,85.92111064486808,
90,0,-12,180,180,180,180,0,180,12,j,present,resp,freq_top,,,,,0,242,242,691,,,0.7589739477359603,,,,,,,,,,1105.5502614152028,None,1105.5502614152028,None,j,1,1.1915593711783004,None,None,007,001,1,26,m,2021_Nov_08_1616,eye_tracking_exp,2021.2.3,85.92111064486808,
180,180,0,0,0,0,0,12,0,-12,j,abs,resp,freq_top,,,,,0,243,243,168,,,1.0854100325423195,,,,,,,,,,1108.8681683187315,None,1108.8681683187315,None,j,1,0.8976013660430908,None,None,007,001,1,26,m,2021_Nov_08_1616,eye_tracking_exp,2021.2.3,85.92111064486808,
180,-168,180,-168,0,180,0,180,0,180,f,abs,resp,freq_top,,,,,0,244,244,285,,,0.7764672603294389,,,,,,,,,,1111.269543959439,None,1111.269543959439,None,f,1,0.7040714111317357,None,None,007,001,1,26,m,2021_Nov_08_1616,eye_tracking_exp,2021.2.3,85.92111064486808,
0,270,0,-12,0,0,0,-12,0,0,j,present,resp,freq_top,,,,,0,245,245,576,,,1.0602714225161924,,,,,,,,,,1113.7861526763809,None,1113.7861526763809,None,j,1,1.2106035462857108,None,None,007,001,1,26,m,2021_Nov_08_1616,eye_tracking_exp,2021.2.3,85.92111064486808,
180,0,-12,0,0,0,-12,0,0,0,j,abs,resp,freq_top,,,,,0,246,246,121,,,0.9242703465425961,,,,,,,,,,1116.7163407365515,None,1116.7163407365515,None,f,0,0.8883578839158872,1117.6342574803166,None,007,001,1,26,m,2021_Nov_08_1616,eye_tracking_exp,2021.2.3,85.92111064486808,
0,0,0,-168,0,0,0,-168,0,0,f,abs,resp,freq_top,,,,,0,247,247,282,,,0.8076717981554291,,,,,,,,,,1119.6225868408292,None,1119.6225868408292,None,f,1,0.8781490928413405,None,None,007,001,1,26,m,2021_Nov_08_1616,eye_tracking_exp,2021.2.3,85.92111064486808,
0,0,0,-168,180,180,180,180,0,12,None,abs,inhibit,freq_top,,,,,0,248,248,424,,,1.0479102030838805,,,,,,,,,,1122.2950790674986,None,1122.2950790674986,None,None,1,,None,None,007,001,1,26,m,2021_Nov_08_1616,eye_tracking_exp,2021.2.3,85.92111064486808,
180,180,0,0,0,-168,180,180,-168,180,f,abs,resp,freq_top,,,,,0,249,249,316,,,0.9099657122838023,,,,,,,,,,1126.413461622633,None,1126.413461622633,None,f,1,0.9353742854145821,None,None,007,001,1,26,m,2021_Nov_08_1616,eye_tracking_exp,2021.2.3,85.92111064486808,
0,0,0,270,0,0,12,0,0,12,j,present,resp,freq_top,,,,,0,250,250,526,,,0.950665580272803,,,,,,,,,,1128.978822365345,None,1128.978822365345,None,j,1,1.3941139686357928,None,None,007,001,1,26,m,2021_Nov_08_1616,eye_tracking_exp,2021.2.3,85.92111064486808,
180,90,0,0,-12,0,0,-12,180,180,j,present,resp,freq_top,,,,,0,251,251,604,,,1.0119800440843214,,,,,,,,,,1144.4141081804046,None,1144.4141081804046,None,j,1,1.174002701536665,None,None,007,001,1,26,m,2021_Nov_08_1616,eye_tracking_exp,2021.2.3,85.92111064486808,
0,180,0,180,-12,180,12,180,180,180,j,abs,resp,freq_top,,,,,0,252,252,147,,,0.9275138915264357,,,,,,,,,,1147.7326537936679,None,1147.7326537936679,None,j,1,1.5666277774143964,None,None,007,001,1,26,m,2021_Nov_08_1616,eye_tracking_exp,2021.2.3,85.92111064486808,
-12,180,180,-12,0,270,0,180,180,180,j,present,resp,freq_top,,,,,0,253,253,638,,,0.7413508542520114,,,,,,,,,,1151.22821376492,None,1151.22821376492,None,j,1,1.2390249220552505,None,None,007,001,1,26,m,2021_Nov_08_1616,eye_tracking_exp,2021.2.3,85.92111064486808,
168,180,180,12,180,180,180,0,0,0,None,abs,inhibit,freq_top,,,,,0,254,254,484,,,1.0808357648566336,,,,,,,,,,1154.5221485277834,None,1154.5221485277834,None,None,1,,None,None,007,001,1,26,m,2021_Nov_08_1616,eye_tracking_exp,2021.2.3,85.92111064486808,
0,90,0,168,0,168,0,0,0,0,f,present,resp,freq_top,,,,,0,255,255,714,,,1.0299726040732666,,,,,,,,,,1159.1365329592045,None,1159.1365329592045,None,f,1,1.2987530357604555,None,None,007,001,1,26,m,2021_Nov_08_1616,eye_tracking_exp,2021.2.3,85.92111064486808,
0,0,168,0,0,0,0,0,180,168,f,abs,resp,freq_top,,,,,0,256,256,257,,,0.8853898132120013,,,,,,,,,,1162.3945140387877,None,1162.3945140387877,None,f,1,1.1280530298136,None,None,007,001,1,26,m,2021_Nov_08_1616,eye_tracking_exp,2021.2.3,85.92111064486808,
0,90,0,-168,0,-168,0,0,0,0,f,present,resp,freq_top,,,,,0,257,257,784,,,0.7221326982628652,,,,,,,,,,1165.2209706275025,None,1165.2209706275025,None,f,1,1.1014575307854102,None,None,007,001,1,26,m,2021_Nov_08_1616,eye_tracking_exp,2021.2.3,85.92111064486808,
0,12,0,0,168,0,180,180,180,180,None,abs,inhibit,freq_top,,,,,0,258,258,432,,,1.0571714167064736,,,,,,,,,,1168.7740603556558,None,1168.7740603556558,None,None,1,,None,None,007,001,1,26,m,2021_Nov_08_1616,eye_tracking_exp,2021.2.3,85.92111064486808,
90,180,0,-168,180,0,180,0,0,-168,f,present,resp,freq_top,,,,,0,259,259,830,,,1.015518395200109,,,,,,,,,,1173.5851251264394,None,1173.5851251264394,None,f,1,1.0253475386889477,None,None,007,001,1,26,m,2021_Nov_08_1616,eye_tracking_exp,2021.2.3,85.92111064486808,
180,180,168,0,270,0,0,168,0,180,f,present,resp,freq_top,,,,,0,260,260,746,,,0.77379705482358,,,,,,,,,,1175.9148336713552,None,1175.9148336713552,None,j,0,1.543931245130807,1177.4708944864215,None,007,001,1,26,m,2021_Nov_08_1616,eye_tracking_exp,2021.2.3,85.92111064486808,
0,0,270,0,168,0,180,0,180,168,f,present,resp,freq_top,,,,,0,261,261,759,,,0.7669166064386547,,,,,,,,,,1179.2333732476618,None,1179.2333732476618,None,f,1,1.2336982156884915,None,None,007,001,1,26,m,2021_Nov_08_1616,eye_tracking_exp,2021.2.3,85.92111064486808,
180,0,-12,0,0,0,12,0,0,0,j,abs,resp,freq_top,,,,,0,262,262,191,,,0.7857737263317881,,,,,,,,,,1182.693424459143,None,1182.693424459143,None,j,1,1.2762385176392854,None,None,007,001,1,26,m,2021_Nov_08_1616,eye_tracking_exp,2021.2.3,85.92111064486808,
0,12,0,90,0,-12,180,180,0,0,j,present,resp,freq_top,,,,,0,263,263,702,,,0.9655502439665133,,,,,,,,,,1186.0935178508225,None,1186.0935178508225,None,j,1,0.8679544886108488,None,None,007,001,1,26,m,2021_Nov_08_1616,eye_tracking_exp,2021.2.3,85.92111064486808,
12,0,12,0,270,180,180,0,180,180,j,present,resp,freq_top,,,,,0,264,264,559,,,0.8889058108773138,,,,,,,,,,1188.3873222154798,None,1188.3873222154798,None,j,1,0.9104042362523614,None,None,007,001,1,26,m,2021_Nov_08_1616,eye_tracking_exp,2021.2.3,85.92111064486808,
180,-12,180,270,180,-12,180,180,0,180,j,present,resp,freq_top,,,,,0,265,265,593,,,0.70206834293183,,,,,,,,,,1190.2464209163554,None,1190.2464209163554,None,j,1,0.8433934430831869,None,None,007,001,1,26,m,2021_Nov_08_1616,eye_tracking_exp,2021.2.3,85.92111064486808,
0,168,0,270,0,168,180,180,0,0,f,present,resp,freq_top,,,,,0,266,266,772,,,0.7950347649666513,,,,,,,,,,1192.1660292146335,None,1192.1660292146335,None,f,1,1.099029467881337,None,None,007,001,1,26,m,2021_Nov_08_1616,eye_tracking_exp,2021.2.3,85.92111064486808,
0,0,180,-12,180,180,180,12,0,0,j,abs,resp,freq_top,,,,,0,267,267,171,,,0.8519785437596737,,,,,,,,,,1194.2829749747143,None,1194.2829749747143,None,f,0,2.5818285257519165,1196.8955280961382,None,007,001,1,26,m,2021_Nov_08_1616,eye_tracking_exp,2021.2.3,85.92111064486808,
180,180,12,180,168,180,0,180,0,180,None,abs,inhibit,freq_top,,,,,0,268,268,431,,,0.8709707797425195,,,,,,,,,,1199.330919859738,None,1199.330919859738,None,None,1,,None,None,007,001,1,26,m,2021_Nov_08_1616,eye_tracking_exp,2021.2.3,85.92111064486808,
180,180,270,180,168,180,180,180,12,180,None,present,inhibit,freq_top,,,,,0,269,269,933,,,0.964533154522921,,,,,,,,,,1204.5205828437647,None,1204.5205828437647,None,None,1,,None,None,007,001,1,26,m,2021_Nov_08_1616,eye_tracking_exp,2021.2.3,85.92111064486808,
-12,0,12,180,90,180,180,0,180,180,j,present,resp,freq_top,,,,,0,270,270,707,,,0.9197466891882347,,,,,,,,,,1209.8526805132278,None,1209.8526805132278,None,j,1,1.4593604619949474,None,None,007,001,1,26,m,2021_Nov_08_1616,eye_tracking_exp,2021.2.3,85.92111064486808,
0,12,0,0,-12,0,0,180,180,180,j,abs,resp,freq_top,,,,,0,271,271,152,,,0.9479192280979075,,,,,,,,,,1213.1358697998076,None,1213.1358697998076,None,j,1,2.5922537416263367,None,None,007,001,1,26,m,2021_Nov_08_1616,eye_tracking_exp,2021.2.3,85.92111064486808,
0,12,180,0,0,0,180,12,0,0,j,abs,resp,freq_top,,,,,0,272,272,33,,,1.0019246547139438,,,,,,,,,,1217.8563666773443,None,1217.8563666773443,None,j,1,1.6169358280858432,None,None,007,001,1,26,m,2021_Nov_08_1616,eye_tracking_exp,2021.2.3,85.92111064486808,
180,0,90,180,12,0,180,180,12,180,j,present,resp,freq_top,,,,,0,273,273,513,,,0.8211793305048091,,,,,,,,,,1221.4333084107748,None,1221.4333084107748,None,j,1,0.9828703229068196,None,None,007,001,1,26,m,2021_Nov_08_1616,eye_tracking_exp,2021.2.3,85.92111064486808,
12,0,90,0,0,-168,0,0,0,0,None,present,inhibit,freq_top,,,,,0,274,274,944,,,1.0058158495814302,,,,,,,,,,1224.4677232744834,None,1224.4677232744834,None,None,1,,None,None,007,001,1,26,m,2021_Nov_08_1616,eye_tracking_exp,2021.2.3,85.92111064486808,
270,0,-168,0,0,-168,180,180,180,180,f,present,resp,freq_top,,,,,0,275,275,802,,,0.9483696041955506,,,,,,,,,,1229.0696296238166,None,1229.0696296238166,None,f,1,1.6818913402603357,None,None,007,001,1,26,m,2021_Nov_08_1616,eye_tracking_exp,2021.2.3,85.92111064486808,
90,180,180,0,168,0,-12,180,180,180,None,present,inhibit,freq_top,,,,,0,276,276,1001,,,1.042934949141632,,,,,,,,,,1231.952029156073,None,1231.952029156073,None,None,1,,None,None,007,001,1,26,m,2021_Nov_08_1616,eye_tracking_exp,2021.2.3,85.92111064486808,
90,180,0,168,180,0,180,0,-168,180,f,present,resp,freq_top,,,,,0,277,277,857,,,0.8418130261057412,,,,,,,,,,1236.3307788968632,None,1236.3307788968632,None,f,1,1.2206828446978761,None,None,007,001,1,26,m,2021_Nov_08_1616,eye_tracking_exp,2021.2.3,85.92111064486808,
180,-12,180,180,0,180,0,180,0,-12,j,abs,resp,freq_top,,,,,0,278,278,118,,,0.7189447662308577,,,,,,,,,,1239.1199322412285,None,1239.1199322412285,None,j,1,1.1521546631411184,None,None,007,001,1,26,m,2021_Nov_08_1616,eye_tracking_exp,2021.2.3,85.92111064486808,
270,0,168,0,0,0,168,0,0,0,f,present,resp,freq_top,,,,,0,279,279,765,,,0.9153785021789592,,,,,,,,,,1242.5314997695423,None,1242.5314997695423,None,f,1,0.9550118931001634,None,None,007,001,1,26,m,2021_Nov_08_1616,eye_tracking_exp,2021.2.3,85.92111064486808,
180,-168,180,270,0,180,12,0,180,180,None,present,inhibit,freq_top,,,,,0,280,280,983,,,0.9927079306402373,,,,,,,,,,1245.2026560182858,None,1245.2026560182858,None,None,1,,None,None,007,001,1,26,m,2021_Nov_08_1616,eye_tracking_exp,2021.2.3,85.92111064486808,
0,0,168,0,168,0,0,0,0,0,f,abs,resp,freq_top,,,,,0,281,281,259,,,0.7392888301399401,,,,,,,,,,1250.2625416964875,None,1250.2625416964875,None,f,1,1.5921435672171356,None,None,007,001,1,26,m,2021_Nov_08_1616,eye_tracking_exp,2021.2.3,85.92111064486808,
-168,0,-168,0,270,0,0,0,180,180,f,present,resp,freq_top,,,,,0,282,282,839,,,0.7422165594361722,,,,,,,,,,1253.8183226987385,None,1253.8183226987385,None,f,1,0.9324348925074446,None,None,007,001,1,26,m,2021_Nov_08_1616,eye_tracking_exp,2021.2.3,85.92111064486808,
180,180,-12,180,-12,180,0,180,0,180,j,abs,resp,freq_top,,,,,0,283,283,81,,,1.0980559544076425,,,,,,,,,,1257.0287567285632,None,1257.0287567285632,None,j,1,1.5129725375954877,None,None,007,001,1,26,m,2021_Nov_08_1616,eye_tracking_exp,2021.2.3,85.92111064486808,
-168,0,0,0,0,0,0,-168,180,180,f,abs,resp,freq_top,,,,,0,284,284,314,,,1.0393899990179398,,,,,,,,,,1262.5944884421006,None,1262.5944884421006,None,f,1,1.0033123547182186,None,None,007,001,1,26,m,2021_Nov_08_1616,eye_tracking_exp,2021.2.3,85.92111064486808,
0,0,270,0,-168,180,180,0,180,-168,f,present,resp,freq_top,,,,,0,285,285,829,,,1.0060584675589916,,,,,,,,,,1265.2191519951084,None,1265.2191519951084,None,f,1,1.658751695555111,None,None,007,001,1,26,m,2021_Nov_08_1616,eye_tracking_exp,2021.2.3,85.92111064486808,
270,0,-168,180,180,0,0,0,0,168,f,present,resp,freq_top,,,,,0,286,286,908,,,0.8065237976182554,,,,,,,,,,1267.8184041976165,None,1267.8184041976165,None,f,1,1.0114906163107662,None,None,007,001,1,26,m,2021_Nov_08_1616,eye_tracking_exp,2021.2.3,85.92111064486808,
180,180,-12,180,90,180,0,180,0,-12,j,present,resp,freq_top,,,,,0,287,287,628,,,0.9649428080949338,,,,,,,,,,1270.0538336318132,None,1270.0538336318132,None,j,1,1.0791048030332604,None,None,007,001,1,26,m,2021_Nov_08_1616,eye_tracking_exp,2021.2.3,85.92111064486808,
180,-168,0,180,0,180,-168,0,180,180,f,abs,resp,freq_top,,,,,0,288,288,339,,,0.9656158882476433,,,,,,,,,,1272.7720295243307,None,1272.7720295243307,None,f,1,1.144906394310965,None,None,007,001,1,26,m,2021_Nov_08_1616,eye_tracking_exp,2021.2.3,85.92111064486808,
0,0,0,180,12,0,0,0,12,0,j,abs,resp,freq_top,,,,,0,289,289,37,,,0.7870140338250249,,,,,,,,,,1276.2075700988462,None,1276.2075700988462,None,j,1,0.8454067672428209,None,None,007,001,1,26,m,2021_Nov_08_1616,eye_tracking_exp,2021.2.3,85.92111064486808,
0,0,180,180,270,180,12,0,-12,0,j,present,resp,freq_top,,,,,0,290,290,679,,,0.9637549233623284,,,,,,,,,,1278.3508919146807,None,1278.3508919146807,None,j,1,1.550113086035708,None,None,007,001,1,26,m,2021_Nov_08_1616,eye_tracking_exp,2021.2.3,85.92111064486808,
270,180,168,180,-168,180,180,180,0,180,f,present,resp,freq_top,,,,,0,291,291,865,,,0.9375564590724593,,,,,,,,,,1281.9746423783909,None,1281.9746423783909,None,f,1,1.1264046395226615,None,None,007,001,1,26,m,2021_Nov_08_1616,eye_tracking_exp,2021.2.3,85.92111064486808,
0,-168,180,180,180,180,180,168,0,270,f,present,resp,freq_top,,,,,0,292,292,887,,,0.9829640399799819,,,,,,,,,,1285.267585269714,None,1285.267585269714,None,f,1,1.2735182661635918,None,None,007,001,1,26,m,2021_Nov_08_1616,eye_tracking_exp,2021.2.3,85.92111064486808,
0,0,0,0,168,0,0,168,0,0,f,abs,resp,freq_top,,,,,0,293,293,218,,,1.0074175327779389,,,,,,,,,,1293.5972829481107,None,1293.5972829481107,None,f,1,1.454960428069171,None,None,007,001,1,26,m,2021_Nov_08_1616,eye_tracking_exp,2021.2.3,85.92111064486808,
90,0,0,180,180,180,-168,0,0,168,f,present,resp,freq_top,,,,,0,294,294,876,,,1.0525779246938134,,,,,,,,,,1297.1035723977184,None,1297.1035723977184,None,f,1,0.9727662729892472,None,None,007,001,1,26,m,2021_Nov_08_1616,eye_tracking_exp,2021.2.3,85.92111064486808,
180,0,-12,0,180,180,180,0,-12,0,j,abs,resp,freq_top,,,,,0,295,295,123,,,1.062343749679572,,,,,,,,,,1300.668732411712,None,1300.668732411712,None,j,1,1.1996277602083865,None,None,007,001,1,26,m,2021_Nov_08_1616,eye_tracking_exp,2021.2.3,85.92111064486808,
0,270,0,0,-12,180,180,180,0,-12,j,present,resp,freq_top,,,,,0,296,296,584,,,0.8022424743700299,,,,,,,,,,1303.7292498571514,None,1303.7292498571514,None,j,1,1.1782490949844941,None,None,007,001,1,26,m,2021_Nov_08_1616,eye_tracking_exp,2021.2.3,85.92111064486808,
0,0,180,-12,180,0,180,-12,0,0,j,abs,resp,freq_top,,,,,0,297,297,101,,,1.0817296093752906,,,,,,,,,,1306.1753445365139,None,1306.1753445365139,None,j,1,1.5480888953534304,None,None,007,001,1,26,m,2021_Nov_08_1616,eye_tracking_exp,2021.2.3,85.92111064486808,
12,180,180,180,168,180,0,180,0,0,None,abs,inhibit,freq_top,,,,,0,298,298,503,,,0.9634865116018482,,,,,,,,,,1309.5413916205289,None,1309.5413916205289,None,None,1,,None,None,007,001,1,26,m,2021_Nov_08_1616,eye_tracking_exp,2021.2.3,85.92111064486808,
-12,0,180,0,180,0,-12,180,0,180,j,abs,resp,freq_top,,,,,0,299,299,97,,,0.7132585489165348,,,,,,,,,,1313.5776196833685,None,1313.5776196833685,None,j,1,1.0894590846946812,None,None,007,001,1,26,m,2021_Nov_08_1616,eye_tracking_exp,2021.2.3,85.92111064486808,
-12,180,180,0,180,0,180,12,0,0,j,abs,resp,freq_top,,,,,0,300,300,208,,,1.000990215530221,,,,,,,,,,1315.8140222745496,None,1315.8140222745496,None,j,1,0.8528536518570036,None,None,007,001,1,26,m,2021_Nov_08_1616,eye_tracking_exp,2021.2.3,85.92111064486808,
-168,0,90,180,-168,0,180,0,180,180,f,present,resp,freq_top,,,,,0,301,301,849,,,0.9468199500939029,,,,,,,,,,1317.672650394863,None,1317.672650394863,None,f,1,1.53803585769856,None,None,007,001,1,26,m,2021_Nov_08_1616,eye_tracking_exp,2021.2.3,85.92111064486808,
168,0,90,180,0,180,168,180,0,180,f,present,resp,freq_top,,,,,0,302,302,741,,,0.98500187568567,,,,,,,,,,1321.0734329048428,None,1321.0734329048428,None,f,1,1.0971839710437052,None,None,007,001,1,26,m,2021_Nov_08_1616,eye_tracking_exp,2021.2.3,85.92111064486808,
0,180,-12,180,180,12,180,0,180,0,j,abs,resp,freq_top,,,,,0,303,303,190,,,0.9856768367338851,,,,,,,,,,1324.169118324,None,1324.169118324,None,j,1,1.090246907195251,None,None,007,001,1,26,m,2021_Nov_08_1616,eye_tracking_exp,2021.2.3,85.92111064486808,
270,180,180,180,-168,180,180,180,168,180,f,present,resp,freq_top,,,,,0,304,304,863,,,0.7401594932132785,,,,,,,,,,1326.9823132340025,None,1326.9823132340025,None,f,1,1.3324410502027604,None,None,007,001,1,26,m,2021_Nov_08_1616,eye_tracking_exp,2021.2.3,85.92111064486808,
180,168,180,0,180,0,180,180,-168,180,f,abs,resp,freq_top,,,,,0,305,305,411,,,0.7615334742402725,,,,,,,,,,1336.2518478361599,None,1336.2518478361599,None,f,1,1.0392980338547204,None,None,007,001,1,26,m,2021_Nov_08_1616,eye_tracking_exp,2021.2.3,85.92111064486808,
180,180,180,0,0,180,168,180,12,180,None,abs,inhibit,freq_top,,,,,0,306,306,441,,,0.8951063620788074,,,,,,,,,,1338.3461836942479,None,1338.3461836942479,None,None,1,,None,None,007,001,1,26,m,2021_Nov_08_1616,eye_tracking_exp,2021.2.3,85.92111064486808,
180,12,180,180,180,-168,180,180,180,180,None,abs,inhibit,freq_top,,,,,0,307,307,439,,,1.0414552271499677,,,,,,,,,,1343.313972318756,None,1343.313972318756,None,f,0,0.9201125638355734,1344.2457493052243,None,007,001,1,26,m,2021_Nov_08_1616,eye_tracking_exp,2021.2.3,85.92111064486808,
0,270,0,0,-12,180,180,180,0,12,j,present,resp,freq_top,,,,,0,308,308,654,,,0.7027196817168609,,,,,,,,,,1346.4197672210903,None,1346.4197672210903,None,j,1,1.7822068012901582,None,None,007,001,1,26,m,2021_Nov_08_1616,eye_tracking_exp,2021.2.3,85.92111064486808,
180,168,0,90,180,0,180,180,-168,180,f,present,resp,freq_top,,,,,0,309,309,915,,,0.8579800233193218,,,,,,,,,,1351.456131417246,None,1351.456131417246,None,f,1,1.7050089500844479,None,None,007,001,1,26,m,2021_Nov_08_1616,eye_tracking_exp,2021.2.3,85.92111064486808,
180,168,0,180,0,180,168,0,180,180,f,abs,resp,freq_top,,,,,0,310,310,269,,,0.8394872755917672,,,,,,,,,,1355.7626825084408,None,1355.7626825084408,None,f,1,0.982497239150689,None,None,007,001,1,26,m,2021_Nov_08_1616,eye_tracking_exp,2021.2.3,85.92111064486808,
180,180,0,0,-168,0,0,-168,180,180,f,abs,resp,freq_top,,,,,0,311,311,310,,,0.9399773279305208,,,,,,,,,,1358.8346200597734,None,1358.8346200597734,None,f,1,1.0785931711798185,None,None,007,001,1,26,m,2021_Nov_08_1616,eye_tracking_exp,2021.2.3,85.92111064486808,
168,180,270,180,180,0,180,12,0,0,None,present,inhibit,freq_top,,,,,0,312,312,992,,,0.8307885794404506,,,,,,,,,,1361.834334813695,None,1361.834334813695,None,None,1,,None,None,007,001,1,26,m,2021_Nov_08_1616,eye_tracking_exp,2021.2.3,85.92111064486808,
-12,0,90,180,-12,180,180,180,0,180,j,present,resp,freq_top,,,,,0,313,313,639,,,0.9245039107067546,,,,,,,,,,1366.4598631603658,None,1366.4598631603658,None,j,1,1.1964369281668041,None,None,007,001,1,26,m,2021_Nov_08_1616,eye_tracking_exp,2021.2.3,85.92111064486808,
0,0,180,0,-12,0,0,0,180,12,j,abs,resp,freq_top,,,,,0,314,314,185,,,1.069035915401094,,,,,,,,,,1369.4128974692794,None,1369.4128974692794,None,j,1,1.2034084026563505,None,None,007,001,1,26,m,2021_Nov_08_1616,eye_tracking_exp,2021.2.3,85.92111064486808,
180,180,0,180,180,12,180,180,0,-168,None,abs,inhibit,freq_top,,,,,0,315,315,464,,,1.09428396008712,,,,,,,,,,1372.7788268326913,None,1372.7788268326913,None,None,1,,None,None,007,001,1,26,m,2021_Nov_08_1616,eye_tracking_exp,2021.2.3,85.92111064486808,
0,180,0,0,-168,180,0,180,168,180,f,abs,resp,freq_top,,,,,0,316,316,359,,,0.7557302933704377,,,,,,,,,,1377.4042754915681,None,1377.4042754915681,None,f,1,1.068192103120964,None,None,007,001,1,26,m,2021_Nov_08_1616,eye_tracking_exp,2021.2.3,85.92111064486808,
0,0,0,0,0,-168,0,12,0,0,None,abs,inhibit,freq_top,,,,,0,317,317,434,,,0.9076660606960814,,,,,,,,,,1379.921646675797,None,1379.921646675797,None,None,1,,None,None,007,001,1,26,m,2021_Nov_08_1616,eye_tracking_exp,2021.2.3,85.92111064486808,
0,0,-12,180,0,0,180,12,0,180,j,abs,resp,freq_top,,,,,0,318,318,192,,,0.7070615651727113,,,,,,,,,,1384.334493736511,None,1384.334493736511,None,j,1,1.9771174075867748,None,None,007,001,1,26,m,2021_Nov_08_1616,eye_tracking_exp,2021.2.3,85.92111064486808,
0,270,0,-12,180,0,180,0,0,12,j,present,resp,freq_top,,,,,0,319,319,690,,,0.9776554243024236,,,,,,,,,,1388.5836101528294,None,1388.5836101528294,None,j,1,0.9440457661476103,None,None,007,001,1,26,m,2021_Nov_08_1616,eye_tracking_exp,2021.2.3,85.92111064486808,
180,180,0,168,180,180,90,180,-168,180,f,present,resp,freq_top,,,,,0,320,320,892,,,1.034333489022688,,,,,,,,,,1391.2436405971894,None,1391.2436405971894,None,f,1,1.2920257560617756,None,None,007,001,1,26,m,2021_Nov_08_1616,eye_tracking_exp,2021.2.3,85.92111064486808,
168,0,12,180,180,0,180,0,180,90,None,present,inhibit,freq_top,,,,,0,321,321,987,,,1.0387566039921214,,,,,,,,,,1395.1832810180967,None,1395.1832810180967,None,None,1,,None,None,007,001,1,26,m,2021_Nov_08_1616,eye_tracking_exp,2021.2.3,85.92111064486808,
12,180,0,180,0,180,12,180,180,180,j,abs,resp,freq_top,,,,,0,322,322,27,,,1.0542815130057939,,,,,,,,,,1400.078351211272,None,1400.078351211272,None,j,1,0.9844154812853958,None,None,007,001,1,26,m,2021_Nov_08_1616,eye_tracking_exp,2021.2.3,85.92111064486808,
0,0,180,180,12,0,0,0,-12,0,j,abs,resp,freq_top,,,,,0,323,323,177,,,1.0900711405393477,,,,,,,,,,1402.984287619809,None,1402.984287619809,None,j,1,1.886588452696742,None,None,007,001,1,26,m,2021_Nov_08_1616,eye_tracking_exp,2021.2.3,85.92111064486808,
0,-168,0,90,0,180,180,180,180,12,None,present,inhibit,freq_top,,,,,0,324,324,986,,,0.767127985099772,,,,,,,,,,1406.4673218170392,None,1406.4673218170392,None,None,1,,None,None,007,001,1,26,m,2021_Nov_08_1616,eye_tracking_exp,2021.2.3,85.92111064486808,
0,0,180,0,0,0,12,0,180,12,j,abs,resp,freq_top,,,,,0,325,325,43,,,1.080465125864149,,,,,,,,,,1411.1170595566655,None,1411.1170595566655,None,j,1,1.1621581977778987,None,None,007,001,1,26,m,2021_Nov_08_1616,eye_tracking_exp,2021.2.3,85.92111064486808,
180,0,0,0,0,0,0,-12,0,-12,j,abs,resp,freq_top,,,,,0,326,326,98,,,0.8896895979840205,,,,,,,,,,1414.198692757982,None,1414.198692757982,None,j,1,1.6153583720006282,None,None,007,001,1,26,m,2021_Nov_08_1616,eye_tracking_exp,2021.2.3,85.92111064486808,
180,270,0,180,0,180,0,-168,0,-168,f,present,resp,freq_top,,,,,0,327,327,826,,,1.0528553361817725,,,,,,,,,,1417.833475755142,None,1417.833475755142,None,f,1,1.0526013675516879,None,None,007,001,1,26,m,2021_Nov_08_1616,eye_tracking_exp,2021.2.3,85.92111064486808,
180,180,0,12,0,180,0,180,0,-168,None,abs,inhibit,freq_top,,,,,0,328,328,466,,,1.081731747331013,,,,,,,,,,1420.8927317790403,None,1420.8927317790403,None,None,1,,None,None,007,001,1,26,m,2021_Nov_08_1616,eye_tracking_exp,2021.2.3,85.92111064486808,
0,180,0,180,168,180,-12,180,0,180,None,abs,inhibit,freq_top,,,,,0,329,329,497,,,0.9591512344174724,,,,,,,,,,1425.8348684804296,None,1425.8348684804296,None,None,1,,None,None,007,001,1,26,m,2021_Nov_08_1616,eye_tracking_exp,2021.2.3,85.92111064486808,
-168,180,180,270,0,-168,0,180,180,180,f,present,resp,freq_top,,,,,0,330,330,850,,,0.726035117582711,,,,,,,,,,1431.3542608368625,None,1431.3542608368625,None,f,1,1.195012508873333,None,None,007,001,1,26,m,2021_Nov_08_1616,eye_tracking_exp,2021.2.3,85.92111064486808,
0,0,0,168,0,0,180,180,0,168,f,abs,resp,freq_top,,,,,0,331,331,214,,,0.9519851694644315,,,,,,,,,,1433.5418842359759,None,1433.5418842359759,None,f,1,1.4234082879520429,None,None,007,001,1,26,m,2021_Nov_08_1616,eye_tracking_exp,2021.2.3,85.92111064486808,
-168,0,90,0,180,180,180,0,-168,0,f,present,resp,freq_top,,,,,0,332,332,825,,,0.7666493867812485,,,,,,,,,,1436.589444567031,None,1436.589444567031,None,f,1,1.3519307525166369,None,None,007,001,1,26,m,2021_Nov_08_1616,eye_tracking_exp,2021.2.3,85.92111064486808,
-168,180,90,0,0,180,180,168,0,0,f,present,resp,freq_top,,,,,0,333,333,922,,,0.8762805324244245,,,,,,,,,,1439.5787184090004,None,1439.5787184090004,None,f,1,0.9706204376852838,None,None,007,001,1,26,m,2021_Nov_08_1616,eye_tracking_exp,2021.2.3,85.92111064486808,
270,0,0,12,180,0,180,-168,0,0,None,present,inhibit,freq_top,,,,,0,334,334,955,,,0.9198174957545333,,,,,,,,,,1442.2281724117856,None,1442.2281724117856,None,None,1,,None,None,007,001,1,26,m,2021_Nov_08_1616,eye_tracking_exp,2021.2.3,85.92111064486808,
180,180,0,12,180,0,180,0,168,0,None,abs,inhibit,freq_top,,,,,0,335,335,458,,,1.0942314453384485,,,,,,,,,,1471.0875783936208,None,1471.0875783936208,None,None,1,,None,None,007,001,1,26,m,2021_Nov_08_1616,eye_tracking_exp,2021.2.3,85.92111064486808,
0,90,0,-168,0,0,180,180,180,12,None,present,inhibit,freq_top,,,,,0,336,336,928,,,0.8425358858077745,,,,,,,,,,1475.50011485305,None,1475.50011485305,None,None,1,,None,None,007,001,1,26,m,2021_Nov_08_1616,eye_tracking_exp,2021.2.3,85.92111064486808,
180,90,0,12,180,12,0,180,0,180,j,present,resp,freq_top,,,,,0,337,337,521,,,0.7394860951432642,,,,,,,,,,1479.949238574085,None,1479.949238574085,None,j,1,1.0133448667329503,None,None,007,001,1,26,m,2021_Nov_08_1616,eye_tracking_exp,2021.2.3,85.92111064486808,
180,180,12,180,12,180,0,180,0,180,j,abs,resp,freq_top,,,,,0,338,338,11,,,0.8702253870214042,,,,,,,,,,1482.64413001305,None,1482.64413001305,None,j,1,1.262822594748286,None,None,007,001,1,26,m,2021_Nov_08_1616,eye_tracking_exp,2021.2.3,85.92111064486808,
