ori10,ori11,ori12,ori13,ori14,ori16,ori17,ori18,ori19,ori20,corrAns,distractor,respon,dist_freq,practice_trials.thisRepN,practice_trials.thisTrialN,practice_trials.thisN,practice_trials.thisIndex,trials.thisRepN,trials.thisTrialN,trials.thisN,trials.thisIndex,key_resp.keys,key_resp.rt,fixdur,int14_2.started,int14_2.stopped,per15_2.started,per15_2.stopped,response_pract.keys,response_pract.corr,response_pract.rt,key_resp_2.keys,key_resp_2.rt,int14.started,int14.stopped,per15.started,per15.stopped,response.keys,response.corr,response.rt,text_7.started,text_7.stopped,participant,session,1=top 2=bottom,age,gender,date,expName,psychopyVersion,frameRate,
,,,,,,,,,,,,,,,,,,,,,,space,4.931369000747509,,,,,,,,,,,,,,,,,,,,008,001,1,28,m,2021_Nov_08_1735,eye_tracking_exp,2021.2.3,85.00880128353698,
180,270,180,12,180,180,180,180,12,180,j,present,resp,pract,0,0,0,35,,,,,,,0.885248154457815,696.3484025766957,None,696.3484025766957,None,None,0,,,,,,,,,,,,,008,001,1,28,m,2021_Nov_08_1735,eye_tracking_exp,2021.2.3,85.00880128353698,
0,180,0,-168,180,0,180,0,12,180,None,abs,inhibit,pract,0,1,1,24,,,,,,,0.8645916343416358,700.7147596582945,None,700.7147596582945,None,None,1,,,,,,,,,,,,,008,001,1,28,m,2021_Nov_08_1735,eye_tracking_exp,2021.2.3,85.00880128353698,
180,168,180,0,180,0,180,0,0,168,f,abs,resp,pract,0,2,2,20,,,,,,,0.8664519831131294,704.5982935342108,None,704.5982935342108,None,f,1,2.087692000728566,,,,,,,,,,,,008,001,1,28,m,2021_Nov_08_1735,eye_tracking_exp,2021.2.3,85.00880128353698,
0,0,0,-168,0,12,0,0,0,0,None,abs,inhibit,pract,0,3,3,21,,,,,,,0.7807091137984754,707.7866947948496,None,707.7866947948496,None,None,1,,,,,,,,,,,,,008,001,1,28,m,2021_Nov_08_1735,eye_tracking_exp,2021.2.3,85.00880128353698,
180,0,90,180,12,0,180,180,12,180,j,present,resp,pract,0,4,4,41,,,,,,,0.8114677929683874,711.9287941274961,None,711.9287941274961,None,None,0,,,,,,,,,,,,,008,001,1,28,m,2021_Nov_08_1735,eye_tracking_exp,2021.2.3,85.00880128353698,
0,0,0,0,168,0,0,12,0,0,None,abs,inhibit,pract,0,5,5,29,,,,,,,0.8849806228547639,716.3303415195405,None,716.3303415195405,None,None,1,,,,,,,,,,,,,008,001,1,28,m,2021_Nov_08_1735,eye_tracking_exp,2021.2.3,85.00880128353698,
180,12,180,12,0,180,0,180,180,180,j,abs,resp,pract,0,6,6,5,,,,,,,0.7683581645914627,720.3665928246555,None,720.3665928246555,None,f,0,1.1345810225029709,,,,,,,,,,,,008,001,1,28,m,2021_Nov_08_1735,eye_tracking_exp,2021.2.3,85.00880128353698,
180,12,180,-168,180,180,0,180,180,180,None,abs,inhibit,pract,0,7,7,26,,,,,,,0.959600785681832,725.6375358481891,None,725.6375358481891,None,None,1,,,,,,,,,,,,,008,001,1,28,m,2021_Nov_08_1735,eye_tracking_exp,2021.2.3,85.00880128353698,
0,180,0,12,0,180,180,12,0,0,j,abs,resp,pract,0,8,8,2,,,,,,,0.7832909367069382,729.745038906658,None,729.745038906658,None,j,1,1.2272639625807642,,,,,,,,,,,,008,001,1,28,m,2021_Nov_08_1735,eye_tracking_exp,2021.2.3,85.00880128353698,
90,0,180,180,180,168,0,168,0,0,f,present,resp,pract,0,9,9,44,,,,,,,0.7947974323093344,733.2624544624996,None,733.2624544624996,None,f,1,2.766028300728067,,,,,,,,,,,,008,001,1,28,m,2021_Nov_08_1735,eye_tracking_exp,2021.2.3,85.00880128353698,
0,0,0,-168,180,180,180,180,0,12,None,abs,inhibit,pract,0,10,10,25,,,,,,,1.0707193232309788,737.3586931684913,None,737.3586931684913,None,None,1,,,,,,,,,,,,,008,001,1,28,m,2021_Nov_08_1735,eye_tracking_exp,2021.2.3,85.00880128353698,
180,180,180,-168,180,180,12,180,0,180,None,abs,inhibit,pract,0,11,11,22,,,,,,,0.7067852549791505,741.2888866619251,None,741.2888866619251,None,None,1,,,,,,,,,,,,,008,001,1,28,m,2021_Nov_08_1735,eye_tracking_exp,2021.2.3,85.00880128353698,
180,180,90,180,12,180,12,0,0,180,j,present,resp,pract,0,12,12,39,,,,,,,1.0518943601563406,745.3613101880546,None,745.3613101880546,None,j,1,2.4262706421723124,,,,,,,,,,,,008,001,1,28,m,2021_Nov_08_1735,eye_tracking_exp,2021.2.3,85.00880128353698,
12,0,0,12,0,0,180,0,180,180,j,abs,resp,pract,0,13,13,6,,,,,,,0.7407472659644557,748.750557588166,None,748.750557588166,None,j,1,1.7088713257326162,,,,,,,,,,,,008,001,1,28,m,2021_Nov_08_1735,eye_tracking_exp,2021.2.3,85.00880128353698,
168,0,180,0,0,180,180,0,168,0,f,abs,resp,pract,0,14,14,13,,,,,,,1.02613362323862,751.5514633727435,None,751.5514633727435,None,f,1,1.516198920136958,,,,,,,,,,,,008,001,1,28,m,2021_Nov_08_1735,eye_tracking_exp,2021.2.3,85.00880128353698,
180,0,180,12,180,180,12,180,180,180,j,abs,resp,pract,0,15,15,1,,,,,,,1.0778935963957212,754.8929895569745,None,754.8929895569745,None,j,1,1.5016887993333512,,,,,,,,,,,,008,001,1,28,m,2021_Nov_08_1735,eye_tracking_exp,2021.2.3,85.00880128353698,
0,180,0,12,0,180,180,180,0,12,j,abs,resp,pract,0,16,16,4,,,,,,,0.9830923860961918,757.4235756335256,None,757.4235756335256,None,j,1,1.3871052993636113,,,,,,,,,,,,008,001,1,28,m,2021_Nov_08_1735,eye_tracking_exp,2021.2.3,85.00880128353698,
0,0,180,0,0,0,168,0,180,168,f,abs,resp,pract,0,17,17,15,,,,,,,1.0192474903163842,760.0940581582036,None,760.0940581582036,None,f,1,1.052696683902468,,,,,,,,,,,,008,001,1,28,m,2021_Nov_08_1735,eye_tracking_exp,2021.2.3,85.00880128353698,
90,0,0,12,0,12,180,180,180,0,j,present,resp,pract,0,18,18,32,,,,,,,0.9017183110491169,762.2001244216226,None,762.2001244216226,None,j,1,1.4426612741444842,,,,,,,,,,,,008,001,1,28,m,2021_Nov_08_1735,eye_tracking_exp,2021.2.3,85.00880128353698,
168,0,270,180,180,180,180,168,180,180,f,present,resp,pract,0,19,19,49,,,,,,,0.8295889618474681,767.3064451426544,None,767.3064451426544,None,f,1,2.048471117945155,,,,,,,,,,,,008,001,1,28,m,2021_Nov_08_1735,eye_tracking_exp,2021.2.3,85.00880128353698,
180,12,180,12,180,90,180,180,0,180,j,present,resp,pract,0,20,20,37,,,,,,,0.843071431239134,770.4136291481045,None,770.4136291481045,None,j,1,1.820292367352522,,,,,,,,,,,,008,001,1,28,m,2021_Nov_08_1735,eye_tracking_exp,2021.2.3,85.00880128353698,
0,270,0,0,12,0,180,180,180,12,j,present,resp,pract,0,21,21,42,,,,,,,1.0046970599701015,773.7681722125635,None,773.7681722125635,None,j,1,1.8268367273485637,,,,,,,,,,,,008,001,1,28,m,2021_Nov_08_1735,eye_tracking_exp,2021.2.3,85.00880128353698,
180,270,0,0,0,0,0,168,0,168,f,present,resp,pract,0,22,22,43,,,,,,,0.9044984551709735,776.7459698049643,None,776.7459698049643,None,f,1,1.360053406606312,,,,,,,,,,,,008,001,1,28,m,2021_Nov_08_1735,eye_tracking_exp,2021.2.3,85.00880128353698,
180,0,180,0,12,180,180,180,12,180,j,abs,resp,pract,0,23,23,9,,,,,,,0.8047602729475972,779.06387731219,None,779.06387731219,None,j,1,1.8267594543358427,,,,,,,,,,,,008,001,1,28,m,2021_Nov_08_1735,eye_tracking_exp,2021.2.3,85.00880128353698,
180,180,0,168,180,180,180,180,168,180,f,abs,resp,pract,0,24,24,10,,,,,,,0.8940290838923204,781.9360846549971,None,781.9360846549971,None,f,1,1.6579864441082464,,,,,,,,,,,,008,001,1,28,m,2021_Nov_08_1735,eye_tracking_exp,2021.2.3,85.00880128353698,
12,0,0,-168,0,0,180,180,180,180,None,abs,inhibit,pract,0,25,25,27,,,,,,,1.0293951236862444,784.666000388177,None,784.666000388177,None,None,1,,,,,,,,,,,,,008,001,1,28,m,2021_Nov_08_1735,eye_tracking_exp,2021.2.3,85.00880128353698,
0,180,0,180,168,180,12,180,0,180,None,abs,inhibit,pract,0,26,26,28,,,,,,,1.0377238292063717,788.7268712972727,None,788.7268712972727,None,None,1,,,,,,,,,,,,,008,001,1,28,m,2021_Nov_08_1735,eye_tracking_exp,2021.2.3,85.00880128353698,
0,180,0,0,180,0,180,168,0,168,f,abs,resp,pract,0,27,27,14,,,,,,,1.0053548379327446,793.1283045908931,None,793.1283045908931,None,f,1,1.1049800259206677,,,,,,,,,,,,008,001,1,28,m,2021_Nov_08_1735,eye_tracking_exp,2021.2.3,85.00880128353698,
180,270,0,0,168,0,0,168,180,0,f,present,resp,pract,0,28,28,45,,,,,,,0.9358165748209157,795.2101424449502,None,795.2101424449502,None,f,1,1.3591022844993859,,,,,,,,,,,,008,001,1,28,m,2021_Nov_08_1735,eye_tracking_exp,2021.2.3,85.00880128353698,
0,270,0,0,12,0,0,12,0,0,j,present,resp,pract,0,29,29,40,,,,,,,0.9933124595723706,797.6102907729073,None,797.6102907729073,None,None,0,,,,,,,,,,,,,008,001,1,28,m,2021_Nov_08_1735,eye_tracking_exp,2021.2.3,85.00880128353698,
180,180,0,168,180,180,180,0,0,168,f,abs,resp,pract,0,30,30,18,,,,,,,0.961667518787019,802.0823980833884,None,802.0823980833884,None,f,1,1.8139852596650599,,,,,,,,,,,,008,001,1,28,m,2021_Nov_08_1735,eye_tracking_exp,2021.2.3,85.00880128353698,
0,180,180,180,168,0,0,0,0,12,None,abs,inhibit,pract,0,31,31,31,,,,,,,0.8056715343805375,834.6132998926332,None,834.6132998926332,None,None,1,,,,,,,,,,,,,008,001,1,28,m,2021_Nov_08_1735,eye_tracking_exp,2021.2.3,85.00880128353698,
90,0,0,12,0,0,0,12,0,0,j,present,resp,pract,0,32,32,34,,,,,,,0.8820313458923714,838.7323238741301,None,838.7323238741301,None,j,1,1.370589702441066,,,,,,,,,,,,008,001,1,28,m,2021_Nov_08_1735,eye_tracking_exp,2021.2.3,85.00880128353698,
0,180,180,180,12,0,180,12,0,0,j,abs,resp,pract,0,33,33,8,,,,,,,1.093107802983402,841.791006991094,None,841.791006991094,None,j,1,1.543928460974712,,,,,,,,,,,,008,001,1,28,m,2021_Nov_08_1735,eye_tracking_exp,2021.2.3,85.00880128353698,
180,270,180,12,180,0,12,180,0,180,j,present,resp,pract,0,34,34,33,,,,,,,1.088447738415716,844.6971399024842,None,844.6971399024842,None,j,1,1.6778537579011754,,,,,,,,,,,,008,001,1,28,m,2021_Nov_08_1735,eye_tracking_exp,2021.2.3,85.00880128353698,
180,0,180,0,168,180,0,180,12,180,None,abs,inhibit,pract,0,35,35,30,,,,,,,0.7095141897138942,847.3571501230472,None,847.3571501230472,None,None,1,,,,,,,,,,,,,008,001,1,28,m,2021_Nov_08_1735,eye_tracking_exp,2021.2.3,85.00880128353698,
180,0,180,12,0,180,180,0,12,180,j,abs,resp,pract,0,36,36,3,,,,,,,1.0337798797020206,851.6409506512209,None,851.6409506512209,None,f,0,1.38888408785715,,,,,,,,,,,,008,001,1,28,m,2021_Nov_08_1735,eye_tracking_exp,2021.2.3,85.00880128353698,
0,180,0,0,180,168,180,0,0,168,f,abs,resp,pract,0,37,37,16,,,,,,,0.829370346616091,854.4194134555873,None,854.4194134555873,None,f,1,1.922703255127999,,,,,,,,,,,,008,001,1,28,m,2021_Nov_08_1735,eye_tracking_exp,2021.2.3,85.00880128353698,
180,180,168,0,270,0,0,168,0,180,f,present,resp,pract,0,38,38,47,,,,,,,1.0972393440658257,857.7243560003844,None,857.7243560003844,None,f,1,1.6412888330232818,,,,,,,,,,,,008,001,1,28,m,2021_Nov_08_1735,eye_tracking_exp,2021.2.3,85.00880128353698,
90,0,0,12,0,180,180,180,0,12,j,present,resp,pract,0,39,39,36,,,,,,,1.0579909070386193,860.7488744853908,None,860.7488744853908,None,j,1,1.3372853364198818,,,,,,,,,,,,008,001,1,28,m,2021_Nov_08_1735,eye_tracking_exp,2021.2.3,85.00880128353698,
0,168,180,90,0,180,0,168,0,0,f,present,resp,pract,0,40,40,48,,,,,,,1.0640849068148504,863.4080054235965,None,863.4080054235965,None,f,1,1.8932284308830276,,,,,,,,,,,,008,001,1,28,m,2021_Nov_08_1735,eye_tracking_exp,2021.2.3,85.00880128353698,
0,180,0,12,0,12,0,180,180,180,j,abs,resp,pract,0,41,41,0,,,,,,,0.9009562061325793,866.3731558992076,None,866.3731558992076,None,f,0,1.9841301676860894,,,,,,,,,,,,008,001,1,28,m,2021_Nov_08_1735,eye_tracking_exp,2021.2.3,85.00880128353698,
180,0,180,0,12,0,12,180,180,180,j,abs,resp,pract,0,42,42,7,,,,,,,0.7346836159995891,869.6562259559432,None,869.6562259559432,None,j,1,1.4531275413100957,,,,,,,,,,,,008,001,1,28,m,2021_Nov_08_1735,eye_tracking_exp,2021.2.3,85.00880128353698,
0,0,168,0,0,0,0,0,168,0,f,abs,resp,pract,0,43,43,11,,,,,,,0.9420940878303173,872.3861383687981,None,872.3861383687981,None,f,1,1.8112121848389506,,,,,,,,,,,,008,001,1,28,m,2021_Nov_08_1735,eye_tracking_exp,2021.2.3,85.00880128353698,
0,0,0,-168,0,0,0,12,0,0,None,abs,inhibit,pract,0,44,44,23,,,,,,,0.873801094598379,875.1276064171616,None,875.1276064171616,None,None,1,,,,,,,,,,,,,008,001,1,28,m,2021_Nov_08_1735,eye_tracking_exp,2021.2.3,85.00880128353698,
90,0,180,168,180,180,0,168,0,0,f,present,resp,pract,0,45,45,46,,,,,,,0.8682098466585555,879.293059404532,None,879.293059404532,None,f,1,1.9915248326506116,,,,,,,,,,,,008,001,1,28,m,2021_Nov_08_1735,eye_tracking_exp,2021.2.3,85.00880128353698,
0,0,168,0,0,0,0,0,180,168,f,abs,resp,pract,0,46,46,19,,,,,,,0.9191444212410934,882.2489971864779,None,882.2489971864779,None,f,1,2.203489230312698,,,,,,,,,,,,008,001,1,28,m,2021_Nov_08_1735,eye_tracking_exp,2021.2.3,85.00880128353698,
12,0,0,12,0,0,90,180,180,0,j,present,resp,pract,0,47,47,38,,,,,,,0.9290364074280137,885.6832769431494,None,885.6832769431494,None,j,1,1.3933426802323083,,,,,,,,,,,,008,001,1,28,m,2021_Nov_08_1735,eye_tracking_exp,2021.2.3,85.00880128353698,
180,168,0,180,0,180,180,180,168,180,f,abs,resp,pract,0,48,48,12,,,,,,,0.8129940175243988,888.3900249597864,None,888.3900249597864,None,f,1,1.8065911983940168,,,,,,,,,,,,008,001,1,28,m,2021_Nov_08_1735,eye_tracking_exp,2021.2.3,85.00880128353698,
0,0,180,0,168,0,0,0,180,168,f,abs,resp,pract,0,49,49,17,,,,,,,0.9476086728587964,891.566706077916,None,891.566706077916,None,f,1,1.8139411898882827,,,,,,,,,,,,008,001,1,28,m,2021_Nov_08_1735,eye_tracking_exp,2021.2.3,85.00880128353698,
,,,,,,,,,,,,,,,,,,,,,,,,,,,,,,,,space,13.17576783936238,,,,,,,,,,008,001,1,28,m,2021_Nov_08_1735,eye_tracking_exp,2021.2.3,85.00880128353698,
270,180,0,-12,180,180,0,180,0,-12,j,present,resp,freq_top,,,,,0,0,0,620,,,0.893068435837281,,,,,,,,,,908.743781409139,None,908.743781409139,None,j,1,1.211169141352002,None,None,008,001,1,28,m,2021_Nov_08_1735,eye_tracking_exp,2021.2.3,85.00880128353698,
-168,0,90,0,180,180,180,0,-168,0,f,present,resp,freq_top,,,,,0,1,1,825,,,0.8410775158206656,,,,,,,,,,911.132536193807,None,911.132536193807,None,None,0,,914.1221728567107,None,008,001,1,28,m,2021_Nov_08_1735,eye_tracking_exp,2021.2.3,85.00880128353698,
0,90,0,12,0,0,168,180,180,0,None,present,inhibit,freq_top,,,,,0,2,2,948,,,0.714990299293481,,,,,,,,,,915.357407900985,None,915.357407900985,None,None,1,,None,None,008,001,1,28,m,2021_Nov_08_1735,eye_tracking_exp,2021.2.3,85.00880128353698,
0,12,0,0,0,0,-12,0,0,0,j,abs,resp,freq_top,,,,,0,3,3,166,,,0.8386552312086313,,,,,,,,,,919.3113534881049,None,919.3113534881049,None,j,1,2.7558868216874544,None,None,008,001,1,28,m,2021_Nov_08_1735,eye_tracking_exp,2021.2.3,85.00880128353698,
180,0,-168,0,0,0,-168,0,0,0,f,abs,resp,freq_top,,,,,0,4,4,331,,,0.9378839677546265,,,,,,,,,,923.3015093290596,None,923.3015093290596,None,f,1,1.629621815707651,None,None,008,001,1,28,m,2021_Nov_08_1735,eye_tracking_exp,2021.2.3,85.00880128353698,
270,0,-168,0,0,0,-168,180,180,0,f,present,resp,freq_top,,,,,0,5,5,835,,,0.945883341930388,,,,,,,,,,926.1611534687254,None,926.1611534687254,None,f,1,1.0569844304773142,None,None,008,001,1,28,m,2021_Nov_08_1735,eye_tracking_exp,2021.2.3,85.00880128353698,
12,0,180,0,180,0,180,12,0,0,j,abs,resp,freq_top,,,,,0,6,6,68,,,0.8909019054215116,,,,,,,,,,928.3851452898598,None,928.3851452898598,None,j,1,1.184996832802426,None,None,008,001,1,28,m,2021_Nov_08_1735,eye_tracking_exp,2021.2.3,85.00880128353698,
0,0,168,0,0,0,0,0,168,0,f,abs,resp,freq_top,,,,,0,7,7,249,,,0.9646787170314077,,,,,,,,,,930.7972434664334,None,930.7972434664334,None,f,1,1.3809995240735589,None,None,008,001,1,28,m,2021_Nov_08_1735,eye_tracking_exp,2021.2.3,85.00880128353698,
0,-12,0,90,0,0,-12,0,0,0,j,present,resp,freq_top,,,,,0,8,8,600,,,0.7903183862659979,,,,,,,,,,933.2923002575699,None,933.2923002575699,None,j,1,2.08592649352795,None,None,008,001,1,28,m,2021_Nov_08_1735,eye_tracking_exp,2021.2.3,85.00880128353698,
168,0,0,90,0,180,12,0,180,180,None,present,inhibit,freq_top,,,,,0,9,9,991,,,0.7245920680893403,,,,,,,,,,936.3995953429767,None,936.3995953429767,None,None,1,,None,None,008,001,1,28,m,2021_Nov_08_1735,eye_tracking_exp,2021.2.3,85.00880128353698,
0,168,0,180,0,180,180,168,0,0,f,abs,resp,freq_top,,,,,0,10,10,243,,,1.0710904206416325,,,,,,,,,,940.729424928817,None,940.729424928817,None,f,1,0.9839514738487196,None,None,008,001,1,28,m,2021_Nov_08_1735,eye_tracking_exp,2021.2.3,85.00880128353698,
0,0,-168,0,0,0,0,0,180,-168,f,abs,resp,freq_top,,,,,0,11,11,327,,,0.7153841871828499,,,,,,,,,,942.7770392906095,None,942.7770392906095,None,f,1,1.224393390948535,None,None,008,001,1,28,m,2021_Nov_08_1735,eye_tracking_exp,2021.2.3,85.00880128353698,
180,168,0,180,0,180,168,0,180,180,f,abs,resp,freq_top,,,,,0,12,12,269,,,0.8392905436418044,,,,,,,,,,945.1314972340188,None,945.1314972340188,None,f,1,1.0299464227282442,None,None,008,001,1,28,m,2021_Nov_08_1735,eye_tracking_exp,2021.2.3,85.00880128353698,
0,0,180,180,168,0,0,270,-168,0,f,present,resp,freq_top,,,,,0,13,13,891,,,0.713928215000901,,,,,,,,,,947.1551503216615,None,947.1551503216615,None,f,1,2.191322655053227,None,None,008,001,1,28,m,2021_Nov_08_1735,eye_tracking_exp,2021.2.3,85.00880128353698,
180,180,270,0,-12,0,0,12,180,0,j,present,resp,freq_top,,,,,0,14,14,674,,,0.9504797848910038,,,,,,,,,,950.6267321152991,None,950.6267321152991,None,j,1,1.8547727320110425,None,None,008,001,1,28,m,2021_Nov_08_1735,eye_tracking_exp,2021.2.3,85.00880128353698,
0,12,0,0,270,0,12,180,180,180,j,present,resp,freq_top,,,,,0,15,15,530,,,0.8087573100326458,,,,,,,,,,953.5709708840732,None,953.5709708840732,None,j,1,1.406595605367329,None,None,008,001,1,28,m,2021_Nov_08_1735,eye_tracking_exp,2021.2.3,85.00880128353698,
90,180,168,0,0,180,180,12,180,180,None,present,inhibit,freq_top,,,,,0,16,16,976,,,0.9350734170790113,,,,,,,,,,956.1812278500365,None,956.1812278500365,None,None,1,,None,None,008,001,1,28,m,2021_Nov_08_1735,eye_tracking_exp,2021.2.3,85.00880128353698,
0,90,0,-12,0,0,-12,180,180,180,j,present,resp,freq_top,,,,,0,17,17,598,,,0.749503104104495,,,,,,,,,,960.1822698282995,None,960.1822698282995,None,j,1,1.6757773475692375,None,None,008,001,1,28,m,2021_Nov_08_1735,eye_tracking_exp,2021.2.3,85.00880128353698,
0,168,0,-168,180,0,0,180,0,0,f,abs,resp,freq_top,,,,,0,18,18,406,,,0.7650945153494326,,,,,,,,,,962.8538547007774,None,962.8538547007774,None,None,0,,965.8430047851944,None,008,001,1,28,m,2021_Nov_08_1735,eye_tracking_exp,2021.2.3,85.00880128353698,
180,180,168,0,0,0,0,168,0,180,f,abs,resp,freq_top,,,,,0,19,19,242,,,0.9987239896330805,,,,,,,,,,967.3609597428731,None,967.3609597428731,None,f,1,1.8557824125746265,None,None,008,001,1,28,m,2021_Nov_08_1735,eye_tracking_exp,2021.2.3,85.00880128353698,
-168,0,0,-168,0,0,0,0,0,0,f,abs,resp,freq_top,,,,,0,20,20,286,,,1.0102412670110335,,,,,,,,,,970.5021755673006,None,970.5021755673006,None,f,1,1.1939128101730603,None,None,008,001,1,28,m,2021_Nov_08_1735,eye_tracking_exp,2021.2.3,85.00880128353698,
0,180,168,0,180,168,180,0,180,180,f,abs,resp,freq_top,,,,,0,21,21,260,,,0.8829526798880607,,,,,,,,,,972.8676690626307,None,972.8676690626307,None,f,1,2.3161765230397577,None,None,008,001,1,28,m,2021_Nov_08_1735,eye_tracking_exp,2021.2.3,85.00880128353698,
0,180,180,180,180,12,0,12,0,0,j,abs,resp,freq_top,,,,,0,22,22,14,,,1.0516136333135724,,,,,,,,,,976.5394655303535,None,976.5394655303535,None,j,1,1.3324313235498266,None,None,008,001,1,28,m,2021_Nov_08_1735,eye_tracking_exp,2021.2.3,85.00880128353698,
12,0,0,180,0,180,-12,180,0,180,j,abs,resp,freq_top,,,,,0,23,23,167,,,0.8642693539333053,,,,,,,,,,978.9989045946932,None,978.9989045946932,None,f,0,1.3850159095745767,980.4000242685579,None,008,001,1,28,m,2021_Nov_08_1735,eye_tracking_exp,2021.2.3,85.00880128353698,
168,0,180,0,0,0,0,270,-168,0,f,present,resp,freq_top,,,,,0,24,24,895,,,0.9850855655705484,,,,,,,,,,981.917707261462,None,981.917707261462,None,None,0,,984.9092114560844,None,008,001,1,28,m,2021_Nov_08_1735,eye_tracking_exp,2021.2.3,85.00880128353698,
180,180,168,0,180,0,-168,180,0,180,f,abs,resp,freq_top,,,,,0,25,25,375,,,0.9997472199293577,,,,,,,,,,986.437732290673,None,986.437732290673,None,f,1,1.6893152169213863,None,None,008,001,1,28,m,2021_Nov_08_1735,eye_tracking_exp,2021.2.3,85.00880128353698,
0,0,270,180,12,180,180,180,-12,0,j,present,resp,freq_top,,,,,0,26,26,681,,,0.8538868038905495,,,,,,,,,,989.2757402890347,None,989.2757402890347,None,j,1,2.484375720785465,None,None,008,001,1,28,m,2021_Nov_08_1735,eye_tracking_exp,2021.2.3,85.00880128353698,
0,12,0,90,180,180,180,180,0,12,j,present,resp,freq_top,,,,,0,27,27,566,,,0.82084764373339,,,,,,,,,,992.8991077080136,None,992.8991077080136,None,j,1,2.139996773941675,None,None,008,001,1,28,m,2021_Nov_08_1735,eye_tracking_exp,2021.2.3,85.00880128353698,
180,180,90,0,0,180,180,168,0,-168,f,present,resp,freq_top,,,,,0,28,28,882,,,1.013483361158654,,,,,,,,,,996.2417510305822,None,996.2417510305822,None,f,1,1.77341028808587,None,None,008,001,1,28,m,2021_Nov_08_1735,eye_tracking_exp,2021.2.3,85.00880128353698,
180,0,180,0,180,-168,180,0,-168,180,f,abs,resp,freq_top,,,,,0,29,29,295,,,0.8836144295065417,,,,,,,,,,999.1830449731933,None,999.1830449731933,None,f,1,1.440192763649975,None,None,008,001,1,28,m,2021_Nov_08_1735,eye_tracking_exp,2021.2.3,85.00880128353698,
90,0,180,0,-12,0,0,0,180,12,j,present,resp,freq_top,,,,,0,30,30,689,,,0.7833711066663933,,,,,,,,,,1001.702003574479,None,1001.702003574479,None,j,1,1.4164400662702974,None,None,008,001,1,28,m,2021_Nov_08_1735,eye_tracking_exp,2021.2.3,85.00880128353698,
0,-168,0,0,270,-168,180,0,0,0,f,present,resp,freq_top,,,,,0,31,31,842,,,0.7167211522456635,,,,,,,,,,1004.0434561078728,None,1004.0434561078728,None,f,1,1.458809522424417,None,None,008,001,1,28,m,2021_Nov_08_1735,eye_tracking_exp,2021.2.3,85.00880128353698,
180,0,0,180,180,-168,180,180,0,-168,f,abs,resp,freq_top,,,,,0,32,32,324,,,0.9270442246493997,,,,,,,,,,1006.7145625517514,None,1006.7145625517514,None,f,1,1.875768654354033,None,None,008,001,1,28,m,2021_Nov_08_1735,eye_tracking_exp,2021.2.3,85.00880128353698,
90,180,180,-12,0,12,180,0,180,180,j,present,resp,freq_top,,,,,0,33,33,661,,,0.7849050837771399,,,,,,,,,,1009.6567997684251,None,1009.6567997684251,None,j,1,2.0215478123136563,None,None,008,001,1,28,m,2021_Nov_08_1735,eye_tracking_exp,2021.2.3,85.00880128353698,
0,12,0,0,0,12,0,180,0,0,j,abs,resp,freq_top,,,,,0,34,34,58,,,0.8847829059090121,,,,,,,,,,1012.8101764329986,None,1012.8101764329986,None,j,1,1.925348950215266,None,None,008,001,1,28,m,2021_Nov_08_1735,eye_tracking_exp,2021.2.3,85.00880128353698,
0,12,0,-12,180,180,180,180,270,0,j,present,resp,freq_top,,,,,0,35,35,700,,,0.7789202659006247,,,,,,,,,,1015.6940966739712,None,1015.6940966739712,None,f,0,1.9203892906516558,1017.6354968669693,None,008,001,1,28,m,2021_Nov_08_1735,eye_tracking_exp,2021.2.3,85.00880128353698,
90,180,0,180,180,168,180,0,-168,180,f,present,resp,freq_top,,,,,0,36,36,890,,,0.9781239859088753,,,,,,,,,,1019.1548213076676,None,1019.1548213076676,None,f,1,2.5387034772793413,None,None,008,001,1,28,m,2021_Nov_08_1735,eye_tracking_exp,2021.2.3,85.00880128353698,
0,168,0,270,0,168,180,180,0,0,f,present,resp,freq_top,,,,,0,37,37,772,,,0.7274791786908273,,,,,,,,,,1022.683524458269,None,1022.683524458269,None,f,1,2.8660645526397275,None,None,008,001,1,28,m,2021_Nov_08_1735,eye_tracking_exp,2021.2.3,85.00880128353698,
0,-168,180,270,0,180,0,-168,0,0,f,present,resp,freq_top,,,,,0,38,38,817,,,0.7655919026893765,,,,,,,,,,1026.5783927153316,None,1026.5783927153316,None,None,0,,1029.557001372501,None,008,001,1,28,m,2021_Nov_08_1735,eye_tracking_exp,2021.2.3,85.00880128353698,
0,180,180,0,0,0,-168,0,0,-168,f,abs,resp,freq_top,,,,,0,39,39,302,,,1.099382786255768,,,,,,,,,,1031.1930711464083,None,1031.1930711464083,None,f,1,1.572629347712791,None,None,008,001,1,28,m,2021_Nov_08_1735,eye_tracking_exp,2021.2.3,85.00880128353698,
180,180,-12,180,180,0,0,180,0,12,j,abs,resp,freq_top,,,,,0,40,40,194,,,0.8564786123675946,,,,,,,,,,1033.6876564514387,None,1033.6876564514387,None,j,1,2.9490433909959393,None,None,008,001,1,28,m,2021_Nov_08_1735,eye_tracking_exp,2021.2.3,85.00880128353698,
0,0,0,12,0,0,12,0,180,0,j,abs,resp,freq_top,,,,,0,41,41,24,,,0.8521217102441497,,,,,,,,,,1037.7460075359268,None,1037.7460075359268,None,j,1,2.026774305246363,None,None,008,001,1,28,m,2021_Nov_08_1735,eye_tracking_exp,2021.2.3,85.00880128353698,
-168,180,90,0,0,180,180,168,0,0,f,present,resp,freq_top,,,,,0,42,42,922,,,1.089262772883025,,,,,,,,,,1055.9597905659903,None,1055.9597905659903,None,f,1,1.6203445266364724,None,None,008,001,1,28,m,2021_Nov_08_1735,eye_tracking_exp,2021.2.3,85.00880128353698,
180,-12,180,180,0,180,0,180,0,-12,j,abs,resp,freq_top,,,,,0,43,43,118,,,0.9060486031185515,,,,,,,,,,1058.7609142846122,None,1058.7609142846122,None,j,1,1.5391209326553508,None,None,008,001,1,28,m,2021_Nov_08_1735,eye_tracking_exp,2021.2.3,85.00880128353698,
0,168,0,0,168,180,180,270,0,0,f,present,resp,freq_top,,,,,0,44,44,726,,,0.7229831776786768,,,,,,,,,,1061.2911423697878,None,1061.2911423697878,None,f,1,1.8730085589850205,None,None,008,001,1,28,m,2021_Nov_08_1735,eye_tracking_exp,2021.2.3,85.00880128353698,
0,180,0,12,0,12,0,180,180,180,j,abs,resp,freq_top,,,,,0,45,45,0,,,0.9042817812715951,,,,,,,,,,1064.4573792556403,None,1064.4573792556403,None,j,1,1.5057598192652222,None,None,008,001,1,28,m,2021_Nov_08_1735,eye_tracking_exp,2021.2.3,85.00880128353698,
0,-12,0,90,180,180,180,180,0,-12,j,present,resp,freq_top,,,,,0,46,46,636,,,0.9986899131003231,,,,,,,,,,1067.3280242347464,None,1067.3280242347464,None,j,1,1.7711714836914325,None,None,008,001,1,28,m,2021_Nov_08_1735,eye_tracking_exp,2021.2.3,85.00880128353698,
-12,0,-12,0,270,0,0,0,180,180,j,present,resp,freq_top,,,,,0,47,47,629,,,0.7154447939967382,,,,,,,,,,1070.0934272965096,None,1070.0934272965096,None,j,1,1.7418201151594985,None,None,008,001,1,28,m,2021_Nov_08_1735,eye_tracking_exp,2021.2.3,85.00880128353698,
168,0,180,0,0,180,180,0,168,0,f,abs,resp,freq_top,,,,,0,48,48,251,,,1.0229982998624203,,,,,,,,,,1073.1425696113656,None,1073.1425696113656,None,f,1,1.4287968055796227,None,None,008,001,1,28,m,2021_Nov_08_1735,eye_tracking_exp,2021.2.3,85.00880128353698,
0,180,0,0,180,0,180,168,0,168,f,abs,resp,freq_top,,,,,0,49,49,252,,,0.7039026851925161,,,,,,,,,,1075.6140285529837,None,1075.6140285529837,None,f,1,1.4373152495318209,None,None,008,001,1,28,m,2021_Nov_08_1735,eye_tracking_exp,2021.2.3,85.00880128353698,
180,180,0,12,180,0,180,0,168,0,None,abs,inhibit,freq_top,,,,,0,50,50,458,,,0.9942024176873613,,,,,,,,,,1078.3086413865167,None,1078.3086413865167,None,f,0,2.8378263984195655,1081.1584096731312,None,008,001,1,28,m,2021_Nov_08_1735,eye_tracking_exp,2021.2.3,85.00880128353698,
0,270,0,-168,0,-12,0,0,0,0,None,present,inhibit,freq_top,,,,,0,51,51,994,,,0.9412707769390387,,,,,,,,,,1082.6272214104174,None,1082.6272214104174,None,None,1,,None,None,008,001,1,28,m,2021_Nov_08_1735,eye_tracking_exp,2021.2.3,85.00880128353698,
-12,0,90,180,180,180,0,-12,180,180,j,present,resp,freq_top,,,,,0,52,52,608,,,0.8470049050267878,,,,,,,,,,1086.74533713219,None,1086.74533713219,None,j,1,1.8731932897717343,None,None,008,001,1,28,m,2021_Nov_08_1735,eye_tracking_exp,2021.2.3,85.00880128353698,
0,0,-168,0,-168,0,0,0,0,0,f,abs,resp,freq_top,,,,,0,53,53,329,,,0.7027782645655655,,,,,,,,,,1089.6049882143561,None,1089.6049882143561,None,None,0,,1092.6050636762811,None,008,001,1,28,m,2021_Nov_08_1735,eye_tracking_exp,2021.2.3,85.00880128353698,
12,0,270,180,180,0,0,-168,180,0,None,present,inhibit,freq_top,,,,,0,54,54,958,,,0.9595088715003359,,,,,,,,,,1094.0756928385745,None,1094.0756928385745,None,None,1,,None,None,008,001,1,28,m,2021_Nov_08_1735,eye_tracking_exp,2021.2.3,85.00880128353698,
180,0,-12,0,0,0,0,12,180,180,j,abs,resp,freq_top,,,,,0,55,55,172,,,1.0188203690091833,,,,,,,,,,1098.4423602196111,None,1098.4423602196111,None,f,0,2.063299084373284,1100.526955452413,None,008,001,1,28,m,2021_Nov_08_1735,eye_tracking_exp,2021.2.3,85.00880128353698,
12,180,90,180,-12,180,0,180,180,180,j,present,resp,freq_top,,,,,0,56,56,657,,,1.009323897392322,,,,,,,,,,1102.0668411547595,None,1102.0668411547595,None,j,1,2.2308689296696684,None,None,008,001,1,28,m,2021_Nov_08_1735,eye_tracking_exp,2021.2.3,85.00880128353698,
0,-168,0,0,0,0,0,12,0,0,None,abs,inhibit,freq_top,,,,,0,57,57,480,,,0.821361554317418,,,,,,,,,,1105.340865439619,None,1105.340865439619,None,None,1,,None,None,008,001,1,28,m,2021_Nov_08_1735,eye_tracking_exp,2021.2.3,85.00880128353698,
0,90,0,0,0,-12,0,-12,0,0,j,present,resp,freq_top,,,,,0,58,58,588,,,0.9353345497016852,,,,,,,,,,1109.6585362982441,None,1109.6585362982441,None,j,1,1.4863760654989164,None,None,008,001,1,28,m,2021_Nov_08_1735,eye_tracking_exp,2021.2.3,85.00880128353698,
0,0,180,180,12,0,0,0,168,0,None,abs,inhibit,freq_top,,,,,0,59,59,457,,,0.9208869681735206,,,,,,,,,,1112.1298316384054,None,1112.1298316384054,None,None,1,,None,None,008,001,1,28,m,2021_Nov_08_1735,eye_tracking_exp,2021.2.3,85.00880128353698,
0,90,180,0,-12,0,0,0,180,-12,j,present,resp,freq_top,,,,,0,60,60,619,,,1.0714745640276775,,,,,,,,,,1116.5071337176269,None,1116.5071337176269,None,f,0,1.837671550551022,1118.3783959752836,None,008,001,1,28,m,2021_Nov_08_1735,eye_tracking_exp,2021.2.3,85.00880128353698,
270,180,180,-168,180,180,12,180,180,180,None,present,inhibit,freq_top,,,,,0,61,61,925,,,0.7374620804721865,,,,,,,,,,1119.6500447187354,None,1119.6500447187354,None,None,1,,None,None,008,001,1,28,m,2021_Nov_08_1735,eye_tracking_exp,2021.2.3,85.00880128353698,
0,0,12,0,270,0,0,0,12,0,j,present,resp,freq_top,,,,,0,62,62,543,,,1.0044546655777178,,,,,,,,,,1124.0033815997886,None,1124.0033815997886,None,j,1,2.037652594517567,None,None,008,001,1,28,m,2021_Nov_08_1735,eye_tracking_exp,2021.2.3,85.00880128353698,
90,180,12,180,168,180,0,180,0,180,None,present,inhibit,freq_top,,,,,0,63,63,1005,,,0.8044910890995506,,,,,,,,,,1127.0985979476172,None,1127.0985979476172,None,None,1,,None,None,008,001,1,28,m,2021_Nov_08_1735,eye_tracking_exp,2021.2.3,85.00880128353698,
0,0,-168,0,0,168,0,0,0,0,f,abs,resp,freq_top,,,,,0,64,64,368,,,0.8692414197207273,,,,,,,,,,1130.9702550220682,None,1130.9702550220682,None,None,0,,1133.9482044438628,None,008,001,1,28,m,2021_Nov_08_1735,eye_tracking_exp,2021.2.3,85.00880128353698,
180,0,0,180,180,-12,180,180,0,12,j,abs,resp,freq_top,,,,,0,65,65,184,,,0.8956345277011412,,,,,,,,,,1135.3842608761042,None,1135.3842608761042,None,j,1,1.663960010104347,None,None,008,001,1,28,m,2021_Nov_08_1735,eye_tracking_exp,2021.2.3,85.00880128353698,
-12,0,180,0,180,0,-12,180,0,180,j,abs,resp,freq_top,,,,,0,66,66,97,,,0.756642085700495,,,,,,,,,,1138.0788139437936,None,1138.0788139437936,None,j,1,1.7373905001586536,None,None,008,001,1,28,m,2021_Nov_08_1735,eye_tracking_exp,2021.2.3,85.00880128353698,
180,180,-12,0,0,0,0,-12,180,0,j,abs,resp,freq_top,,,,,0,67,67,102,,,0.7929933261762917,,,,,,,,,,1140.9028107756021,None,1140.9028107756021,None,j,1,2.4015571635609376,None,None,008,001,1,28,m,2021_Nov_08_1735,eye_tracking_exp,2021.2.3,85.00880128353698,
168,180,0,180,0,180,180,168,0,0,f,abs,resp,freq_top,,,,,0,68,68,278,,,0.9934193962550433,,,,,,,,,,1144.5745369128053,None,1144.5745369128053,None,None,0,,1147.5644096206088,None,008,001,1,28,m,2021_Nov_08_1735,eye_tracking_exp,2021.2.3,85.00880128353698,
270,0,168,0,180,180,180,180,12,0,None,present,inhibit,freq_top,,,,,0,69,69,977,,,0.9815049063012327,,,,,,,,,,1149.0697192725856,None,1149.0697192725856,None,None,1,,None,None,008,001,1,28,m,2021_Nov_08_1735,eye_tracking_exp,2021.2.3,85.00880128353698,
180,180,90,180,-12,0,12,0,0,180,j,present,resp,freq_top,,,,,0,70,70,651,,,0.893909738388676,,,,,,,,,,1153.3061055639919,None,1153.3061055639919,None,None,0,,1156.2954316256073,None,008,001,1,28,m,2021_Nov_08_1735,eye_tracking_exp,2021.2.3,85.00880128353698,
90,180,0,-168,180,0,0,0,-168,180,f,present,resp,freq_top,,,,,0,71,71,822,,,1.037591708541135,,,,,,,,,,1158.5190642479793,None,1158.5190642479793,None,j,0,2.63946295628557,1161.1909216889326,None,008,001,1,28,m,2021_Nov_08_1735,eye_tracking_exp,2021.2.3,85.00880128353698,
-168,0,0,180,180,168,0,0,0,0,f,abs,resp,freq_top,,,,,0,72,72,370,,,0.8858341948402325,,,,,,,,,,1162.6158514112467,None,1162.6158514112467,None,None,0,,1165.6043247531125,None,008,001,1,28,m,2021_Nov_08_1735,eye_tracking_exp,2021.2.3,85.00880128353698,
180,-168,0,270,180,180,180,0,-168,180,f,present,resp,freq_top,,,,,0,73,73,824,,,1.0518521094052669,,,,,,,,,,1167.1806449821306,None,1167.1806449821306,None,None,0,,1170.158761325707,None,008,001,1,28,m,2021_Nov_08_1735,eye_tracking_exp,2021.2.3,85.00880128353698,
180,-12,180,0,180,12,180,0,180,0,j,abs,resp,freq_top,,,,,0,74,74,159,,,1.0018718930808381,,,,,,,,,,1171.700036131173,None,1171.700036131173,None,j,1,1.4426987032638863,None,None,008,001,1,28,m,2021_Nov_08_1735,eye_tracking_exp,2021.2.3,85.00880128353698,
180,270,0,180,180,180,180,168,0,168,f,present,resp,freq_top,,,,,0,75,75,756,,,0.7026415129369624,,,,,,,,,,1174.1009511522861,None,1174.1009511522861,None,None,0,,1177.0787668555568,None,008,001,1,28,m,2021_Nov_08_1735,eye_tracking_exp,2021.2.3,85.00880128353698,
0,180,0,180,-12,180,12,180,180,180,j,abs,resp,freq_top,,,,,0,76,76,147,,,0.7977675146464042,,,,,,,,,,1178.9728768711939,None,1178.9728768711939,None,j,1,2.008921824861318,None,None,008,001,1,28,m,2021_Nov_08_1735,eye_tracking_exp,2021.2.3,85.00880128353698,
180,-168,0,180,0,180,0,180,-168,180,f,abs,resp,freq_top,,,,,0,77,77,320,,,0.9943015553110638,,,,,,,,,,1182.492428603211,None,1182.492428603211,None,j,0,1.4974351615455816,1184.0125272832593,None,008,001,1,28,m,2021_Nov_08_1735,eye_tracking_exp,2021.2.3,85.00880128353698,
0,180,-12,180,180,270,180,12,180,180,j,present,resp,freq_top,,,,,0,78,78,696,,,0.7737875163491148,,,,,,,,,,1185.3156928506505,None,1185.3156928506505,None,None,0,,1188.3056872030793,None,008,001,1,28,m,2021_Nov_08_1735,eye_tracking_exp,2021.2.3,85.00880128353698,
0,0,180,12,0,180,0,12,0,0,j,abs,resp,freq_top,,,,,0,79,79,31,,,0.7086640658109788,,,,,,,,,,1189.5409741651602,None,1189.5409741651602,None,None,0,,1192.5307650722389,None,008,001,1,28,m,2021_Nov_08_1735,eye_tracking_exp,2021.2.3,85.00880128353698,
180,270,180,180,168,180,-168,0,180,180,f,present,resp,freq_top,,,,,0,80,80,877,,,1.0355263975950857,,,,,,,,,,1194.0837388908767,None,1194.0837388908767,None,None,0,,1197.0725587538982,None,008,001,1,28,m,2021_Nov_08_1735,eye_tracking_exp,2021.2.3,85.00880128353698,
180,90,0,0,12,0,0,-168,180,180,None,present,inhibit,freq_top,,,,,0,81,81,954,,,0.9484462569089545,,,,,,,,,,1199.096022583035,None,1199.096022583035,None,None,1,,None,None,008,001,1,28,m,2021_Nov_08_1735,eye_tracking_exp,2021.2.3,85.00880128353698,
12,180,90,180,12,180,180,180,0,180,j,present,resp,freq_top,,,,,0,82,82,517,,,0.9020969392198066,,,,,,,,,,1203.5687821863976,None,1203.5687821863976,None,j,1,1.764408585971978,None,None,008,001,1,28,m,2021_Nov_08_1735,eye_tracking_exp,2021.2.3,85.00880128353698,
-168,0,0,180,90,180,-168,180,180,180,f,present,resp,freq_top,,,,,0,83,83,851,,,0.9392581868364223,,,,,,,,,,1265.4410963832925,None,1265.4410963832925,None,None,0,,1268.4190261849872,None,008,001,1,28,m,2021_Nov_08_1735,eye_tracking_exp,2021.2.3,85.00880128353698,
12,180,0,0,0,12,0,180,180,180,j,abs,resp,freq_top,,,,,0,84,84,66,,,0.7711223042572759,,,,,,,,,,1270.0192811255547,None,1270.0192811255547,None,None,0,,1273.0080279414397,None,008,001,1,28,m,2021_Nov_08_1735,eye_tracking_exp,2021.2.3,85.00880128353698,
0,12,0,0,180,180,168,0,0,0,None,abs,inhibit,freq_top,,,,,0,85,85,446,,,0.7445160615702817,,,,,,,,,,1274.2786338010847,None,1274.2786338010847,None,None,1,,None,None,008,001,1,28,m,2021_Nov_08_1735,eye_tracking_exp,2021.2.3,85.00880128353698,
270,0,180,0,180,-12,0,-12,0,0,j,present,resp,freq_top,,,,,0,86,86,603,,,0.8159463809284573,,,,,,,,,,1278.1031866363555,None,1278.1031866363555,None,j,1,1.530311205671751,None,None,008,001,1,28,m,2021_Nov_08_1735,eye_tracking_exp,2021.2.3,85.00880128353698,
0,180,0,180,180,168,180,180,168,180,f,abs,resp,freq_top,,,,,0,87,87,225,,,0.7148844389069375,,,,,,,,,,1280.6447904558154,None,1280.6447904558154,None,f,1,1.4685033613131964,None,None,008,001,1,28,m,2021_Nov_08_1735,eye_tracking_exp,2021.2.3,85.00880128353698,
180,180,0,-12,0,180,0,180,0,12,j,abs,resp,freq_top,,,,,0,88,88,186,,,0.9001357737263791,,,,,,,,,,1283.0686715592165,None,1283.0686715592165,None,j,1,1.5716697738753282,None,None,008,001,1,28,m,2021_Nov_08_1735,eye_tracking_exp,2021.2.3,85.00880128353698,
0,270,0,168,0,180,180,180,180,-168,f,present,resp,freq_top,,,,,0,89,89,858,,,0.894432516591906,,,,,,,,,,1285.8005384359276,None,1285.8005384359276,None,f,1,1.5439900379133178,None,None,008,001,1,28,m,2021_Nov_08_1735,eye_tracking_exp,2021.2.3,85.00880128353698,
180,90,0,0,-168,0,0,-168,180,180,f,present,resp,freq_top,,,,,0,90,90,814,,,0.9650756437760359,,,,,,,,,,1288.5648313018464,None,1288.5648313018464,None,f,1,1.3715891201718478,None,None,008,001,1,28,m,2021_Nov_08_1735,eye_tracking_exp,2021.2.3,85.00880128353698,
180,180,168,0,270,0,0,168,0,180,f,present,resp,freq_top,,,,,0,91,91,746,,,0.7413712716263852,,,,,,,,,,1290.7182245680524,None,1290.7182245680524,None,f,1,1.8421763256337726,None,None,008,001,1,28,m,2021_Nov_08_1735,eye_tracking_exp,2021.2.3,85.00880128353698,
180,180,0,180,-12,180,0,180,12,180,j,abs,resp,freq_top,,,,,0,92,92,149,,,0.9302746570086478,,,,,,,,,,1293.683317994437,None,1293.683317994437,None,None,0,,1296.6732290369036,None,008,001,1,28,m,2021_Nov_08_1735,eye_tracking_exp,2021.2.3,85.00880128353698,
0,-12,180,180,0,180,180,-12,0,0,j,abs,resp,freq_top,,,,,0,93,93,103,,,0.8473888702470203,,,,,,,,,,1298.0382770050346,None,1298.0382770050346,None,j,1,1.6572617077763425,None,None,008,001,1,28,m,2021_Nov_08_1735,eye_tracking_exp,2021.2.3,85.00880128353698,
180,180,270,180,-168,180,168,180,180,180,f,present,resp,freq_top,,,,,0,94,94,861,,,0.9977479833755056,,,,,,,,,,1300.9683370817802,None,1300.9683370817802,None,None,0,,1303.9578004841023,None,008,001,1,28,m,2021_Nov_08_1735,eye_tracking_exp,2021.2.3,85.00880128353698,
180,0,-168,0,90,180,-168,0,180,0,f,present,resp,freq_top,,,,,0,95,95,809,,,0.724439224692916,,,,,,,,,,1305.2048724859487,None,1305.2048724859487,None,j,0,1.756319067600998,1306.9702779624931,None,008,001,1,28,m,2021_Nov_08_1735,eye_tracking_exp,2021.2.3,85.00880128353698,
180,0,180,12,180,-168,180,180,180,180,None,abs,inhibit,freq_top,,,,,0,96,96,437,,,0.8893230489321873,,,,,,,,,,1308.3939024953434,None,1308.3939024953434,None,None,1,,None,None,008,001,1,28,m,2021_Nov_08_1735,eye_tracking_exp,2021.2.3,85.00880128353698,
180,12,0,180,180,180,180,180,168,180,None,abs,inhibit,freq_top,,,,,0,97,97,460,,,0.8441678013774186,,,,,,,,,,1312.2422336850577,None,1312.2422336850577,None,None,1,,None,None,008,001,1,28,m,2021_Nov_08_1735,eye_tracking_exp,2021.2.3,85.00880128353698,
180,-12,180,270,180,-12,180,180,0,180,j,present,resp,freq_top,,,,,0,98,98,593,,,1.0832471969157278,,,,,,,,,,1316.6092267597633,None,1316.6092267597633,None,j,1,2.446755536358978,None,None,008,001,1,28,m,2021_Nov_08_1735,eye_tracking_exp,2021.2.3,85.00880128353698,
180,0,180,0,180,180,-168,180,168,180,f,abs,resp,freq_top,,,,,0,99,99,371,,,0.7913259776140278,,,,,,,,,,1321.079913273119,None,1321.079913273119,None,f,1,1.894734349058126,None,None,008,001,1,28,m,2021_Nov_08_1735,eye_tracking_exp,2021.2.3,85.00880128353698,
168,0,180,0,180,180,12,180,180,180,None,abs,inhibit,freq_top,,,,,0,100,100,487,,,1.0411507514010512,,,,,,,,,,1324.303711911729,None,1324.303711911729,None,None,1,,None,None,008,001,1,28,m,2021_Nov_08_1735,eye_tracking_exp,2021.2.3,85.00880128353698,
0,0,0,180,180,0,-168,0,-168,0,f,abs,resp,freq_top,,,,,0,101,101,315,,,0.8207862462678407,,,,,,,,,,1328.2468015463091,None,1328.2468015463091,None,f,1,1.1760944385750918,None,None,008,001,1,28,m,2021_Nov_08_1735,eye_tracking_exp,2021.2.3,85.00880128353698,
-12,180,180,12,0,0,180,180,180,180,j,abs,resp,freq_top,,,,,0,102,102,204,,,0.9330091532771845,,,,,,,,,,1331.2722940938402,None,1331.2722940938402,None,None,0,,1334.2600931079432,None,008,001,1,28,m,2021_Nov_08_1735,eye_tracking_exp,2021.2.3,85.00880128353698,
0,270,180,180,180,-168,0,12,0,0,None,present,inhibit,freq_top,,,,,0,103,103,938,,,0.8759152515534997,,,,,,,,,,1335.660149070507,None,1335.660149070507,None,j,0,2.6744422751871753,1338.3554615870162,None,008,001,1,28,m,2021_Nov_08_1735,eye_tracking_exp,2021.2.3,85.00880128353698,
180,0,-168,0,0,0,0,0,-168,0,f,abs,resp,freq_top,,,,,0,104,104,333,,,0.8724669837781192,,,,,,,,,,1339.7671900001515,None,1339.7671900001515,None,f,1,2.2630090691018268,None,None,008,001,1,28,m,2021_Nov_08_1735,eye_tracking_exp,2021.2.3,85.00880128353698,
180,-168,180,180,0,-168,180,180,0,180,f,abs,resp,freq_top,,,,,0,105,105,299,,,0.9464253317131213,,,,,,,,,,1343.5567309169637,None,1343.5567309169637,None,f,1,1.4976603399336454,None,None,008,001,1,28,m,2021_Nov_08_1735,eye_tracking_exp,2021.2.3,85.00880128353698,
0,0,168,0,0,0,0,0,180,168,f,abs,resp,freq_top,,,,,0,106,106,257,,,0.8480972754255438,,,,,,,,,,1346.3809061407592,None,1346.3809061407592,None,f,1,1.3443020880586118,None,None,008,001,1,28,m,2021_Nov_08_1735,eye_tracking_exp,2021.2.3,85.00880128353698,
168,180,0,180,-168,0,180,0,180,180,f,abs,resp,freq_top,,,,,0,107,107,363,,,1.0917635530814478,,,,,,,,,,1349.0752711573368,None,1349.0752711573368,None,f,1,1.5462107314378954,None,None,008,001,1,28,m,2021_Nov_08_1735,eye_tracking_exp,2021.2.3,85.00880128353698,
0,0,0,168,0,168,0,0,0,0,f,abs,resp,freq_top,,,,,0,108,108,210,,,0.9888256213698758,,,,,,,,,,1351.8992187879703,None,1351.8992187879703,None,f,1,1.3621775088759023,None,None,008,001,1,28,m,2021_Nov_08_1735,eye_tracking_exp,2021.2.3,85.00880128353698,
-168,0,90,180,180,180,180,0,-168,180,f,present,resp,freq_top,,,,,0,109,109,853,,,0.9434151230892484,,,,,,,,,,1354.4771801629322,None,1354.4771801629322,None,f,1,1.392141930082289,None,None,008,001,1,28,m,2021_Nov_08_1735,eye_tracking_exp,2021.2.3,85.00880128353698,
180,0,180,0,12,180,180,180,12,180,j,abs,resp,freq_top,,,,,0,110,110,9,,,0.9595662556007072,,,,,,,,,,1357.08915766079,None,1357.08915766079,None,j,1,2.8122206580010243,None,None,008,001,1,28,m,2021_Nov_08_1735,eye_tracking_exp,2021.2.3,85.00880128353698,
-168,0,180,0,180,180,180,0,-168,0,f,abs,resp,freq_top,,,,,0,111,111,321,,,0.8289763869674645,,,,,,,,,,1361.0205039105858,None,1361.0205039105858,None,f,1,1.3450551980713499,None,None,008,001,1,28,m,2021_Nov_08_1735,eye_tracking_exp,2021.2.3,85.00880128353698,
180,90,180,-168,180,12,0,0,0,0,None,present,inhibit,freq_top,,,,,0,112,112,924,,,1.0306755705994448,,,,,,,,,,1363.7033751704294,None,1363.7033751704294,None,None,1,,None,None,008,001,1,28,m,2021_Nov_08_1735,eye_tracking_exp,2021.2.3,85.00880128353698,
0,12,0,0,-12,180,180,180,270,0,j,present,resp,freq_top,,,,,0,113,113,656,,,1.0959622091843595,,,,,,,,,,1368.3166581595942,None,1368.3166581595942,None,j,1,2.3038970567431534,None,None,008,001,1,28,m,2021_Nov_08_1735,eye_tracking_exp,2021.2.3,85.00880128353698,
180,0,-12,0,90,0,0,0,12,0,j,present,resp,freq_top,,,,,0,114,114,697,,,0.76858795480328,,,,,,,,,,1371.7064950682616,None,1371.7064950682616,None,j,1,1.586051609403512,None,None,008,001,1,28,m,2021_Nov_08_1735,eye_tracking_exp,2021.2.3,85.00880128353698,
180,180,-12,180,270,180,-12,0,0,180,j,present,resp,freq_top,,,,,0,115,115,599,,,0.7042508510099753,,,,,,,,,,1374.424576560501,None,1374.424576560501,None,j,1,1.1242074225810939,None,None,008,001,1,28,m,2021_Nov_08_1735,eye_tracking_exp,2021.2.3,85.00880128353698,
-12,0,-12,0,0,0,0,0,180,180,j,abs,resp,freq_top,,,,,0,116,116,125,,,0.9902010551733301,,,,,,,,,,1376.8017425064027,None,1376.8017425064027,None,j,1,1.1781207421881845,None,None,008,001,1,28,m,2021_Nov_08_1735,eye_tracking_exp,2021.2.3,85.00880128353698,
-12,0,0,90,0,0,0,0,-12,180,j,present,resp,freq_top,,,,,0,117,117,643,,,0.8750876073506701,,,,,,,,,,1379.1436043452777,None,1379.1436043452777,None,j,1,1.0600877266842872,None,None,008,001,1,28,m,2021_Nov_08_1735,eye_tracking_exp,2021.2.3,85.00880128353698,
180,0,0,180,180,12,180,180,0,12,j,abs,resp,freq_top,,,,,0,118,118,44,,,0.7953235643932622,,,,,,,,,,1381.2496464608848,None,1381.2496464608848,None,j,1,1.03407086970401,None,None,008,001,1,28,m,2021_Nov_08_1735,eye_tracking_exp,2021.2.3,85.00880128353698,
90,0,12,0,12,180,180,180,180,180,j,present,resp,freq_top,,,,,0,119,119,515,,,0.778782836208379,,,,,,,,,,1383.403026143933,None,1383.403026143933,None,j,1,1.9215408396266866,None,None,008,001,1,28,m,2021_Nov_08_1735,eye_tracking_exp,2021.2.3,85.00880128353698,
180,0,270,180,-12,180,0,180,-12,180,j,present,resp,freq_top,,,,,0,120,120,614,,,0.7381662345322418,,,,,,,,,,1386.3452878102762,None,1386.3452878102762,None,j,1,1.3465143298599287,None,None,008,001,1,28,m,2021_Nov_08_1735,eye_tracking_exp,2021.2.3,85.00880128353698,
0,180,-12,0,0,180,180,-12,0,180,j,abs,resp,freq_top,,,,,0,121,121,122,,,0.8893605948208108,,,,,,,,,,1388.8748530379016,None,1388.8748530379016,None,j,1,1.122205266787205,None,None,008,001,1,28,m,2021_Nov_08_1735,eye_tracking_exp,2021.2.3,85.00880128353698,
0,0,180,180,0,180,168,0,-168,0,f,abs,resp,freq_top,,,,,0,122,122,385,,,1.0411748053053544,,,,,,,,,,1391.2988488434275,None,1391.2988488434275,None,None,0,,1394.2886364301812,None,008,001,1,28,m,2021_Nov_08_1735,eye_tracking_exp,2021.2.3,85.00880128353698,
180,180,0,0,180,180,180,-12,0,12,j,abs,resp,freq_top,,,,,0,123,123,182,,,1.0405620845095318,,,,,,,,,,1395.853404645859,None,1395.853404645859,None,j,1,1.341486754557991,None,None,008,001,1,28,m,2021_Nov_08_1735,eye_tracking_exp,2021.2.3,85.00880128353698,
0,-12,0,-12,0,0,180,0,0,0,j,abs,resp,freq_top,,,,,0,124,124,126,,,0.8326133827568876,,,,,,,,,,1398.3006635518032,None,1398.3006635518032,None,j,1,1.1342987949028611,None,None,008,001,1,28,m,2021_Nov_08_1735,eye_tracking_exp,2021.2.3,85.00880128353698,
180,180,0,168,180,180,180,180,168,180,f,abs,resp,freq_top,,,,,0,125,125,248,,,0.9107910842082071,,,,,,,,,,1401.9015025676708,None,1401.9015025676708,None,f,1,1.3904313591701793,None,None,008,001,1,28,m,2021_Nov_08_1735,eye_tracking_exp,2021.2.3,85.00880128353698,
0,0,12,0,180,180,180,0,12,0,j,abs,resp,freq_top,,,,,0,126,126,39,,,0.9124507798838294,,,,,,,,,,1404.4903247247348,None,1404.4903247247348,None,j,1,0.9607870776308118,None,None,008,001,1,28,m,2021_Nov_08_1735,eye_tracking_exp,2021.2.3,85.00880128353698,
90,180,-12,180,-12,0,180,0,180,180,j,present,resp,freq_top,,,,,0,127,127,585,,,1.0149763474077702,,,,,,,,,,1406.7859948100304,None,1406.7859948100304,None,j,1,1.256100077087467,None,None,008,001,1,28,m,2021_Nov_08_1735,eye_tracking_exp,2021.2.3,85.00880128353698,
180,90,0,-168,180,0,0,180,0,168,f,present,resp,freq_top,,,,,0,128,128,900,,,1.067580002316537,,,,,,,,,,1409.455978380458,None,1409.455978380458,None,f,1,1.8342540308876778,None,None,008,001,1,28,m,2021_Nov_08_1735,eye_tracking_exp,2021.2.3,85.00880128353698,
270,0,-168,180,180,0,0,0,0,168,f,present,resp,freq_top,,,,,0,129,129,908,,,1.0073241544702396,,,,,,,,,,1412.5400689239032,None,1412.5400689239032,None,f,1,1.0540848814707715,None,None,008,001,1,28,m,2021_Nov_08_1735,eye_tracking_exp,2021.2.3,85.00880128353698,
180,180,12,180,180,180,12,180,0,180,j,abs,resp,freq_top,,,,,0,130,130,25,,,1.0089587089883136,,,,,,,,,,1414.9862568742028,None,1414.9862568742028,None,j,1,1.201461719312647,None,None,008,001,1,28,m,2021_Nov_08_1735,eye_tracking_exp,2021.2.3,85.00880128353698,
180,180,0,-168,180,0,180,0,0,168,f,abs,resp,freq_top,,,,,0,131,131,396,,,0.72562072829307,,,,,,,,,,1417.2572400434801,None,1417.2572400434801,None,f,1,1.201004118200217,None,None,008,001,1,28,m,2021_Nov_08_1735,eye_tracking_exp,2021.2.3,85.00880128353698,
0,270,0,-168,0,0,-168,0,180,0,f,present,resp,freq_top,,,,,0,132,132,808,,,0.8874798112110109,,,,,,,,,,1419.6477739184847,None,1419.6477739184847,None,f,1,1.2424680312469718,None,None,008,001,1,28,m,2021_Nov_08_1735,eye_tracking_exp,2021.2.3,85.00880128353698,
12,180,180,12,0,0,180,180,180,0,j,abs,resp,freq_top,,,,,0,133,133,64,,,0.9713560493276784,,,,,,,,,,1422.1993740282414,None,1422.1993740282414,None,j,1,1.0430849475815194,None,None,008,001,1,28,m,2021_Nov_08_1735,eye_tracking_exp,2021.2.3,85.00880128353698,
12,180,0,180,12,0,180,0,180,180,j,abs,resp,freq_top,,,,,0,134,134,13,,,0.801083234939986,,,,,,,,,,1424.3644545355492,None,1424.3644545355492,None,j,1,0.9248825955219218,None,None,008,001,1,28,m,2021_Nov_08_1735,eye_tracking_exp,2021.2.3,85.00880128353698,
0,180,0,180,168,180,168,180,180,180,f,abs,resp,freq_top,,,,,0,135,135,233,,,1.086174239039151,,,,,,,,,,1426.6476558960348,None,1426.6476558960348,None,f,1,0.8977211320598144,None,None,008,001,1,28,m,2021_Nov_08_1735,eye_tracking_exp,2021.2.3,85.00880128353698,
180,-12,180,0,180,0,-12,0,180,180,j,abs,resp,freq_top,,,,,0,136,136,129,,,0.8109579032529897,,,,,,,,,,1428.6008924429116,None,1428.6008924429116,None,j,1,1.1846029215521412,None,None,008,001,1,28,m,2021_Nov_08_1735,eye_tracking_exp,2021.2.3,85.00880128353698,
0,0,12,0,90,180,180,0,180,12,j,present,resp,freq_top,,,,,0,137,137,551,,,0.7364326305892104,,,,,,,,,,1430.8132100023868,None,1430.8132100023868,None,j,1,1.1322543804271845,None,None,008,001,1,28,m,2021_Nov_08_1735,eye_tracking_exp,2021.2.3,85.00880128353698,
0,-12,0,-12,180,270,180,0,0,0,j,present,resp,freq_top,,,,,0,138,138,630,,,0.7102217056791799,,,,,,,,,,1432.9195183476622,None,1432.9195183476622,None,j,1,1.137987373804208,None,None,008,001,1,28,m,2021_Nov_08_1735,eye_tracking_exp,2021.2.3,85.00880128353698,
180,180,0,0,-168,0,0,168,0,180,f,abs,resp,freq_top,,,,,0,139,139,380,,,1.0543491205913749,,,,,,,,,,1435.3787817366465,None,1435.3787817366465,None,f,1,1.1917431289039087,None,None,008,001,1,28,m,2021_Nov_08_1735,eye_tracking_exp,2021.2.3,85.00880128353698,
90,0,12,0,180,180,0,0,180,-168,None,present,inhibit,freq_top,,,,,0,140,140,971,,,0.7728043045243196,,,,,,,,,,1437.5925855941969,None,1437.5925855941969,None,None,1,,None,None,008,001,1,28,m,2021_Nov_08_1735,eye_tracking_exp,2021.2.3,85.00880128353698,
0,270,0,-168,180,180,180,-12,0,0,None,present,inhibit,freq_top,,,,,0,141,141,996,,,1.0454828252848627,,,,,,,,,,1441.9218129938818,None,1441.9218129938818,None,None,1,,None,None,008,001,1,28,m,2021_Nov_08_1735,eye_tracking_exp,2021.2.3,85.00880128353698,
168,0,0,90,12,0,180,0,180,180,None,present,inhibit,freq_top,,,,,0,142,142,989,,,0.8452606350170386,,,,,,,,,,1446.100041081474,None,1446.100041081474,None,None,1,,None,None,008,001,1,28,m,2021_Nov_08_1735,eye_tracking_exp,2021.2.3,85.00880128353698,
12,0,168,0,0,0,0,0,180,180,None,abs,inhibit,freq_top,,,,,0,143,143,475,,,0.9103705860002833,,,,,,,,,,1450.3597028490476,None,1450.3597028490476,None,None,1,,None,None,008,001,1,28,m,2021_Nov_08_1735,eye_tracking_exp,2021.2.3,85.00880128353698,
12,0,0,180,12,180,0,180,180,180,j,abs,resp,freq_top,,,,,0,144,144,65,,,1.0871352789786761,,,,,,,,,,1454.7961432315642,None,1454.7961432315642,None,j,1,1.0677075700368732,None,None,008,001,1,28,m,2021_Nov_08_1735,eye_tracking_exp,2021.2.3,85.00880128353698,
270,180,0,0,12,0,0,12,0,180,j,present,resp,freq_top,,,,,0,145,145,534,,,0.9778682799922835,,,,,,,,,,1457.091263652197,None,1457.091263652197,None,j,1,1.8287676470863516,None,None,008,001,1,28,m,2021_Nov_08_1735,eye_tracking_exp,2021.2.3,85.00880128353698,
180,180,0,180,270,0,180,-12,0,-12,j,present,resp,freq_top,,,,,0,146,146,616,,,1.0418816121953725,,,,,,,,,,1460.2096779013373,None,1460.2096779013373,None,j,1,1.0141963115747785,None,None,008,001,1,28,m,2021_Nov_08_1735,eye_tracking_exp,2021.2.3,85.00880128353698,
0,0,0,0,0,-168,0,12,0,0,None,abs,inhibit,freq_top,,,,,0,147,147,434,,,0.7313834565530857,,,,,,,,,,1462.221748790871,None,1462.221748790871,None,None,1,,None,None,008,001,1,28,m,2021_Nov_08_1735,eye_tracking_exp,2021.2.3,85.00880128353698,
180,0,-168,0,0,0,0,0,168,0,f,abs,resp,freq_top,,,,,0,148,148,403,,,0.8599174613512962,,,,,,,,,,1466.4227681909251,None,1466.4227681909251,None,j,0,2.0331523471541004,1468.4716506149125,None,008,001,1,28,m,2021_Nov_08_1735,eye_tracking_exp,2021.2.3,85.00880128353698,
0,0,0,12,0,0,0,-12,0,0,j,abs,resp,freq_top,,,,,0,149,149,142,,,0.936262487945234,,,,,,,,,,1470.1764818986485,None,1470.1764818986485,None,j,1,2.88651594172552,None,None,008,001,1,28,m,2021_Nov_08_1735,eye_tracking_exp,2021.2.3,85.00880128353698,
-12,0,-12,180,0,180,0,180,0,180,j,abs,resp,freq_top,,,,,0,150,150,133,,,1.070951479281354,,,,,,,,,,1474.4250809480072,None,1474.4250809480072,None,j,1,1.1019220068701543,None,None,008,001,1,28,m,2021_Nov_08_1735,eye_tracking_exp,2021.2.3,85.00880128353698,
-12,0,0,0,90,0,0,12,180,0,j,present,resp,freq_top,,,,,0,151,151,678,,,0.8247497318155557,,,,,,,,,,1476.6840774432567,None,1476.6840774432567,None,j,1,1.93100346319261,None,None,008,001,1,28,m,2021_Nov_08_1735,eye_tracking_exp,2021.2.3,85.00880128353698,
0,90,180,180,12,0,0,0,168,0,None,present,inhibit,freq_top,,,,,0,152,152,961,,,0.7985343098182717,,,,,,,,,,1479.6858849072814,None,1479.6858849072814,None,None,1,,None,None,008,001,1,28,m,2021_Nov_08_1735,eye_tracking_exp,2021.2.3,85.00880128353698,
-12,0,90,180,-12,180,180,180,0,180,j,present,resp,freq_top,,,,,0,153,153,639,,,0.896207455517888,,,,,,,,,,1483.6975772798032,None,1483.6975772798032,None,f,0,1.541654038555862,1485.2532176210225,None,008,001,1,28,m,2021_Nov_08_1735,eye_tracking_exp,2021.2.3,85.00880128353698,
180,270,0,168,180,180,180,180,168,180,f,present,resp,freq_top,,,,,0,154,154,752,,,0.8712052122077817,,,,,,,,,,1486.933438356209,None,1486.933438356209,None,f,1,2.3528449816803914,None,None,008,001,1,28,m,2021_Nov_08_1735,eye_tracking_exp,2021.2.3,85.00880128353698,
12,0,180,180,90,180,-12,180,180,180,j,present,resp,freq_top,,,,,0,155,155,671,,,1.0961387388772628,,,,,,,,,,1490.428801824608,None,1490.428801824608,None,j,1,1.3054890015191631,None,None,008,001,1,28,m,2021_Nov_08_1735,eye_tracking_exp,2021.2.3,85.00880128353698,
90,180,0,180,0,180,180,-168,0,168,f,present,resp,freq_top,,,,,0,156,156,896,,,0.7872790945010274,,,,,,,,,,1492.7826376599114,None,1492.7826376599114,None,f,1,2.359683341332129,None,None,008,001,1,28,m,2021_Nov_08_1735,eye_tracking_exp,2021.2.3,85.00880128353698,
0,90,180,12,180,180,180,12,0,180,j,present,resp,freq_top,,,,,0,157,157,535,,,0.7078831598451466,,,,,,,,,,1496.3825017077033,None,1496.3825017077033,None,j,1,1.7358872986078495,None,None,008,001,1,28,m,2021_Nov_08_1735,eye_tracking_exp,2021.2.3,85.00880128353698,
0,0,180,90,0,0,-12,0,180,-12,j,present,resp,freq_top,,,,,0,158,158,617,,,0.8148921174748411,,,,,,,,,,1498.9826633773337,None,1498.9826633773337,None,j,1,1.9358046527122497,None,None,008,001,1,28,m,2021_Nov_08_1735,eye_tracking_exp,2021.2.3,85.00880128353698,
180,180,0,180,0,180,-12,180,12,180,j,abs,resp,freq_top,,,,,0,159,159,161,,,0.8164674211686466,,,,,,,,,,1502.042128883535,None,1502.042128883535,None,j,1,1.8033246025806875,None,None,008,001,1,28,m,2021_Nov_08_1735,eye_tracking_exp,2021.2.3,85.00880128353698,
-12,0,180,0,-12,0,180,0,180,180,j,abs,resp,freq_top,,,,,0,160,160,83,,,0.8548526160412278,,,,,,,,,,1504.9959338096305,None,1504.9959338096305,None,j,1,1.3775774766982067,None,None,008,001,1,28,m,2021_Nov_08_1735,eye_tracking_exp,2021.2.3,85.00880128353698,
180,180,-12,180,-12,180,0,180,0,180,j,abs,resp,freq_top,,,,,0,161,161,81,,,0.7673555818260543,,,,,,,,,,1507.4199465186248,None,1507.4199465186248,None,j,1,1.578982336264744,None,None,008,001,1,28,m,2021_Nov_08_1735,eye_tracking_exp,2021.2.3,85.00880128353698,
180,-168,0,180,0,180,0,180,-168,180,f,abs,resp,freq_top,,,,,0,162,162,341,,,0.9390823505595263,,,,,,,,,,1510.2561594287108,None,1510.2561594287108,None,f,1,2.1655170914600603,None,None,008,001,1,28,m,2021_Nov_08_1735,eye_tracking_exp,2021.2.3,85.00880128353698,
-168,0,0,180,180,180,-168,180,0,0,f,abs,resp,freq_top,,,,,0,163,163,347,,,0.8335199987519007,,,,,,,,,,1513.5281836707072,None,1513.5281836707072,None,f,1,1.2454155740415445,None,None,008,001,1,28,m,2021_Nov_08_1735,eye_tracking_exp,2021.2.3,85.00880128353698,
0,270,180,180,180,0,-12,0,-12,0,j,present,resp,freq_top,,,,,0,164,164,609,,,0.9433966829144383,,,,,,,,,,1515.9638480027788,None,1515.9638480027788,None,j,1,1.3368256223693606,None,None,008,001,1,28,m,2021_Nov_08_1735,eye_tracking_exp,2021.2.3,85.00880128353698,
0,270,0,-12,0,180,180,180,180,-12,j,present,resp,freq_top,,,,,0,165,165,578,,,0.9970209506481158,,,,,,,,,,1518.5761916418996,None,1518.5761916418996,None,j,1,0.9804877714850591,None,None,008,001,1,28,m,2021_Nov_08_1735,eye_tracking_exp,2021.2.3,85.00880128353698,
180,90,180,180,168,0,0,180,-12,180,None,present,inhibit,freq_top,,,,,0,166,166,1003,,,0.740009243488511,,,,,,,,,,1520.7181666132892,None,1520.7181666132892,None,None,1,,None,None,008,001,1,28,m,2021_Nov_08_1735,eye_tracking_exp,2021.2.3,85.00880128353698,
168,0,270,180,168,180,0,0,180,180,f,present,resp,freq_top,,,,,0,167,167,779,,,0.8872223101814938,,,,,,,,,,1525.8512237962277,None,1525.8512237962277,None,f,1,1.5455762475758092,None,None,008,001,1,28,m,2021_Nov_08_1735,eye_tracking_exp,2021.2.3,85.00880128353698,
180,12,180,12,180,90,180,180,0,180,j,present,resp,freq_top,,,,,0,168,168,509,,,0.8377819999751023,,,,,,,,,,1528.674084473285,None,1528.674084473285,None,j,1,2.306786946624925,None,None,008,001,1,28,m,2021_Nov_08_1735,eye_tracking_exp,2021.2.3,85.00880128353698,
-168,0,90,0,0,0,0,168,180,180,f,present,resp,freq_top,,,,,0,169,169,888,,,0.8716226859903253,,,,,,,,,,1535.4982735820813,None,1535.4982735820813,None,f,1,2.201426403131336,None,None,008,001,1,28,m,2021_Nov_08_1735,eye_tracking_exp,2021.2.3,85.00880128353698,
0,270,0,0,-12,180,180,180,0,-12,j,present,resp,freq_top,,,,,0,170,170,584,,,0.733241550533347,,,,,,,,,,1538.700686009266,None,1538.700686009266,None,j,1,0.9833058216099744,None,None,008,001,1,28,m,2021_Nov_08_1735,eye_tracking_exp,2021.2.3,85.00880128353698,
12,0,12,180,270,180,180,0,180,180,j,present,resp,freq_top,,,,,0,171,171,567,,,0.7101346111355455,,,,,,,,,,1540.640957291871,None,1540.640957291871,None,j,1,1.4268212123788544,None,None,008,001,1,28,m,2021_Nov_08_1735,eye_tracking_exp,2021.2.3,85.00880128353698,
0,0,0,180,0,-168,0,-168,0,0,f,abs,resp,freq_top,,,,,0,172,172,309,,,0.8925260014057712,,,,,,,,,,1543.2181794418211,None,1543.2181794418211,None,f,1,1.0742576651318814,None,None,008,001,1,28,m,2021_Nov_08_1735,eye_tracking_exp,2021.2.3,85.00880128353698,
0,0,-12,0,0,12,0,0,0,0,j,abs,resp,freq_top,,,,,0,173,173,158,,,1.0811058650526615,,,,,,,,,,1545.5128199246028,None,1545.5128199246028,None,j,1,1.963814610055124,None,None,008,001,1,28,m,2021_Nov_08_1735,eye_tracking_exp,2021.2.3,85.00880128353698,
0,270,180,180,180,168,0,-168,0,0,f,present,resp,freq_top,,,,,0,174,174,868,,,1.0339731053767225,,,,,,,,,,1548.784260091299,None,1548.784260091299,None,f,1,1.8428696697956184,None,None,008,001,1,28,m,2021_Nov_08_1735,eye_tracking_exp,2021.2.3,85.00880128353698,
0,0,0,168,0,0,-168,0,0,0,f,abs,resp,freq_top,,,,,0,175,175,374,,,0.8694358797950716,,,,,,,,,,1551.539110859303,None,1551.539110859303,None,None,0,,1554.5173527715233,None,008,001,1,28,m,2021_Nov_08_1735,eye_tracking_exp,2021.2.3,85.00880128353698,
0,180,-168,0,180,168,0,180,0,180,f,abs,resp,freq_top,,,,,0,176,176,400,,,0.925876495753534,,,,,,,,,,1556.0340692480895,None,1556.0340692480895,None,f,1,2.4492008045781404,None,None,008,001,1,28,m,2021_Nov_08_1735,eye_tracking_exp,2021.2.3,85.00880128353698,
180,270,180,0,180,180,-12,180,-12,180,j,present,resp,freq_top,,,,,0,177,177,595,,,0.7188327049163044,,,,,,,,,,1559.2588733413868,None,1559.2588733413868,None,j,1,1.5604241359542357,None,None,008,001,1,28,m,2021_Nov_08_1735,eye_tracking_exp,2021.2.3,85.00880128353698,
0,168,0,0,0,-168,180,0,0,0,f,abs,resp,freq_top,,,,,0,178,178,408,,,1.0534623392377112,,,,,,,,,,1561.9302119061394,None,1561.9302119061394,None,f,1,1.832082236680435,None,None,008,001,1,28,m,2021_Nov_08_1735,eye_tracking_exp,2021.2.3,85.00880128353698,
0,180,180,180,12,0,180,12,0,0,j,abs,resp,freq_top,,,,,0,179,179,8,,,0.9957444519563398,,,,,,,,,,1565.0249996302373,None,1565.0249996302373,None,j,1,2.0023180008647614,None,None,008,001,1,28,m,2021_Nov_08_1735,eye_tracking_exp,2021.2.3,85.00880128353698,
-12,180,270,0,0,-12,180,180,180,0,j,present,resp,freq_top,,,,,0,180,180,640,,,0.9529327780621838,,,,,,,,,,1568.0374909936218,None,1568.0374909936218,None,j,1,1.9169986354390858,None,None,008,001,1,28,m,2021_Nov_08_1735,eye_tracking_exp,2021.2.3,85.00880128353698,
0,180,0,0,-168,180,0,180,168,180,f,abs,resp,freq_top,,,,,0,181,181,359,,,0.738760580913553,,,,,,,,,,1570.9226865411256,None,1570.9226865411256,None,f,1,1.6877646252905834,None,None,008,001,1,28,m,2021_Nov_08_1735,eye_tracking_exp,2021.2.3,85.00880128353698,
0,-12,0,0,0,0,0,0,0,-12,j,abs,resp,freq_top,,,,,0,182,182,132,,,0.9553413339018284,,,,,,,,,,1573.6161152261338,None,1573.6161152261338,None,j,1,1.4755068316517281,None,None,008,001,1,28,m,2021_Nov_08_1735,eye_tracking_exp,2021.2.3,85.00880128353698,
0,270,0,0,0,12,180,180,180,-12,j,present,resp,freq_top,,,,,0,183,183,660,,,1.0051782249907786,,,,,,,,,,1576.3584109408912,None,1576.3584109408912,None,j,1,1.8521047001922852,None,None,008,001,1,28,m,2021_Nov_08_1735,eye_tracking_exp,2021.2.3,85.00880128353698,
90,0,12,180,180,-168,0,0,0,0,None,present,inhibit,freq_top,,,,,0,184,184,942,,,0.9172705252102104,,,,,,,,,,1579.3951053584315,None,1579.3951053584315,None,None,1,,None,None,008,001,1,28,m,2021_Nov_08_1735,eye_tracking_exp,2021.2.3,85.00880128353698,
0,0,270,0,168,0,0,-12,0,0,None,present,inhibit,freq_top,,,,,0,185,185,1002,,,0.7426331356175002,,,,,,,,,,1583.4103882093477,None,1583.4103882093477,None,None,1,,None,None,008,001,1,28,m,2021_Nov_08_1735,eye_tracking_exp,2021.2.3,85.00880128353698,
180,180,-168,0,90,0,0,-168,180,180,f,present,resp,freq_top,,,,,0,186,186,816,,,1.076526134585099,,,,,,,,,,1587.7403029162451,None,1587.7403029162451,None,f,1,2.325387103766843,None,None,008,001,1,28,m,2021_Nov_08_1735,eye_tracking_exp,2021.2.3,85.00880128353698,
180,0,168,0,0,0,168,0,0,0,f,abs,resp,freq_top,,,,,0,187,187,261,,,0.7717262956055293,,,,,,,,,,1590.89302608055,None,1590.89302608055,None,f,1,1.9727601685153786,None,None,008,001,1,28,m,2021_Nov_08_1735,eye_tracking_exp,2021.2.3,85.00880128353698,
180,180,180,168,180,180,168,180,0,180,f,abs,resp,freq_top,,,,,0,188,188,211,,,0.8315271065798222,,,,,,,,,,1593.8235516064524,None,1593.8235516064524,None,f,1,1.905276078148745,None,None,008,001,1,28,m,2021_Nov_08_1735,eye_tracking_exp,2021.2.3,85.00880128353698,
90,0,-12,0,-12,0,0,0,0,0,j,present,resp,freq_top,,,,,0,189,189,623,,,0.8786518063522958,,,,,,,,,,1596.9073722980465,None,1596.9073722980465,None,j,1,1.9574344552165712,None,None,008,001,1,28,m,2021_Nov_08_1735,eye_tracking_exp,2021.2.3,85.00880128353698,
0,270,0,-168,0,180,180,180,0,-12,None,present,inhibit,freq_top,,,,,0,190,190,998,,,0.7880601478680883,,,,,,,,,,1599.955587034914,None,1599.955587034914,None,None,1,,None,None,008,001,1,28,m,2021_Nov_08_1735,eye_tracking_exp,2021.2.3,85.00880128353698,
180,-12,180,90,180,12,0,180,0,180,j,present,resp,freq_top,,,,,0,191,191,663,,,1.0527349037588696,,,,,,,,,,1604.4397604053665,None,1604.4397604053665,None,f,0,1.6411883177424897,1606.0989864256044,None,008,001,1,28,m,2021_Nov_08_1735,eye_tracking_exp,2021.2.3,85.00880128353698,
-12,180,270,0,-12,180,0,180,0,180,j,present,resp,freq_top,,,,,0,192,192,587,,,0.7912866225693647,,,,,,,,,,1607.439699733979,None,1607.439699733979,None,j,1,2.400375429810083,None,None,008,001,1,28,m,2021_Nov_08_1735,eye_tracking_exp,2021.2.3,85.00880128353698,
0,12,0,0,12,0,180,180,180,180,j,abs,resp,freq_top,,,,,0,193,193,12,,,1.0587482418040104,,,,,,,,,,1611.3107307762984,None,1611.3107307762984,None,j,1,2.7853236131195445,None,None,008,001,1,28,m,2021_Nov_08_1735,eye_tracking_exp,2021.2.3,85.00880128353698,
-168,180,180,270,0,-168,0,180,180,180,f,present,resp,freq_top,,,,,0,194,194,850,,,0.8712376337558121,,,,,,,,,,1615.2766889963532,None,1615.2766889963532,None,f,1,1.4753942424649722,None,None,008,001,1,28,m,2021_Nov_08_1735,eye_tracking_exp,2021.2.3,85.00880128353698,
-168,0,0,0,0,-168,0,0,0,0,f,abs,resp,freq_top,,,,,0,195,195,300,,,0.8086286758556769,,,,,,,,,,1617.618628410084,None,1617.618628410084,None,f,1,1.6135601977293845,None,None,008,001,1,28,m,2021_Nov_08_1735,eye_tracking_exp,2021.2.3,85.00880128353698,
180,0,90,180,12,0,180,180,12,180,j,present,resp,freq_top,,,,,0,196,196,513,,,0.8296085155485915,,,,,,,,,,1620.3372245526552,None,1620.3372245526552,None,None,0,,1623.327063453522,None,008,001,1,28,m,2021_Nov_08_1735,eye_tracking_exp,2021.2.3,85.00880128353698,
180,168,0,180,180,0,180,0,-168,180,f,abs,resp,freq_top,,,,,0,197,197,390,,,0.8131265209949667,,,,,,,,,,1624.6683391041588,None,1624.6683391041588,None,f,1,1.8108867930204724,None,None,008,001,1,28,m,2021_Nov_08_1735,eye_tracking_exp,2021.2.3,85.00880128353698,
0,0,0,0,12,0,0,0,180,12,j,abs,resp,freq_top,,,,,0,198,198,45,,,0.9851686606080484,,,,,,,,,,1627.7042870523364,None,1627.7042870523364,None,j,1,1.6710298869365943,None,None,008,001,1,28,m,2021_Nov_08_1735,eye_tracking_exp,2021.2.3,85.00880128353698,
270,180,12,180,180,180,0,12,180,180,j,present,resp,freq_top,,,,,0,199,199,536,,,0.7038378730280053,,,,,,,,,,1630.1636968374514,None,1630.1636968374514,None,j,1,1.9633108262496535,None,None,008,001,1,28,m,2021_Nov_08_1735,eye_tracking_exp,2021.2.3,85.00880128353698,
-168,0,-168,0,270,0,0,0,180,180,f,present,resp,freq_top,,,,,0,200,200,839,,,0.7456287755841873,,,,,,,,,,1633.1764471861607,None,1633.1764471861607,None,f,1,1.94289324410056,None,None,008,001,1,28,m,2021_Nov_08_1735,eye_tracking_exp,2021.2.3,85.00880128353698,
0,168,0,168,180,0,180,0,0,0,f,abs,resp,freq_top,,,,,0,201,201,266,,,0.858607861328018,,,,,,,,,,1636.271763747427,None,1636.271763747427,None,f,1,1.8730185199528933,None,None,008,001,1,28,m,2021_Nov_08_1735,eye_tracking_exp,2021.2.3,85.00880128353698,
0,180,0,-168,180,0,180,0,12,180,None,abs,inhibit,freq_top,,,,,0,202,202,423,,,0.9738860439823994,,,,,,,,,,1639.3898990892922,None,1639.3898990892922,None,None,1,,None,None,008,001,1,28,m,2021_Nov_08_1735,eye_tracking_exp,2021.2.3,85.00880128353698,
0,-12,0,0,0,-12,180,0,0,0,j,abs,resp,freq_top,,,,,0,203,203,128,,,0.8170864344425861,,,,,,,,,,1643.4974507452498,None,1643.4974507452498,None,j,1,1.4450519079327933,None,None,008,001,1,28,m,2021_Nov_08_1735,eye_tracking_exp,2021.2.3,85.00880128353698,
0,0,-12,0,12,180,180,180,180,0,j,abs,resp,freq_top,,,,,0,204,204,189,,,1.001880667226287,,,,,,,,,,1646.1799824264308,None,1646.1799824264308,None,j,1,2.442584302982141,None,None,008,001,1,28,m,2021_Nov_08_1735,eye_tracking_exp,2021.2.3,85.00880128353698,
0,0,0,168,0,0,168,0,0,0,f,abs,resp,freq_top,,,,,0,205,205,234,,,0.8236338966815298,,,,,,,,,,1649.7457515690767,None,1649.7457515690767,None,f,1,1.54885521914548,None,None,008,001,1,28,m,2021_Nov_08_1735,eye_tracking_exp,2021.2.3,85.00880128353698,
180,180,0,-12,0,180,0,180,-12,180,j,abs,resp,freq_top,,,,,0,206,206,73,,,0.9008772218786966,,,,,,,,,,1652.452399372276,None,1652.452399372276,None,f,0,1.8182259179957327,1654.289915660731,None,008,001,1,28,m,2021_Nov_08_1735,eye_tracking_exp,2021.2.3,85.00880128353698,
12,0,12,180,180,0,180,180,0,180,j,abs,resp,freq_top,,,,,0,207,207,63,,,0.9998030624015335,,,,,,,,,,1655.8178693234877,None,1655.8178693234877,None,j,1,1.4918497716935235,None,None,008,001,1,28,m,2021_Nov_08_1735,eye_tracking_exp,2021.2.3,85.00880128353698,
180,180,0,0,0,12,180,180,-12,180,j,abs,resp,freq_top,,,,,0,208,208,176,,,0.8093825506940684,,,,,,,,,,1658.3480732608514,None,1658.3480732608514,None,j,1,1.633722718564968,None,None,008,001,1,28,m,2021_Nov_08_1735,eye_tracking_exp,2021.2.3,85.00880128353698,
-168,0,90,0,180,180,180,-168,180,180,f,present,resp,freq_top,,,,,0,209,209,818,,,0.7689863758850234,,,,,,,,,,1665.889991605618,None,1665.889991605618,None,f,1,1.323837417672621,None,None,008,001,1,28,m,2021_Nov_08_1735,eye_tracking_exp,2021.2.3,85.00880128353698,
0,270,180,180,180,-168,0,-168,0,0,f,present,resp,freq_top,,,,,0,210,210,798,,,0.7265134251389676,,,,,,,,,,1667.9962344499363,None,1667.9962344499363,None,f,1,1.0256770888518076,None,None,008,001,1,28,m,2021_Nov_08_1735,eye_tracking_exp,2021.2.3,85.00880128353698,
180,180,90,180,180,168,180,0,168,180,f,present,resp,freq_top,,,,,0,211,211,729,,,0.9447809803760621,,,,,,,,,,1670.2437546956207,None,1670.2437546956207,None,f,1,0.7941460177098634,None,None,008,001,1,28,m,2021_Nov_08_1735,eye_tracking_exp,2021.2.3,85.00880128353698,
180,180,270,0,0,0,0,12,0,12,j,present,resp,freq_top,,,,,0,212,212,532,,,0.7181597425209822,,,,,,,,,,1671.7968332554083,None,1671.7968332554083,None,j,1,1.4483012984273955,None,None,008,001,1,28,m,2021_Nov_08_1735,eye_tracking_exp,2021.2.3,85.00880128353698,
-12,0,0,0,0,0,0,-12,180,180,j,abs,resp,freq_top,,,,,0,213,213,104,,,0.9966612807629178,,,,,,,,,,1674.32690951119,None,1674.32690951119,None,j,1,0.7580338643892901,1675.104586605994,None,008,001,1,28,m,2021_Nov_08_1735,eye_tracking_exp,2021.2.3,85.00880128353698,
0,180,0,180,168,180,-12,180,0,180,None,abs,inhibit,freq_top,,,,,0,214,214,497,,,1.0521767592150248,,,,,,,,,,1676.6923387129646,None,1676.6923387129646,None,None,1,,None,None,008,001,1,28,m,2021_Nov_08_1735,eye_tracking_exp,2021.2.3,85.00880128353698,
0,90,0,-168,0,0,180,180,180,-168,f,present,resp,freq_top,,,,,0,215,215,788,,,0.707767760406445,,,,,,,,,,1680.6374501234386,None,1680.6374501234386,None,None,0,,1683.6249986039547,None,008,001,1,28,m,2021_Nov_08_1735,eye_tracking_exp,2021.2.3,85.00880128353698,
180,180,0,180,180,12,180,180,0,-168,None,abs,inhibit,freq_top,,,,,0,216,216,464,,,0.8138361395380592,,,,,,,,,,1684.966156533992,None,1684.966156533992,None,None,1,,None,None,008,001,1,28,m,2021_Nov_08_1735,eye_tracking_exp,2021.2.3,85.00880128353698,
-12,0,270,0,180,180,180,180,12,180,j,present,resp,freq_top,,,,,0,217,217,713,,,0.9366747565183984,,,,,,,,,,1689.226965624679,None,1689.226965624679,None,j,1,1.2172444300158531,None,None,008,001,1,28,m,2021_Nov_08_1735,eye_tracking_exp,2021.2.3,85.00880128353698,
180,-168,180,180,12,180,180,0,0,180,None,abs,inhibit,freq_top,,,,,0,218,218,477,,,1.0893122001454536,,,,,,,,,,1691.580669854382,None,1691.580669854382,None,None,1,,None,None,008,001,1,28,m,2021_Nov_08_1735,eye_tracking_exp,2021.2.3,85.00880128353698,
180,180,0,270,180,180,180,-12,0,12,j,present,resp,freq_top,,,,,0,219,219,686,,,0.8319238751588267,,,,,,,,,,1695.6878752910197,None,1695.6878752910197,None,j,1,1.6043813110081828,None,None,008,001,1,28,m,2021_Nov_08_1735,eye_tracking_exp,2021.2.3,85.00880128353698,
0,0,180,-168,0,-12,0,0,0,0,None,abs,inhibit,freq_top,,,,,0,220,220,490,,,0.7438931237710324,,,,,,,,,,1698.0882572491028,None,1698.0882572491028,None,None,1,,None,None,008,001,1,28,m,2021_Nov_08_1735,eye_tracking_exp,2021.2.3,85.00880128353698,
180,168,180,0,180,0,180,0,0,168,f,abs,resp,freq_top,,,,,0,221,221,258,,,0.9727206317808632,,,,,,,,,,1702.4312727498836,None,1702.4312727498836,None,f,1,2.4602339417106123,None,None,008,001,1,28,m,2021_Nov_08_1735,eye_tracking_exp,2021.2.3,85.00880128353698,
270,180,12,180,180,0,12,180,0,0,j,present,resp,freq_top,,,,,0,222,222,529,,,0.8343185011279326,,,,,,,,,,1705.9734721148561,None,1705.9734721148561,None,j,1,2.7899983284587506,None,None,008,001,1,28,m,2021_Nov_08_1735,eye_tracking_exp,2021.2.3,85.00880128353698,
12,180,90,0,168,180,0,180,0,180,None,present,inhibit,freq_top,,,,,0,223,223,937,,,0.7203650346606597,,,,,,,,,,1709.7509038074786,None,1709.7509038074786,None,None,1,,None,None,008,001,1,28,m,2021_Nov_08_1735,eye_tracking_exp,2021.2.3,85.00880128353698,
180,270,0,180,180,-12,180,180,0,12,j,present,resp,freq_top,,,,,0,224,224,688,,,0.8166305304948343,,,,,,,,,,1713.9060323961094,None,1713.9060323961094,None,j,1,1.6581491400211235,None,None,008,001,1,28,m,2021_Nov_08_1735,eye_tracking_exp,2021.2.3,85.00880128353698,
0,270,0,-12,0,-12,0,0,0,0,j,present,resp,freq_top,,,,,0,225,225,574,,,1.0348506013126417,,,,,,,,,,1716.6469205950416,None,1716.6469205950416,None,j,1,2.0367123389296466,None,None,008,001,1,28,m,2021_Nov_08_1735,eye_tracking_exp,2021.2.3,85.00880128353698,
168,0,168,0,270,0,0,0,180,180,f,present,resp,freq_top,,,,,0,226,226,769,,,1.0790830511433498,,,,,,,,,,1720.0480840368182,None,1720.0480840368182,None,f,1,2.4265094036964,None,None,008,001,1,28,m,2021_Nov_08_1735,eye_tracking_exp,2021.2.3,85.00880128353698,
180,0,168,0,270,180,180,180,168,0,f,present,resp,freq_top,,,,,0,227,227,767,,,0.7730696590380108,,,,,,,,,,1723.5083800467837,None,1723.5083800467837,None,f,1,2.758259042770078,None,None,008,001,1,28,m,2021_Nov_08_1735,eye_tracking_exp,2021.2.3,85.00880128353698,
0,0,0,168,0,0,180,180,0,168,f,abs,resp,freq_top,,,,,0,228,228,214,,,0.8929255383633921,,,,,,,,,,1727.4283291311076,None,1727.4283291311076,None,f,1,2.2304113285572384,None,None,008,001,1,28,m,2021_Nov_08_1735,eye_tracking_exp,2021.2.3,85.00880128353698,
90,180,180,180,180,-168,180,180,-168,180,f,present,resp,freq_top,,,,,0,229,229,799,,,1.000746970268341,,,,,,,,,,1730.9223246257316,None,1730.9223246257316,None,f,1,2.5284331092843786,None,None,008,001,1,28,m,2021_Nov_08_1735,eye_tracking_exp,2021.2.3,85.00880128353698,
180,-168,180,180,-168,0,0,0,180,180,f,abs,resp,freq_top,,,,,0,230,230,337,,,0.8118610205525798,,,,,,,,,,1734.5585643398954,None,1734.5585643398954,None,f,1,2.8752162730597774,None,None,008,001,1,28,m,2021_Nov_08_1735,eye_tracking_exp,2021.2.3,85.00880128353698,
180,0,-12,0,180,180,180,0,-12,0,j,abs,resp,freq_top,,,,,0,231,231,123,,,0.74072525313318,,,,,,,,,,1738.4427607715115,None,1738.4427607715115,None,j,1,2.223147363642056,None,None,008,001,1,28,m,2021_Nov_08_1735,eye_tracking_exp,2021.2.3,85.00880128353698,
180,168,0,90,180,0,180,180,-168,180,f,present,resp,freq_top,,,,,0,232,232,915,,,0.782854928003587,,,,,,,,,,1741.7022797651298,None,1741.7022797651298,None,f,1,2.707695930796035,None,None,008,001,1,28,m,2021_Nov_08_1735,eye_tracking_exp,2021.2.3,85.00880128353698,
180,180,180,0,0,180,168,180,12,180,None,abs,inhibit,freq_top,,,,,0,233,233,441,,,0.7397709782168582,,,,,,,,,,1745.3165654923505,None,1745.3165654923505,None,None,1,,None,None,008,001,1,28,m,2021_Nov_08_1735,eye_tracking_exp,2021.2.3,85.00880128353698,
180,0,0,0,0,-12,180,180,-12,180,j,abs,resp,freq_top,,,,,0,234,234,106,,,1.0465949696768198,,,,,,,,,,1749.6823662686438,None,1749.6823662686438,None,j,1,1.7506986634180066,None,None,008,001,1,28,m,2021_Nov_08_1735,eye_tracking_exp,2021.2.3,85.00880128353698,
0,90,0,-168,180,180,180,-168,0,0,f,present,resp,freq_top,,,,,0,235,235,786,,,0.7328049107102813,,,,,,,,,,1752.5066432151143,None,1752.5066432151143,None,f,1,2.190450315203634,None,None,008,001,1,28,m,2021_Nov_08_1735,eye_tracking_exp,2021.2.3,85.00880128353698,
0,0,12,0,0,12,0,180,180,180,j,abs,resp,freq_top,,,,,0,236,236,18,,,1.041603107036265,,,,,,,,,,1755.9079373569402,None,1755.9079373569402,None,j,1,2.4225159586276277,None,None,008,001,1,28,m,2021_Nov_08_1735,eye_tracking_exp,2021.2.3,85.00880128353698,
168,180,0,90,0,168,0,180,180,180,f,present,resp,freq_top,,,,,0,237,237,780,,,1.0255006126087864,,,,,,,,,,1759.6146159486088,None,1759.6146159486088,None,f,1,2.4105609786056448,None,None,008,001,1,28,m,2021_Nov_08_1735,eye_tracking_exp,2021.2.3,85.00880128353698,
168,180,180,168,0,180,180,180,180,90,f,present,resp,freq_top,,,,,0,238,238,778,,,0.8413530372802906,,,,,,,,,,1763.1120365090828,None,1763.1120365090828,None,f,1,2.2092895357200177,None,None,008,001,1,28,m,2021_Nov_08_1735,eye_tracking_exp,2021.2.3,85.00880128353698,
0,-168,0,270,0,0,-168,0,180,0,f,present,resp,freq_top,,,,,0,239,239,810,,,1.0135697864145097,,,,,,,,,,1766.5470455298055,None,1766.5470455298055,None,f,1,2.4532597506040474,None,None,008,001,1,28,m,2021_Nov_08_1735,eye_tracking_exp,2021.2.3,85.00880128353698,
180,270,0,180,0,180,0,-168,0,-168,f,present,resp,freq_top,,,,,0,240,240,826,,,0.8196290764351919,,,,,,,,,,1769.8662207973684,None,1769.8662207973684,None,f,1,2.7021017873557867,None,None,008,001,1,28,m,2021_Nov_08_1735,eye_tracking_exp,2021.2.3,85.00880128353698,
0,0,0,180,12,0,0,0,12,0,j,abs,resp,freq_top,,,,,0,241,241,37,,,0.8845991363441832,,,,,,,,,,1773.8560409836718,None,1773.8560409836718,None,j,1,2.4243650776406866,None,None,008,001,1,28,m,2021_Nov_08_1735,eye_tracking_exp,2021.2.3,85.00880128353698,
-12,0,270,0,0,12,0,0,0,0,j,present,resp,freq_top,,,,,0,242,242,664,,,0.7713440872715946,,,,,,,,,,1777.3164350941443,None,1777.3164350941443,None,j,1,2.244002624960558,None,None,008,001,1,28,m,2021_Nov_08_1735,eye_tracking_exp,2021.2.3,85.00880128353698,
180,180,0,0,0,0,0,12,0,-12,j,abs,resp,freq_top,,,,,0,243,243,168,,,0.7024656849362939,,,,,,,,,,1780.4944346830234,None,1780.4944346830234,None,j,1,2.0891025350429118,None,None,008,001,1,28,m,2021_Nov_08_1735,eye_tracking_exp,2021.2.3,85.00880128353698,
180,180,90,0,0,12,0,180,12,0,j,present,resp,freq_top,,,,,0,244,244,540,,,0.9272543969069569,,,,,,,,,,1783.753846822554,None,1783.753846822554,None,j,1,2.0776923901212285,None,None,008,001,1,28,m,2021_Nov_08_1735,eye_tracking_exp,2021.2.3,85.00880128353698,
-12,0,0,180,180,180,12,180,180,180,j,abs,resp,freq_top,,,,,0,245,245,207,,,1.0770976695015697,,,,,,,,,,1787.1901157555767,None,1787.1901157555767,None,j,1,2.2574979337950936,None,None,008,001,1,28,m,2021_Nov_08_1735,eye_tracking_exp,2021.2.3,85.00880128353698,
180,90,0,180,180,180,180,-12,0,-12,j,present,resp,freq_top,,,,,0,246,246,602,,,1.0100212671863844,,,,,,,,,,1790.6730590966472,None,1790.6730590966472,None,j,1,2.790692578171729,None,None,008,001,1,28,m,2021_Nov_08_1735,eye_tracking_exp,2021.2.3,85.00880128353698,
0,270,180,180,168,0,0,0,0,168,f,present,resp,freq_top,,,,,0,247,247,724,,,0.8104405178824277,,,,,,,,,,1794.5332755395575,None,1794.5332755395575,None,f,1,2.4184171687011258,None,None,008,001,1,28,m,2021_Nov_08_1735,eye_tracking_exp,2021.2.3,85.00880128353698,
-168,180,90,0,168,0,180,180,180,180,f,present,resp,freq_top,,,,,0,248,248,918,,,1.0531699953474316,,,,,,,,,,1798.2166795605954,None,1798.2166795605954,None,f,1,2.094072155574395,None,None,008,001,1,28,m,2021_Nov_08_1735,eye_tracking_exp,2021.2.3,85.00880128353698,
270,180,180,168,180,180,168,180,0,180,f,present,resp,freq_top,,,,,0,249,249,715,,,0.7435203417049479,,,,,,,,,,1801.323142451889,None,1801.323142451889,None,f,1,2.2516393717742176,None,None,008,001,1,28,m,2021_Nov_08_1735,eye_tracking_exp,2021.2.3,85.00880128353698,
0,-168,0,0,270,180,180,-168,0,0,f,present,resp,freq_top,,,,,0,250,250,844,,,0.9355317731625638,,,,,,,,,,1804.8061422384853,None,1804.8061422384853,None,None,0,,1807.7970732243266,None,008,001,1,28,m,2021_Nov_08_1735,eye_tracking_exp,2021.2.3,85.00880128353698,
180,0,180,0,180,168,180,180,-168,180,f,abs,resp,freq_top,,,,,0,251,251,365,,,0.7624389799739805,,,,,,,,,,1812.7960943322396,None,1812.7960943322396,None,f,1,1.7858388671447756,None,None,008,001,1,28,m,2021_Nov_08_1735,eye_tracking_exp,2021.2.3,85.00880128353698,
0,0,180,180,180,180,12,0,168,0,None,abs,inhibit,freq_top,,,,,0,252,252,455,,,0.7333719280980083,,,,,,,,,,1815.678552422949,None,1815.678552422949,None,None,1,,None,None,008,001,1,28,m,2021_Nov_08_1735,eye_tracking_exp,2021.2.3,85.00880128353698,
12,0,0,180,0,12,0,0,0,0,j,abs,resp,freq_top,,,,,0,253,253,20,,,0.8681111166866011,,,,,,,,,,1819.5507464844559,None,1819.5507464844559,None,j,1,1.5112908765295288,None,None,008,001,1,28,m,2021_Nov_08_1735,eye_tracking_exp,2021.2.3,85.00880128353698,
0,0,0,-168,180,180,180,180,0,12,None,abs,inhibit,freq_top,,,,,0,254,254,424,,,1.0128335392144598,,,,,,,,,,1822.2573988153672,None,1822.2573988153672,None,None,1,,None,None,008,001,1,28,m,2021_Nov_08_1735,eye_tracking_exp,2021.2.3,85.00880128353698,
0,0,180,0,180,168,0,168,0,0,f,abs,resp,freq_top,,,,,0,255,255,239,,,0.7679964351241854,,,,,,,,,,1826.0364861426278,None,1826.0364861426278,None,f,1,1.4896613758683088,None,None,008,001,1,28,m,2021_Nov_08_1735,eye_tracking_exp,2021.2.3,85.00880128353698,
0,168,0,270,180,180,-168,0,0,0,f,present,resp,freq_top,,,,,0,256,256,880,,,1.0382745286773223,,,,,,,,,,1828.8485974193827,None,1828.8485974193827,None,f,1,1.7965614030108554,None,None,008,001,1,28,m,2021_Nov_08_1735,eye_tracking_exp,2021.2.3,85.00880128353698,
0,0,0,-168,0,0,-168,0,0,0,f,abs,resp,freq_top,,,,,0,257,257,304,,,0.7537762595609526,,,,,,,,,,1831.4484994999875,None,1831.4484994999875,None,f,1,1.8046980096187326,None,None,008,001,1,28,m,2021_Nov_08_1735,eye_tracking_exp,2021.2.3,85.00880128353698,
180,270,180,168,180,180,0,0,180,180,f,present,resp,freq_top,,,,,0,258,258,719,,,0.954846840345741,,,,,,,,,,1834.5082152379327,None,1834.5082152379327,None,None,0,,1837.4857085678595,None,008,001,1,28,m,2021_Nov_08_1735,eye_tracking_exp,2021.2.3,85.00880128353698,
168,0,168,180,90,180,0,0,180,180,f,present,resp,freq_top,,,,,0,259,259,777,,,0.9404247736620704,,,,,,,,,,1838.9563434652518,None,1838.9563434652518,None,f,1,2.649357222057006,None,None,008,001,1,28,m,2021_Nov_08_1735,eye_tracking_exp,2021.2.3,85.00880128353698,
180,0,180,180,-12,0,-12,180,180,180,j,abs,resp,freq_top,,,,,0,260,260,93,,,0.7584082153589529,,,,,,,,,,1842.6053679387624,None,1842.6053679387624,None,j,1,2.1990907056242577,None,None,008,001,1,28,m,2021_Nov_08_1735,eye_tracking_exp,2021.2.3,85.00880128353698,
-168,0,0,-168,0,0,0,270,0,0,f,present,resp,freq_top,,,,,0,261,261,790,,,0.7865363954556873,,,,,,,,,,1845.853087403928,None,1845.853087403928,None,j,0,2.6964182970114052,1848.5614623796646,None,008,001,1,28,m,2021_Nov_08_1735,eye_tracking_exp,2021.2.3,85.00880128353698,
90,180,168,180,180,180,-168,180,180,180,f,present,resp,freq_top,,,,,0,262,262,879,,,0.7799225901981728,,,,,,,,,,1849.8779466749838,None,1849.8779466749838,None,f,1,1.5185421638379921,None,None,008,001,1,28,m,2021_Nov_08_1735,eye_tracking_exp,2021.2.3,85.00880128353698,
168,0,180,180,180,180,0,168,180,180,f,abs,resp,freq_top,,,,,0,263,263,244,,,0.9922783275656342,,,,,,,,,,1852.6781621338669,None,1852.6781621338669,None,f,1,2.846378347465361,None,None,008,001,1,28,m,2021_Nov_08_1735,eye_tracking_exp,2021.2.3,85.00880128353698,
0,0,0,168,0,-168,0,0,0,0,f,abs,resp,freq_top,,,,,0,264,264,350,,,0.9482443479630467,,,,,,,,,,1856.8907927094115,None,1856.8907927094115,None,f,1,1.8177499041776173,None,None,008,001,1,28,m,2021_Nov_08_1735,eye_tracking_exp,2021.2.3,85.00880128353698,
0,0,180,0,-12,0,0,0,-12,0,j,abs,resp,freq_top,,,,,0,265,265,107,,,0.9217758825561548,,,,,,,,,,1859.879508434984,None,1859.879508434984,None,j,1,2.476173915078107,None,None,008,001,1,28,m,2021_Nov_08_1735,eye_tracking_exp,2021.2.3,85.00880128353698,
-12,180,180,0,0,-12,0,0,0,0,j,abs,resp,freq_top,,,,,0,266,266,136,,,0.779068780160788,,,,,,,,,,1863.3747731991825,None,1863.3747731991825,None,j,1,2.5809530998958508,None,None,008,001,1,28,m,2021_Nov_08_1735,eye_tracking_exp,2021.2.3,85.00880128353698,
270,0,-168,0,0,-168,180,180,180,180,f,present,resp,freq_top,,,,,0,267,267,802,,,1.0996713937785065,,,,,,,,,,1867.4120432402851,None,1867.4120432402851,None,f,1,2.6556607075835927,None,None,008,001,1,28,m,2021_Nov_08_1735,eye_tracking_exp,2021.2.3,85.00880128353698,
-168,0,270,0,0,0,180,180,168,180,f,present,resp,freq_top,,,,,0,268,268,923,,,0.7665841082875563,,,,,,,,,,1871.1430118182398,None,1871.1430118182398,None,f,1,2.572468764738005,None,None,008,001,1,28,m,2021_Nov_08_1735,eye_tracking_exp,2021.2.3,85.00880128353698,
180,180,180,180,168,180,180,180,168,180,f,abs,resp,freq_top,,,,,0,269,269,219,,,0.9415562703532481,,,,,,,,,,1874.8720615503698,None,1874.8720615503698,None,f,1,1.867430111633439,None,None,008,001,1,28,m,2021_Nov_08_1735,eye_tracking_exp,2021.2.3,85.00880128353698,
168,0,90,180,0,180,168,180,0,180,f,present,resp,freq_top,,,,,0,270,270,741,,,0.8548491671829906,,,,,,,,,,1877.8492780859451,None,1877.8492780859451,None,f,1,1.9299077560353908,None,None,008,001,1,28,m,2021_Nov_08_1735,eye_tracking_exp,2021.2.3,85.00880128353698,
168,0,90,180,180,0,-168,180,180,180,f,present,resp,freq_top,,,,,0,271,271,881,,,0.8486352927691101,,,,,,,,,,1880.8735230969323,None,1880.8735230969323,None,f,1,2.1864001227659173,None,None,008,001,1,28,m,2021_Nov_08_1735,eye_tracking_exp,2021.2.3,85.00880128353698,
270,0,-12,0,0,0,0,0,-12,0,j,present,resp,freq_top,,,,,0,272,272,627,,,1.0780970803435397,,,,,,,,,,1884.4042616065708,None,1884.4042616065708,None,j,1,1.8879328148323111,None,None,008,001,1,28,m,2021_Nov_08_1735,eye_tracking_exp,2021.2.3,85.00880128353698,
0,0,180,0,168,0,0,0,168,0,f,abs,resp,freq_top,,,,,0,273,273,247,,,0.8246137426065375,,,,,,,,,,1887.3605425893547,None,1887.3605425893547,None,f,1,1.7145466661968385,None,None,008,001,1,28,m,2021_Nov_08_1735,eye_tracking_exp,2021.2.3,85.00880128353698,
0,180,180,180,180,180,168,0,0,12,None,abs,inhibit,freq_top,,,,,0,274,274,442,,,0.8004933604943798,,,,,,,,,,1890.0882699267022,None,1890.0882699267022,None,None,1,,None,None,008,001,1,28,m,2021_Nov_08_1735,eye_tracking_exp,2021.2.3,85.00880128353698,
180,0,-12,180,0,180,0,180,0,-12,j,abs,resp,freq_top,,,,,0,275,275,124,,,0.7055339549369287,,,,,,,,,,1893.806560599398,None,1893.806560599398,None,j,1,1.8125062059261836,None,None,008,001,1,28,m,2021_Nov_08_1735,eye_tracking_exp,2021.2.3,85.00880128353698,
0,0,12,0,12,0,180,180,180,0,j,abs,resp,freq_top,,,,,0,276,276,49,,,1.0411134665767292,,,,,,,,,,1896.7131924650384,None,1896.7131924650384,None,j,1,2.6490167378506158,None,None,008,001,1,28,m,2021_Nov_08_1735,eye_tracking_exp,2021.2.3,85.00880128353698,
0,0,0,0,0,168,0,0,0,168,f,abs,resp,freq_top,,,,,0,277,277,226,,,1.022577455410715,,,,,,,,,,1900.6672071752837,None,1900.6672071752837,None,f,1,2.790664808184374,None,None,008,001,1,28,m,2021_Nov_08_1735,eye_tracking_exp,2021.2.3,85.00880128353698,
90,180,0,0,168,180,180,180,168,180,f,present,resp,freq_top,,,,,0,278,278,723,,,0.7067218587230567,,,,,,,,,,1904.4211533057314,None,1904.4211533057314,None,f,1,1.8846034346934175,None,None,008,001,1,28,m,2021_Nov_08_1735,eye_tracking_exp,2021.2.3,85.00880128353698,
0,90,180,12,0,0,12,180,180,180,j,present,resp,freq_top,,,,,0,279,279,528,,,0.8868678034103287,,,,,,,,,,1907.4693580816238,None,1907.4693580816238,None,None,0,,1910.4592630871339,None,008,001,1,28,m,2021_Nov_08_1735,eye_tracking_exp,2021.2.3,85.00880128353698,
180,12,0,0,270,180,-12,0,180,180,j,present,resp,freq_top,,,,,0,280,280,703,,,1.0325715543162188,,,,,,,,,,1912.0130331800028,None,1912.0130331800028,None,j,1,1.4923100894375239,None,None,008,001,1,28,m,2021_Nov_08_1735,eye_tracking_exp,2021.2.3,85.00880128353698,
-12,0,0,90,180,180,-12,0,180,0,j,present,resp,freq_top,,,,,0,281,281,641,,,1.0066255581102308,,,,,,,,,,1914.7777513493347,None,1914.7777513493347,None,j,1,1.6556688574710279,None,None,008,001,1,28,m,2021_Nov_08_1735,eye_tracking_exp,2021.2.3,85.00880128353698,
0,12,180,0,0,0,180,12,0,0,j,abs,resp,freq_top,,,,,0,282,282,33,,,0.8699726118907304,,,,,,,,,,1917.6253843653176,None,1917.6253843653176,None,j,1,1.847649126284523,None,None,008,001,1,28,m,2021_Nov_08_1735,eye_tracking_exp,2021.2.3,85.00880128353698,
0,168,0,0,-168,0,0,0,0,0,f,abs,resp,freq_top,,,,,0,283,283,362,,,1.0720508134509128,,,,,,,,,,1920.6023751188186,None,1920.6023751188186,None,f,1,1.7021549125565798,None,None,008,001,1,28,m,2021_Nov_08_1735,eye_tracking_exp,2021.2.3,85.00880128353698,
0,168,180,180,-168,0,0,270,0,0,f,present,resp,freq_top,,,,,0,284,284,866,,,1.0791812867173807,,,,,,,,,,1923.5914723798778,None,1923.5914723798778,None,f,1,1.849225073128764,None,None,008,001,1,28,m,2021_Nov_08_1735,eye_tracking_exp,2021.2.3,85.00880128353698,
168,0,180,0,180,0,168,180,180,180,f,abs,resp,freq_top,,,,,0,285,285,237,,,0.7176642920912646,,,,,,,,,,1926.3218949153452,None,1926.3218949153452,None,f,1,1.934664875792805,None,None,008,001,1,28,m,2021_Nov_08_1735,eye_tracking_exp,2021.2.3,85.00880128353698,
180,180,0,0,180,180,180,168,0,168,f,abs,resp,freq_top,,,,,0,286,286,238,,,0.8718755505693987,,,,,,,,,,1929.404952837809,None,1929.404952837809,None,f,1,2.0196365126757883,None,None,008,001,1,28,m,2021_Nov_08_1735,eye_tracking_exp,2021.2.3,85.00880128353698,
-12,0,180,0,0,0,0,0,-12,0,j,abs,resp,freq_top,,,,,0,287,287,111,,,0.808903441752538,,,,,,,,,,1932.4179416461993,None,1932.4179416461993,None,j,1,2.0307442061966867,None,None,008,001,1,28,m,2021_Nov_08_1735,eye_tracking_exp,2021.2.3,85.00880128353698,
90,180,180,-12,0,0,180,180,-12,0,j,present,resp,freq_top,,,,,0,288,288,577,,,1.012757553718647,,,,,,,,,,1935.6189568203845,None,1935.6189568203845,None,j,1,1.7905648965897853,None,None,008,001,1,28,m,2021_Nov_08_1735,eye_tracking_exp,2021.2.3,85.00880128353698,
180,-168,180,270,0,180,12,0,180,180,None,present,inhibit,freq_top,,,,,0,289,289,983,,,0.858316154880989,,,,,,,,,,1938.3144727822437,None,1938.3144727822437,None,None,1,,None,None,008,001,1,28,m,2021_Nov_08_1735,eye_tracking_exp,2021.2.3,85.00880128353698,
90,180,180,-168,0,180,0,180,-12,180,None,present,inhibit,freq_top,,,,,0,290,290,997,,,0.793285216259785,,,,,,,,,,1942.1631996942888,None,1942.1631996942888,None,None,1,,None,None,008,001,1,28,m,2021_Nov_08_1735,eye_tracking_exp,2021.2.3,85.00880128353698,
0,0,180,0,0,0,12,0,180,12,j,abs,resp,freq_top,,,,,0,291,291,43,,,0.8733767918021326,,,,,,,,,,1946.2940660666136,None,1946.2940660666136,None,j,1,2.0258271071579657,None,None,008,001,1,28,m,2021_Nov_08_1735,eye_tracking_exp,2021.2.3,85.00880128353698,
12,0,0,0,0,-168,0,0,0,0,None,abs,inhibit,freq_top,,,,,0,292,292,440,,,0.9655189139641862,,,,,,,,,,1949.4595957233032,None,1949.4595957233032,None,None,1,,None,None,008,001,1,28,m,2021_Nov_08_1735,eye_tracking_exp,2021.2.3,85.00880128353698,
180,12,180,180,0,180,0,180,0,-168,None,abs,inhibit,freq_top,,,,,0,293,293,468,,,0.9455159188361888,,,,,,,,,,1967.5548576501315,None,1967.5548576501315,None,None,1,,None,None,008,001,1,28,m,2021_Nov_08_1735,eye_tracking_exp,2021.2.3,85.00880128353698,
0,180,-12,180,0,-12,180,0,180,0,j,abs,resp,freq_top,,,,,0,294,294,120,,,0.860326683916861,,,,,,,,,,1971.4382399985043,None,1971.4382399985043,None,j,1,1.6319994700461393,None,None,008,001,1,28,m,2021_Nov_08_1735,eye_tracking_exp,2021.2.3,85.00880128353698,
180,-168,180,-168,0,180,0,180,0,180,f,abs,resp,freq_top,,,,,0,295,295,285,,,1.0418187946526953,,,,,,,,,,1974.381281035603,None,1974.381281035603,None,f,1,1.7610025365138426,None,None,008,001,1,28,m,2021_Nov_08_1735,eye_tracking_exp,2021.2.3,85.00880128353698,
168,0,168,180,0,0,180,180,0,180,f,abs,resp,freq_top,,,,,0,296,296,273,,,0.9487217270814434,,,,,,,,,,1977.4281193469578,None,1977.4281193469578,None,f,1,1.73820639448968,None,None,008,001,1,28,m,2021_Nov_08_1735,eye_tracking_exp,2021.2.3,85.00880128353698,
0,90,0,0,0,-12,0,0,0,-12,j,present,resp,freq_top,,,,,0,297,297,590,,,0.7353936294451225,,,,,,,,,,1980.1700468075214,None,1980.1700468075214,None,j,1,2.14831509286887,None,None,008,001,1,28,m,2021_Nov_08_1735,eye_tracking_exp,2021.2.3,85.00880128353698,
180,168,180,270,180,168,180,180,180,180,f,present,resp,freq_top,,,,,0,298,298,733,,,0.9979604659473271,,,,,,,,,,1983.3592962601979,None,1983.3592962601979,None,f,1,2.127258197295305,None,None,008,001,1,28,m,2021_Nov_08_1735,eye_tracking_exp,2021.2.3,85.00880128353698,
12,180,180,90,0,12,0,0,180,180,j,present,resp,freq_top,,,,,0,299,299,570,,,0.7719498946078612,,,,,,,,,,1986.3838554946415,None,1986.3838554946415,None,j,1,2.029603825591039,None,None,008,001,1,28,m,2021_Nov_08_1735,eye_tracking_exp,2021.2.3,85.00880128353698,
-168,180,90,0,0,168,180,180,0,0,f,present,resp,freq_top,,,,,0,300,300,920,,,0.9468950890836413,,,,,,,,,,1989.4080247418533,None,1989.4080247418533,None,f,1,1.7895168813774944,None,None,008,001,1,28,m,2021_Nov_08_1735,eye_tracking_exp,2021.2.3,85.00880128353698,
180,180,180,-168,180,180,12,180,0,180,None,abs,inhibit,freq_top,,,,,0,301,301,421,,,0.9756733548034257,,,,,,,,,,1992.2089848590185,None,1992.2089848590185,None,None,1,,None,None,008,001,1,28,m,2021_Nov_08_1735,eye_tracking_exp,2021.2.3,85.00880128353698,
168,180,0,180,168,180,0,180,0,180,f,abs,resp,freq_top,,,,,0,302,302,223,,,0.873157385744038,,,,,,,,,,1996.1759506466915,None,1996.1759506466915,None,f,1,1.4057941997234593,None,None,008,001,1,28,m,2021_Nov_08_1735,eye_tracking_exp,2021.2.3,85.00880128353698,
0,0,0,0,-12,180,180,180,0,12,j,abs,resp,freq_top,,,,,0,303,303,150,,,0.9482737075626722,,,,,,,,,,1998.5882030674402,None,1998.5882030674402,None,j,1,1.6969857706862967,None,None,008,001,1,28,m,2021_Nov_08_1735,eye_tracking_exp,2021.2.3,85.00880128353698,
270,0,-12,0,180,180,180,180,-12,0,j,present,resp,freq_top,,,,,0,304,304,613,,,0.8227605972030021,,,,,,,,,,2001.3772148452335,None,2001.3772148452335,None,j,1,1.6605862583528506,None,None,008,001,1,28,m,2021_Nov_08_1735,eye_tracking_exp,2021.2.3,85.00880128353698,
0,12,0,0,168,0,180,180,180,180,None,abs,inhibit,freq_top,,,,,0,305,305,432,,,0.7085832310235215,,,,,,,,,,2004.0138692981345,None,2004.0138692981345,None,None,1,,None,None,008,001,1,28,m,2021_Nov_08_1735,eye_tracking_exp,2021.2.3,85.00880128353698,
90,0,-12,0,0,-12,180,180,180,180,j,present,resp,freq_top,,,,,0,306,306,592,,,0.811517667617658,,,,,,,,,,2008.1927191919895,None,2008.1927191919895,None,f,0,1.8361076776200207,2010.0421509184162,None,008,001,1,28,m,2021_Nov_08_1735,eye_tracking_exp,2021.2.3,85.00880128353698,
180,-168,0,180,0,180,-168,0,180,180,f,abs,resp,freq_top,,,,,0,307,307,339,,,1.0549237315032864,,,,,,,,,,2011.6268785114298,None,2011.6268785114298,None,f,1,1.4099020450812532,None,None,008,001,1,28,m,2021_Nov_08_1735,eye_tracking_exp,2021.2.3,85.00880128353698,
180,0,180,168,180,168,180,0,180,180,f,abs,resp,freq_top,,,,,0,308,308,227,,,0.7015468998540946,,,,,,,,,,2013.791886273444,None,2013.791886273444,None,f,1,1.965073314975598,None,None,008,001,1,28,m,2021_Nov_08_1735,eye_tracking_exp,2021.2.3,85.00880128353698,
12,0,270,0,0,12,0,0,0,0,j,present,resp,freq_top,,,,,0,309,309,524,,,1.0432462322628457,,,,,,,,,,2017.0289541369566,None,2017.0289541369566,None,j,1,1.7829417329194257,None,None,008,001,1,28,m,2021_Nov_08_1735,eye_tracking_exp,2021.2.3,85.00880128353698,
0,-168,0,90,0,180,180,180,180,12,None,present,inhibit,freq_top,,,,,0,310,310,986,,,1.0526142248877757,,,,,,,,,,2020.111594905895,None,2020.111594905895,None,None,1,,None,None,008,001,1,28,m,2021_Nov_08_1735,eye_tracking_exp,2021.2.3,85.00880128353698,
270,0,168,0,168,0,180,180,180,180,f,present,resp,freq_top,,,,,0,311,311,763,,,0.7123635982392723,,,,,,,,,,2024.124772369105,None,2024.124772369105,None,f,1,2.0156949854062987,None,None,008,001,1,28,m,2021_Nov_08_1735,eye_tracking_exp,2021.2.3,85.00880128353698,
-168,0,0,168,0,90,180,180,180,0,f,present,resp,freq_top,,,,,0,312,312,860,,,0.7906518785374365,,,,,,,,,,2027.2324894375924,None,2027.2324894375924,None,f,1,2.026644510733604,None,None,008,001,1,28,m,2021_Nov_08_1735,eye_tracking_exp,2021.2.3,85.00880128353698,
180,0,180,-12,180,-12,180,0,180,0,j,abs,resp,freq_top,,,,,0,313,313,87,,,0.8380685885543813,,,,,,,,,,2030.339302774075,None,2030.339302774075,None,j,1,2.5523835169078666,None,None,008,001,1,28,m,2021_Nov_08_1735,eye_tracking_exp,2021.2.3,85.00880128353698,
0,180,0,0,180,168,180,0,0,168,f,abs,resp,freq_top,,,,,0,314,314,254,,,1.0337186091578245,,,,,,,,,,2034.1526470986864,None,2034.1526470986864,None,f,1,1.9864586208423134,None,None,008,001,1,28,m,2021_Nov_08_1735,eye_tracking_exp,2021.2.3,85.00880128353698,
0,-168,0,0,180,180,180,180,0,-168,f,abs,resp,freq_top,,,,,0,315,315,342,,,1.0888363168494013,,,,,,,,,,2037.4831830081457,None,2037.4831830081457,None,f,1,2.17600418611255,None,None,008,001,1,28,m,2021_Nov_08_1735,eye_tracking_exp,2021.2.3,85.00880128353698,
180,180,270,0,180,-12,0,180,0,-12,j,present,resp,freq_top,,,,,0,316,316,618,,,1.0585023814572643,,,,,,,,,,2040.9780976290203,None,2040.9780976290203,None,j,1,1.9451552907703444,None,None,008,001,1,28,m,2021_Nov_08_1735,eye_tracking_exp,2021.2.3,85.00880128353698,
180,168,180,180,-168,0,0,0,180,180,f,abs,resp,freq_top,,,,,0,317,317,407,,,0.8011119050181819,,,,,,,,,,2043.778998282185,None,2043.778998282185,None,f,1,1.6552975847953348,None,None,008,001,1,28,m,2021_Nov_08_1735,eye_tracking_exp,2021.2.3,85.00880128353698,
12,0,0,12,0,0,90,180,180,0,j,present,resp,freq_top,,,,,0,318,318,510,,,0.772504946897946,,,,,,,,,,2046.4615764479095,None,2046.4615764479095,None,j,1,2.1893422322900733,None,None,008,001,1,28,m,2021_Nov_08_1735,eye_tracking_exp,2021.2.3,85.00880128353698,
12,0,12,0,0,0,0,0,180,180,j,abs,resp,freq_top,,,,,0,319,319,55,,,0.8513627670139597,,,,,,,,,,2049.8039115839783,None,2049.8039115839783,None,j,1,1.9504617733400664,None,None,008,001,1,28,m,2021_Nov_08_1735,eye_tracking_exp,2021.2.3,85.00880128353698,
180,180,90,180,12,180,12,0,0,180,j,present,resp,freq_top,,,,,0,320,320,511,,,0.8258678381560449,,,,,,,,,,2052.7698855001145,None,2052.7698855001145,None,j,1,2.457676084304694,None,None,008,001,1,28,m,2021_Nov_08_1735,eye_tracking_exp,2021.2.3,85.00880128353698,
0,-168,0,0,180,180,180,180,0,12,None,abs,inhibit,freq_top,,,,,0,321,321,482,,,0.8523194888536468,,,,,,,,,,2056.360436942654,None,2056.360436942654,None,None,1,,None,None,008,001,1,28,m,2021_Nov_08_1735,eye_tracking_exp,2021.2.3,85.00880128353698,
-168,0,0,180,0,0,0,168,180,180,f,abs,resp,freq_top,,,,,0,322,322,384,,,0.9479881927238702,,,,,,,,,,2060.314433843887,None,2060.314433843887,None,f,1,1.7270513108815067,None,None,008,001,1,28,m,2021_Nov_08_1735,eye_tracking_exp,2021.2.3,85.00880128353698,
180,180,168,180,0,0,180,0,0,168,f,abs,resp,freq_top,,,,,0,323,323,264,,,0.9347598404817002,,,,,,,,,,2063.2208350978835,None,2063.2208350978835,None,f,1,2.212736334615329,None,None,008,001,1,28,m,2021_Nov_08_1735,eye_tracking_exp,2021.2.3,85.00880128353698,
180,0,180,180,168,180,-168,180,180,180,f,abs,resp,freq_top,,,,,0,324,324,373,,,0.7290248042823106,,,,,,,,,,2066.410785440923,None,2066.410785440923,None,f,1,2.3028236863174243,None,None,008,001,1,28,m,2021_Nov_08_1735,eye_tracking_exp,2021.2.3,85.00880128353698,
270,0,12,0,0,12,180,180,180,0,j,present,resp,freq_top,,,,,0,325,325,522,,,0.980250100488917,,,,,,,,,,2069.741302032133,None,2069.741302032133,None,j,1,2.0443539153129677,None,None,008,001,1,28,m,2021_Nov_08_1735,eye_tracking_exp,2021.2.3,85.00880128353698,
90,180,0,12,180,0,-12,0,180,0,j,present,resp,freq_top,,,,,0,326,326,645,,,0.9062037605060188,,,,,,,,,,2072.9424974093927,None,2072.9424974093927,None,j,1,1.9152883663628018,None,None,008,001,1,28,m,2021_Nov_08_1735,eye_tracking_exp,2021.2.3,85.00880128353698,
0,270,180,180,-12,180,180,180,-12,0,j,present,resp,freq_top,,,,,0,327,327,611,,,1.0474072891770763,,,,,,,,,,2076.1659851448712,None,2076.1659851448712,None,j,1,2.194788470354979,None,None,008,001,1,28,m,2021_Nov_08_1735,eye_tracking_exp,2021.2.3,85.00880128353698,
180,0,-12,0,0,0,12,0,0,0,j,abs,resp,freq_top,,,,,0,328,328,191,,,0.7289877423624946,,,,,,,,,,2079.2488951619525,None,2079.2488951619525,None,j,1,2.247919098866987,None,None,008,001,1,28,m,2021_Nov_08_1735,eye_tracking_exp,2021.2.3,85.00880128353698,
180,12,0,270,180,0,180,0,168,180,None,present,inhibit,freq_top,,,,,0,329,329,964,,,0.8410476253010546,,,,,,,,,,2082.602563773631,None,2082.602563773631,None,None,1,,None,None,008,001,1,28,m,2021_Nov_08_1735,eye_tracking_exp,2021.2.3,85.00880128353698,
180,180,90,180,180,12,180,180,12,180,j,present,resp,freq_top,,,,,0,330,330,519,,,0.7044447328790516,,,,,,,,,,2086.663168453051,None,2086.663168453051,None,j,1,1.7137663898902247,None,None,008,001,1,28,m,2021_Nov_08_1735,eye_tracking_exp,2021.2.3,85.00880128353698,
0,90,180,180,180,12,0,12,0,180,j,present,resp,freq_top,,,,,0,331,331,533,,,0.9620756314126286,,,,,,,,,,2089.4522641445074,None,2089.4522641445074,None,j,1,1.5966386156505905,None,None,008,001,1,28,m,2021_Nov_08_1735,eye_tracking_exp,2021.2.3,85.00880128353698,
12,180,90,180,168,0,180,0,180,180,None,present,inhibit,freq_top,,,,,0,332,332,1007,,,0.8866207437667716,,,,,,,,,,2092.336255621536,None,2092.336255621536,None,None,1,,None,None,008,001,1,28,m,2021_Nov_08_1735,eye_tracking_exp,2021.2.3,85.00880128353698,
-168,180,180,-168,0,180,180,180,180,0,f,abs,resp,freq_top,,,,,0,333,333,344,,,0.9485037358128443,,,,,,,,,,2096.5716941111605,None,2096.5716941111605,None,f,1,1.8043460551998578,None,None,008,001,1,28,m,2021_Nov_08_1735,eye_tracking_exp,2021.2.3,85.00880128353698,
0,12,0,90,180,180,180,-12,0,0,j,present,resp,freq_top,,,,,0,334,334,704,,,1.0573509602280367,,,,,,,,,,2099.678091199661,None,2099.678091199661,None,j,1,1.6899813948039082,None,None,008,001,1,28,m,2021_Nov_08_1735,eye_tracking_exp,2021.2.3,85.00880128353698,
0,0,180,180,180,12,0,-168,0,0,None,abs,inhibit,freq_top,,,,,0,335,335,449,,,1.0639516710364465,,,,,,,,,,2104.196403545022,None,2104.196403545022,None,None,1,,None,None,008,001,1,28,m,2021_Nov_08_1735,eye_tracking_exp,2021.2.3,85.00880128353698,
180,-12,0,180,-12,0,0,0,180,180,j,abs,resp,freq_top,,,,,0,336,336,127,,,1.093998395255193,,,,,,,,,,2108.291853221126,None,2108.291853221126,None,f,0,1.7953310717784916,2110.115871182272,None,008,001,1,28,m,2021_Nov_08_1735,eye_tracking_exp,2021.2.3,85.00880128353698,
-168,0,0,180,180,180,180,0,-168,180,f,abs,resp,freq_top,,,,,0,337,337,349,,,0.9234436564111763,,,,,,,,,,2111.5747720521613,None,2111.5747720521613,None,f,1,1.2497075464925729,None,None,008,001,1,28,m,2021_Nov_08_1735,eye_tracking_exp,2021.2.3,85.00880128353698,
