ori10,ori11,ori12,ori13,ori14,ori16,ori17,ori18,ori19,ori20,corrAns,distractor,respon,dist_freq,practice_trials.thisRepN,practice_trials.thisTrialN,practice_trials.thisN,practice_trials.thisIndex,trials.thisRepN,trials.thisTrialN,trials.thisN,trials.thisIndex,key_resp.keys,key_resp.rt,fixdur,int14_2.started,int14_2.stopped,per15_2.started,per15_2.stopped,response_pract.keys,response_pract.corr,response_pract.rt,key_resp_2.keys,key_resp_2.rt,int14.started,int14.stopped,per15.started,per15.stopped,response.keys,response.corr,text_7.started,text_7.stopped,response.rt,participant,session,1=top 2=bottom,age,gender,date,expName,psychopyVersion,frameRate,
,,,,,,,,,,,,,,,,,,,,,,space,2.5391570634456,,,,,,,,,,,,,,,,,,,,009,001,1,28,m,2021_Nov_08_1913,eye_tracking_exp,2021.2.3,85.07450919575236,
90,0,180,180,180,168,0,168,0,0,f,present,resp,pract,0,0,0,44,,,,,,,0.9815816041367367,424.664135874933,None,424.664135874933,None,f,1,1.9737450066240854,,,,,,,,,,,,009,001,1,28,m,2021_Nov_08_1913,eye_tracking_exp,2021.2.3,85.07450919575236,
0,0,0,-168,0,12,0,0,0,0,None,abs,inhibit,pract,0,1,1,21,,,,,,,0.711581978276673,427.5939345515726,None,427.5939345515726,None,None,1,,,,,,,,,,,,,009,001,1,28,m,2021_Nov_08_1913,eye_tracking_exp,2021.2.3,85.07450919575236,
180,0,180,12,180,180,12,180,180,180,j,abs,resp,pract,0,2,2,1,,,,,,,0.9408003721036396,431.5482037194306,None,431.5482037194306,None,j,1,0.9137527761849924,,,,,,,,,,,,009,001,1,28,m,2021_Nov_08_1913,eye_tracking_exp,2021.2.3,85.07450919575236,
90,0,0,12,0,12,180,180,180,0,j,present,resp,pract,0,3,3,32,,,,,,,0.9534636421936178,433.6896915086327,None,433.6896915086327,None,j,1,0.7712809634831501,,,,,,,,,,,,009,001,1,28,m,2021_Nov_08_1913,eye_tracking_exp,2021.2.3,85.07450919575236,
180,180,90,180,12,180,12,0,0,180,j,present,resp,pract,0,4,4,39,,,,,,,0.987975486435984,435.771990887828,None,435.771990887828,None,j,1,0.8010129619578947,,,,,,,,,,,,009,001,1,28,m,2021_Nov_08_1913,eye_tracking_exp,2021.2.3,85.07450919575236,
0,180,0,0,180,168,180,0,0,168,f,abs,resp,pract,0,5,5,16,,,,,,,1.0460341378862978,437.8898889773991,None,437.8898889773991,None,f,1,0.9710978022922063,,,,,,,,,,,,009,001,1,28,m,2021_Nov_08_1913,eye_tracking_exp,2021.2.3,85.07450919575236,
180,270,0,0,168,0,0,168,180,0,f,present,resp,pract,0,6,6,45,,,,,,,0.8228230652793016,439.99650188700616,None,439.99650188700616,None,f,1,0.8644791575861746,,,,,,,,,,,,009,001,1,28,m,2021_Nov_08_1913,eye_tracking_exp,2021.2.3,85.07450919575236,
0,180,0,12,0,180,180,12,0,0,j,abs,resp,pract,0,7,7,2,,,,,,,1.0483060146500163,442.2907179719259,None,442.2907179719259,None,j,1,0.8258791755069979,,,,,,,,,,,,009,001,1,28,m,2021_Nov_08_1913,eye_tracking_exp,2021.2.3,85.07450919575236,
0,168,180,90,0,180,0,168,0,0,f,present,resp,pract,0,8,8,48,,,,,,,1.0281710432119278,444.33811651261203,None,444.33811651261203,None,f,1,1.2269668535154779,,,,,,,,,,,,009,001,1,28,m,2021_Nov_08_1913,eye_tracking_exp,2021.2.3,85.07450919575236,
0,180,0,12,0,12,0,180,180,180,j,abs,resp,pract,0,9,9,0,,,,,,,0.8125519116406651,446.6799074172741,None,446.6799074172741,None,j,1,0.7094888152059866,,,,,,,,,,,,009,001,1,28,m,2021_Nov_08_1913,eye_tracking_exp,2021.2.3,85.07450919575236,
0,0,168,0,0,0,0,0,168,0,f,abs,resp,pract,0,10,10,11,,,,,,,0.8900388915015708,448.53877671390364,None,448.53877671390364,None,f,1,0.76938022851391,,,,,,,,,,,,009,001,1,28,m,2021_Nov_08_1913,eye_tracking_exp,2021.2.3,85.07450919575236,
90,0,180,168,180,180,0,168,0,0,f,present,resp,pract,0,11,11,46,,,,,,,0.7832954823333823,450.2918568433015,None,450.2918568433015,None,f,1,0.8245395754129277,,,,,,,,,,,,009,001,1,28,m,2021_Nov_08_1913,eye_tracking_exp,2021.2.3,85.07450919575236,
180,270,0,0,0,0,0,168,0,168,f,present,resp,pract,0,12,12,43,,,,,,,0.8818475925700947,452.2702339832831,None,452.2702339832831,None,f,1,1.277990283240797,,,,,,,,,,,,009,001,1,28,m,2021_Nov_08_1913,eye_tracking_exp,2021.2.3,85.07450919575236,
12,0,0,12,0,0,90,180,180,0,j,present,resp,pract,0,13,13,38,,,,,,,0.8178932500857353,454.64718622101645,None,454.64718622101645,None,j,1,1.7172924838014296,,,,,,,,,,,,009,001,1,28,m,2021_Nov_08_1913,eye_tracking_exp,2021.2.3,85.07450919575236,
12,0,0,12,0,0,180,0,180,180,j,abs,resp,pract,0,14,14,6,,,,,,,0.9560022996836341,457.6947045952402,None,457.6947045952402,None,j,1,0.6216638120095013,,,,,,,,,,,,009,001,1,28,m,2021_Nov_08_1913,eye_tracking_exp,2021.2.3,85.07450919575236,
180,0,180,12,0,180,180,0,12,180,j,abs,resp,pract,0,15,15,3,,,,,,,1.0603586868593944,459.9644562258982,None,459.9644562258982,None,j,1,0.7038177006033948,,,,,,,,,,,,009,001,1,28,m,2021_Nov_08_1913,eye_tracking_exp,2021.2.3,85.07450919575236,
180,180,0,168,180,180,180,0,0,168,f,abs,resp,pract,0,16,16,18,,,,,,,0.8107205733387174,461.85943012965436,None,461.85943012965436,None,f,1,0.7612783343793126,,,,,,,,,,,,009,001,1,28,m,2021_Nov_08_1913,eye_tracking_exp,2021.2.3,85.07450919575236,
180,0,180,0,12,180,180,180,12,180,j,abs,resp,pract,0,17,17,9,,,,,,,0.8926611602476262,463.8843262261289,None,463.8843262261289,None,j,1,0.6390568801944028,,,,,,,,,,,,009,001,1,28,m,2021_Nov_08_1913,eye_tracking_exp,2021.2.3,85.07450919575236,
90,0,0,12,0,0,0,12,0,0,j,present,resp,pract,0,18,18,34,,,,,,,1.0174352783271534,465.83693281685555,None,465.83693281685555,None,j,1,0.6384486570823356,,,,,,,,,,,,009,001,1,28,m,2021_Nov_08_1913,eye_tracking_exp,2021.2.3,85.07450919575236,
0,270,0,0,12,0,180,180,180,12,j,present,resp,pract,0,19,19,42,,,,,,,0.7191157902768344,467.66000176883244,None,467.66000176883244,None,j,1,0.7994219227330177,,,,,,,,,,,,009,001,1,28,m,2021_Nov_08_1913,eye_tracking_exp,2021.2.3,85.07450919575236,
0,0,0,-168,180,180,180,180,0,12,None,abs,inhibit,pract,0,20,20,25,,,,,,,0.9441457966502902,469.71924390773347,None,469.71924390773347,None,None,1,,,,,,,,,,,,,009,001,1,28,m,2021_Nov_08_1913,eye_tracking_exp,2021.2.3,85.07450919575236,
0,0,180,0,168,0,0,0,180,168,f,abs,resp,pract,0,21,21,17,,,,,,,0.7640114191218144,473.4848416612658,None,473.4848416612658,None,f,1,0.7507184944406617,,,,,,,,,,,,009,001,1,28,m,2021_Nov_08_1913,eye_tracking_exp,2021.2.3,85.07450919575236,
180,0,180,0,12,0,12,180,180,180,j,abs,resp,pract,0,22,22,7,,,,,,,0.8396572888598457,475.3439134976943,None,475.3439134976943,None,j,1,0.8916484690926154,,,,,,,,,,,,009,001,1,28,m,2021_Nov_08_1913,eye_tracking_exp,2021.2.3,85.07450919575236,
180,168,180,0,180,0,180,0,0,168,f,abs,resp,pract,0,23,23,20,,,,,,,0.8298956696477174,477.1338842456389,None,477.1338842456389,None,j,0,1.0856592673881096,,,,,,,,,,,,009,001,1,28,m,2021_Nov_08_1913,eye_tracking_exp,2021.2.3,85.07450919575236,
180,12,180,-168,180,180,0,180,180,180,None,abs,inhibit,pract,0,24,24,26,,,,,,,0.7254946526028392,479.5217672941435,None,479.5217672941435,None,None,1,,,,,,,,,,,,,009,001,1,28,m,2021_Nov_08_1913,eye_tracking_exp,2021.2.3,85.07450919575236,
180,270,180,12,180,180,180,180,12,180,j,present,resp,pract,0,25,25,35,,,,,,,0.7379827997144273,483.33342066793557,None,483.33342066793557,None,j,1,1.63723764410679,,,,,,,,,,,,009,001,1,28,m,2021_Nov_08_1913,eye_tracking_exp,2021.2.3,85.07450919575236,
12,0,0,-168,0,0,180,180,180,180,None,abs,inhibit,pract,0,26,26,27,,,,,,,0.8250643390599156,485.9810880341902,None,485.9810880341902,None,None,1,,,,,,,,,,,,,009,001,1,28,m,2021_Nov_08_1913,eye_tracking_exp,2021.2.3,85.07450919575236,
180,270,180,12,180,0,12,180,0,180,j,present,resp,pract,0,27,27,33,,,,,,,1.0941889734935566,490.07701432780595,None,490.07701432780595,None,j,1,0.7977572326635709,,,,,,,,,,,,009,001,1,28,m,2021_Nov_08_1913,eye_tracking_exp,2021.2.3,85.07450919575236,
168,0,180,0,0,180,180,0,168,0,f,abs,resp,pract,0,28,28,13,,,,,,,0.9815607825064803,492.1003740194865,None,492.1003740194865,None,f,1,0.8388927354171756,,,,,,,,,,,,009,001,1,28,m,2021_Nov_08_1913,eye_tracking_exp,2021.2.3,85.07450919575236,
0,180,180,180,168,0,0,0,0,12,None,abs,inhibit,pract,0,29,29,31,,,,,,,0.8152299631237357,494.1252375164113,None,494.1252375164113,None,None,1,,,,,,,,,,,,,009,001,1,28,m,2021_Nov_08_1913,eye_tracking_exp,2021.2.3,85.07450919575236,
0,180,0,0,180,0,180,168,0,168,f,abs,resp,pract,0,30,30,14,,,,,,,0.7016648683142944,497.99570380168734,None,497.99570380168734,None,f,1,1.1021727513798396,,,,,,,,,,,,009,001,1,28,m,2021_Nov_08_1913,eye_tracking_exp,2021.2.3,85.07450919575236,
180,180,0,168,180,180,180,180,168,180,f,abs,resp,pract,0,31,31,10,,,,,,,0.7382000092114807,504.996979711912,None,504.996979711912,None,f,1,1.6850463958180626,,,,,,,,,,,,009,001,1,28,m,2021_Nov_08_1913,eye_tracking_exp,2021.2.3,85.07450919575236,
0,0,168,0,0,0,0,0,180,168,f,abs,resp,pract,0,32,32,19,,,,,,,1.077524270035967,507.8085488702054,None,507.8085488702054,None,f,1,0.7620845695855678,,,,,,,,,,,,009,001,1,28,m,2021_Nov_08_1913,eye_tracking_exp,2021.2.3,85.07450919575236,
0,180,0,180,168,180,12,180,0,180,None,abs,inhibit,pract,0,33,33,28,,,,,,,0.7467455542398649,509.5264453298005,None,509.5264453298005,None,None,1,,,,,,,,,,,,,009,001,1,28,m,2021_Nov_08_1913,eye_tracking_exp,2021.2.3,85.07450919575236,
180,0,90,180,12,0,180,180,12,180,j,present,resp,pract,0,34,34,41,,,,,,,0.7790273609034648,513.4451082410815,None,513.4451082410815,None,j,1,0.8999821822508238,,,,,,,,,,,,009,001,1,28,m,2021_Nov_08_1913,eye_tracking_exp,2021.2.3,85.07450919575236,
180,168,0,180,0,180,180,180,168,180,f,abs,resp,pract,0,35,35,12,,,,,,,0.7133574601598738,515.5392880439031,None,515.5392880439031,None,f,1,0.741905748975114,,,,,,,,,,,,009,001,1,28,m,2021_Nov_08_1913,eye_tracking_exp,2021.2.3,85.07450919575236,
0,0,0,-168,0,0,0,12,0,0,None,abs,inhibit,pract,0,36,36,23,,,,,,,0.8629867224122396,517.3277945286536,None,517.3277945286536,None,None,1,,,,,,,,,,,,,009,001,1,28,m,2021_Nov_08_1913,eye_tracking_exp,2021.2.3,85.07450919575236,
0,270,0,0,12,0,0,12,0,0,j,present,resp,pract,0,37,37,40,,,,,,,0.9763910606803049,521.3193298135884,None,521.3193298135884,None,j,1,1.5378228966146708,,,,,,,,,,,,009,001,1,28,m,2021_Nov_08_1913,eye_tracking_exp,2021.2.3,85.07450919575236,
180,180,180,-168,180,180,12,180,0,180,None,abs,inhibit,pract,0,38,38,22,,,,,,,0.8371350065696879,524.2236133041224,None,524.2236133041224,None,None,1,,,,,,,,,,,,,009,001,1,28,m,2021_Nov_08_1913,eye_tracking_exp,2021.2.3,85.07450919575236,
0,180,0,12,0,180,180,180,0,12,j,abs,resp,pract,0,39,39,4,,,,,,,0.8896760422195881,528.3771261020083,None,528.3771261020083,None,j,1,0.8161485111995717,,,,,,,,,,,,009,001,1,28,m,2021_Nov_08_1913,eye_tracking_exp,2021.2.3,85.07450919575236,
168,0,270,180,180,180,180,168,180,180,f,present,resp,pract,0,40,40,49,,,,,,,0.8126540816770277,530.1421298192654,None,530.1421298192654,None,f,1,0.970184411147784,,,,,,,,,,,,009,001,1,28,m,2021_Nov_08_1913,eye_tracking_exp,2021.2.3,85.07450919575236,
180,180,168,0,270,0,0,168,0,180,f,present,resp,pract,0,41,41,47,,,,,,,0.758563622445428,532.5068883154454,None,532.5068883154454,None,f,1,0.685472906625364,,,,,,,,,,,,009,001,1,28,m,2021_Nov_08_1913,eye_tracking_exp,2021.2.3,85.07450919575236,
180,12,180,12,180,90,180,180,0,180,j,present,resp,pract,0,42,42,37,,,,,,,0.9882329139114512,534.5674498306544,None,534.5674498306544,None,j,1,1.120967902133998,,,,,,,,,,,,009,001,1,28,m,2021_Nov_08_1913,eye_tracking_exp,2021.2.3,85.07450919575236,
0,0,0,0,168,0,0,12,0,0,None,abs,inhibit,pract,0,43,43,29,,,,,,,1.035672836388972,537.0843486232334,None,537.0843486232334,None,None,1,,,,,,,,,,,,,009,001,1,28,m,2021_Nov_08_1913,eye_tracking_exp,2021.2.3,85.07450919575236,
180,0,180,0,168,180,0,180,12,180,None,abs,inhibit,pract,0,44,44,30,,,,,,,0.7460373755883702,541.0744290022558,None,541.0744290022558,None,None,1,,,,,,,,,,,,,009,001,1,28,m,2021_Nov_08_1913,eye_tracking_exp,2021.2.3,85.07450919575236,
180,12,180,12,0,180,0,180,180,180,j,abs,resp,pract,0,45,45,5,,,,,,,0.7752331672233078,545.084994577308,None,545.084994577308,None,None,0,,,,,,,,,,,,,009,001,1,28,m,2021_Nov_08_1913,eye_tracking_exp,2021.2.3,85.07450919575236,
0,180,0,-168,180,0,180,0,12,180,None,abs,inhibit,pract,0,46,46,24,,,,,,,1.0612973582572518,549.6633637485138,None,549.6633637485138,None,f,0,1.8482632954255678,,,,,,,,,,,,009,001,1,28,m,2021_Nov_08_1913,eye_tracking_exp,2021.2.3,85.07450919575236,
0,180,180,180,12,0,180,12,0,0,j,abs,resp,pract,0,47,47,8,,,,,,,0.8665926485380555,867.5949729076601,None,867.5949729076601,None,j,1,1.036263098627387,,,,,,,,,,,,009,001,1,28,m,2021_Nov_08_1913,eye_tracking_exp,2021.2.3,85.07450919575236,
90,0,0,12,0,180,180,180,0,12,j,present,resp,pract,0,48,48,36,,,,,,,1.0828796077033322,869.9585632532471,None,869.9585632532471,None,j,1,0.7206686503268429,,,,,,,,,,,,009,001,1,28,m,2021_Nov_08_1913,eye_tracking_exp,2021.2.3,85.07450919575236,
0,0,180,0,0,0,168,0,180,168,f,abs,resp,pract,0,49,49,15,,,,,,,0.8685842320400855,871.8056447934796,None,871.8056447934796,None,None,0,,,,,,,,,,,,,009,001,1,28,m,2021_Nov_08_1913,eye_tracking_exp,2021.2.3,85.07450919575236,
,,,,,,,,,,,,,,,,,,,,,,,,,,,,,,,,space,3.4432654823176563,,,,,,,,,,009,001,1,28,m,2021_Nov_08_1913,eye_tracking_exp,2021.2.3,85.07450919575236,
180,180,90,0,0,12,0,180,12,0,j,present,resp,freq_top,,,,,0,0,0,540,,,1.0273651564910993,,,,,,,,,,881.253726536248,None,881.253726536248,None,None,0,884.2202969034406,None,,009,001,1,28,m,2021_Nov_08_1913,eye_tracking_exp,2021.2.3,85.07450919575236,
-168,0,0,168,0,90,180,180,180,0,f,present,resp,freq_top,,,,,0,1,1,860,,,0.9744719428235344,,,,,,,,,,885.7370094559883,None,885.7370094559883,None,None,0,888.7152130335453,None,,009,001,1,28,m,2021_Nov_08_1913,eye_tracking_exp,2021.2.3,85.07450919575236,
0,0,0,-168,0,0,0,-168,0,0,f,abs,resp,freq_top,,,,,0,2,2,282,,,0.8202580315352086,,,,,,,,,,892.8926034937685,None,892.8926034937685,None,f,1,None,None,1.0979284708664636,009,001,1,28,m,2021_Nov_08_1913,eye_tracking_exp,2021.2.3,85.07450919575236,
0,180,-12,180,0,-12,180,0,180,0,j,abs,resp,freq_top,,,,,0,3,3,120,,,0.838197523538438,,,,,,,,,,894.9160087644559,None,894.9160087644559,None,j,1,None,None,1.2026481916909688,009,001,1,28,m,2021_Nov_08_1913,eye_tracking_exp,2021.2.3,85.07450919575236,
0,0,180,0,180,-168,0,168,0,0,f,abs,resp,freq_top,,,,,0,4,4,379,,,0.9139584611631899,,,,,,,,,,897.2918339028765,None,897.2918339028765,None,f,1,None,None,2.809857703272428,009,001,1,28,m,2021_Nov_08_1913,eye_tracking_exp,2021.2.3,85.07450919575236,
90,0,0,12,0,0,0,12,0,0,j,present,resp,freq_top,,,,,0,5,5,506,,,0.7454580168455757,,,,,,,,,,901.0691252363104,None,901.0691252363104,None,j,1,None,None,0.8405408238613745,009,001,1,28,m,2021_Nov_08_1913,eye_tracking_exp,2021.2.3,85.07450919575236,
0,270,180,180,180,180,168,0,-168,0,f,present,resp,freq_top,,,,,0,6,6,889,,,1.0774106374693277,,,,,,,,,,903.1888310917639,None,903.1888310917639,None,f,1,None,None,1.0728817523850012,009,001,1,28,m,2021_Nov_08_1913,eye_tracking_exp,2021.2.3,85.07450919575236,
168,180,0,90,180,180,0,168,0,0,f,present,resp,freq_top,,,,,0,7,7,782,,,1.0489463653503415,,,,,,,,,,905.6231084336614,None,905.6231084336614,None,j,0,906.7651585651256,None,1.1186726522209938,009,001,1,28,m,2021_Nov_08_1913,eye_tracking_exp,2021.2.3,85.07450919575236,
180,0,180,-12,180,180,-12,180,180,180,j,abs,resp,freq_top,,,,,0,8,8,71,,,1.030976253008824,,,,,,,,,,908.3295932390974,None,908.3295932390974,None,j,1,None,None,0.7961719285376603,009,001,1,28,m,2021_Nov_08_1913,eye_tracking_exp,2021.2.3,85.07450919575236,
180,180,-12,180,180,0,0,180,0,12,j,abs,resp,freq_top,,,,,0,9,9,194,,,0.7314046187884484,,,,,,,,,,909.9178228691308,None,909.9178228691308,None,j,1,None,None,2.3920198926862213,009,001,1,28,m,2021_Nov_08_1913,eye_tracking_exp,2021.2.3,85.07450919575236,
0,0,-12,0,0,-12,180,180,180,180,j,abs,resp,freq_top,,,,,0,10,10,88,,,1.0739397828488468,,,,,,,,,,913.8241290411024,None,913.8241290411024,None,j,1,None,None,2.0207454101982876,009,001,1,28,m,2021_Nov_08_1913,eye_tracking_exp,2021.2.3,85.07450919575236,
180,180,12,180,180,180,12,180,0,180,j,abs,resp,freq_top,,,,,0,11,11,25,,,0.8324713930105646,,,,,,,,,,917.0149948882099,None,917.0149948882099,None,f,0,917.8968785627512,None,0.8619264315857436,009,001,1,28,m,2021_Nov_08_1913,eye_tracking_exp,2021.2.3,85.07450919575236,
0,12,0,0,12,0,180,180,180,180,j,abs,resp,freq_top,,,,,0,12,12,12,,,0.9672369530412779,,,,,,,,,,919.5667299238848,None,919.5667299238848,None,j,1,None,None,0.8702272433365579,009,001,1,28,m,2021_Nov_08_1913,eye_tracking_exp,2021.2.3,85.07450919575236,
0,0,0,-168,180,180,180,180,0,12,None,abs,inhibit,freq_top,,,,,0,13,13,424,,,1.0440453192403,,,,,,,,,,921.7670710721577,None,921.7670710721577,None,None,1,None,None,,009,001,1,28,m,2021_Nov_08_1913,eye_tracking_exp,2021.2.3,85.07450919575236,
180,180,180,180,168,180,168,180,180,180,f,abs,resp,freq_top,,,,,0,14,14,217,,,0.8172389217811924,,,,,,,,,,925.5915454270289,None,925.5915454270289,None,j,0,926.8770233228715,None,1.2610345923676505,009,001,1,28,m,2021_Nov_08_1913,eye_tracking_exp,2021.2.3,85.07450919575236,
270,0,-168,0,180,180,180,0,180,-168,f,present,resp,freq_top,,,,,0,15,15,831,,,0.7089220514408117,,,,,,,,,,928.1337686379702,None,928.1337686379702,None,f,1,None,None,0.8792829761950998,009,001,1,28,m,2021_Nov_08_1913,eye_tracking_exp,2021.2.3,85.07450919575236,
180,180,12,180,168,0,180,0,180,180,None,abs,inhibit,freq_top,,,,,0,16,16,501,,,0.9401604845030358,,,,,,,,,,930.0641749340284,None,930.0641749340284,None,None,1,None,None,,009,001,1,28,m,2021_Nov_08_1913,eye_tracking_exp,2021.2.3,85.07450919575236,
0,180,168,0,180,168,180,0,180,180,f,abs,resp,freq_top,,,,,0,17,17,260,,,0.7019493011376194,,,,,,,,,,934.0292345534763,None,934.0292345534763,None,f,1,None,None,0.7430409981752746,009,001,1,28,m,2021_Nov_08_1913,eye_tracking_exp,2021.2.3,85.07450919575236,
0,0,12,0,0,0,0,0,-12,0,j,abs,resp,freq_top,,,,,0,18,18,179,,,0.9863152598950408,,,,,,,,,,936.0529576697882,None,936.0529576697882,None,j,1,None,None,1.3592277622155962,009,001,1,28,m,2021_Nov_08_1913,eye_tracking_exp,2021.2.3,85.07450919575236,
180,180,180,168,180,180,168,180,0,180,f,abs,resp,freq_top,,,,,0,19,19,211,,,0.9499899824104452,,,,,,,,,,938.536811081678,None,938.536811081678,None,f,1,None,None,0.7954230444011046,009,001,1,28,m,2021_Nov_08_1913,eye_tracking_exp,2021.2.3,85.07450919575236,
180,180,0,-168,180,0,180,0,0,168,f,abs,resp,freq_top,,,,,0,20,20,396,,,0.9766118971164388,,,,,,,,,,940.3832038054607,None,940.3832038054607,None,f,1,None,None,1.1730704373840126,009,001,1,28,m,2021_Nov_08_1913,eye_tracking_exp,2021.2.3,85.07450919575236,
270,0,168,0,0,0,168,0,0,0,f,present,resp,freq_top,,,,,0,21,21,765,,,0.7961527812661848,,,,,,,,,,942.6306301764998,None,942.6306301764998,None,f,1,None,None,0.9736303044992383,009,001,1,28,m,2021_Nov_08_1913,eye_tracking_exp,2021.2.3,85.07450919575236,
180,180,0,0,0,0,0,-168,0,-168,f,abs,resp,freq_top,,,,,0,22,22,308,,,0.8890988756950583,,,,,,,,,,944.7972627846902,None,944.7972627846902,None,f,1,None,None,0.7589145650417777,009,001,1,28,m,2021_Nov_08_1913,eye_tracking_exp,2021.2.3,85.07450919575236,
0,-168,0,0,180,180,180,180,0,12,None,abs,inhibit,freq_top,,,,,0,23,23,482,,,0.7938515816771117,,,,,,,,,,946.6079233814016,None,946.6079233814016,None,None,1,None,None,,009,001,1,28,m,2021_Nov_08_1913,eye_tracking_exp,2021.2.3,85.07450919575236,
180,270,180,0,180,180,-12,180,-12,180,j,present,resp,freq_top,,,,,0,24,24,595,,,1.0416833874722178,,,,,,,,,,950.6680375583092,None,950.6680375583092,None,j,1,None,None,1.0956377486654674,009,001,1,28,m,2021_Nov_08_1913,eye_tracking_exp,2021.2.3,85.07450919575236,
12,180,0,180,12,0,180,0,180,180,j,abs,resp,freq_top,,,,,0,25,25,13,,,0.9199106197586459,,,,,,,,,,953.0092271823523,None,953.0092271823523,None,j,1,None,None,0.9462273628741968,009,001,1,28,m,2021_Nov_08_1913,eye_tracking_exp,2021.2.3,85.07450919575236,
180,180,0,168,180,180,180,180,168,180,f,abs,resp,freq_top,,,,,0,26,26,248,,,0.7625947348257656,,,,,,,,,,954.9744229351127,None,954.9744229351127,None,f,1,None,None,0.8221121162132476,009,001,1,28,m,2021_Nov_08_1913,eye_tracking_exp,2021.2.3,85.07450919575236,
180,-168,180,180,180,180,12,0,0,180,None,abs,inhibit,freq_top,,,,,0,27,27,479,,,0.8025758215776367,,,,,,,,,,956.892485773169,None,956.892485773169,None,None,1,None,None,,009,001,1,28,m,2021_Nov_08_1913,eye_tracking_exp,2021.2.3,85.07450919575236,
-12,0,180,0,0,0,0,0,-12,0,j,abs,resp,freq_top,,,,,0,28,28,111,,,0.7260684123351635,,,,,,,,,,960.6385690728712,None,960.6385690728712,None,j,1,None,None,1.4760232021435513,009,001,1,28,m,2021_Nov_08_1913,eye_tracking_exp,2021.2.3,85.07450919575236,
-12,180,180,-12,0,270,0,180,180,180,j,present,resp,freq_top,,,,,0,29,29,638,,,0.7570069634236415,,,,,,,,,,962.9201244578508,None,962.9201244578508,None,j,1,None,None,0.970433435504674,009,001,1,28,m,2021_Nov_08_1913,eye_tracking_exp,2021.2.3,85.07450919575236,
-12,0,0,-168,0,0,0,0,0,0,None,abs,inhibit,freq_top,,,,,0,30,30,496,,,1.0553314237172555,,,,,,,,,,965.3206322864207,None,965.3206322864207,None,None,1,None,None,,009,001,1,28,m,2021_Nov_08_1913,eye_tracking_exp,2021.2.3,85.07450919575236,
0,-12,0,270,0,-12,180,180,0,0,j,present,resp,freq_top,,,,,0,31,31,632,,,0.9369373612653165,,,,,,,,,,969.2624372571881,None,969.2624372571881,None,j,1,None,None,0.9482186521490803,009,001,1,28,m,2021_Nov_08_1913,eye_tracking_exp,2021.2.3,85.07450919575236,
0,270,0,0,12,0,180,180,180,12,j,present,resp,freq_top,,,,,0,32,32,514,,,0.774288131993873,,,,,,,,,,971.0401179741602,None,971.0401179741602,None,j,1,None,None,0.7544656317913905,009,001,1,28,m,2021_Nov_08_1913,eye_tracking_exp,2021.2.3,85.07450919575236,
180,180,0,90,0,12,180,180,-12,180,j,present,resp,freq_top,,,,,0,33,33,680,,,0.9593130883890877,,,,,,,,,,973.0870912114333,None,973.0870912114333,None,j,1,None,None,0.8516053531639045,009,001,1,28,m,2021_Nov_08_1913,eye_tracking_exp,2021.2.3,85.07450919575236,
180,270,180,180,168,180,168,180,180,180,f,present,resp,freq_top,,,,,0,34,34,737,,,0.8888276622627522,,,,,,,,,,975.1113066413454,None,975.1113066413454,None,f,1,None,None,0.6985984520215425,009,001,1,28,m,2021_Nov_08_1913,eye_tracking_exp,2021.2.3,85.07450919575236,
168,0,0,0,90,168,0,0,0,0,f,present,resp,freq_top,,,,,0,35,35,734,,,1.022229090369005,,,,,,,,,,976.8878252446739,None,976.8878252446739,None,f,1,None,None,1.0982221686717821,009,001,1,28,m,2021_Nov_08_1913,eye_tracking_exp,2021.2.3,85.07450919575236,
0,270,180,180,-168,180,180,180,0,-168,f,present,resp,freq_top,,,,,0,36,36,794,,,0.8647107202440607,,,,,,,,,,979.088116588071,None,979.088116588071,None,f,1,None,None,0.8816551972704474,009,001,1,28,m,2021_Nov_08_1913,eye_tracking_exp,2021.2.3,85.07450919575236,
0,168,0,0,-168,0,0,0,0,0,f,abs,resp,freq_top,,,,,0,37,37,362,,,0.7905868621913117,,,,,,,,,,980.8669011620877,None,980.8669011620877,None,None,0,983.8542332177967,None,,009,001,1,28,m,2021_Nov_08_1913,eye_tracking_exp,2021.2.3,85.07450919575236,
12,0,180,0,90,0,0,0,-12,0,j,present,resp,freq_top,,,,,0,38,38,685,,,0.7909082660198286,,,,,,,,,,985.1836420279506,None,985.1836420279506,None,j,1,None,None,1.6822485694792704,009,001,1,28,m,2021_Nov_08_1913,eye_tracking_exp,2021.2.3,85.07450919575236,
90,180,0,12,180,0,0,180,12,180,j,present,resp,freq_top,,,,,0,39,39,542,,,0.8683686204966568,,,,,,,,,,988.0197079382051,None,988.0197079382051,None,j,1,None,None,0.6062698811365408,009,001,1,28,m,2021_Nov_08_1913,eye_tracking_exp,2021.2.3,85.07450919575236,
-12,180,270,0,0,-12,180,180,180,0,j,present,resp,freq_top,,,,,0,40,40,640,,,0.7849451449931081,,,,,,,,,,989.7030739264301,None,989.7030739264301,None,None,0,992.6800212138623,None,,009,001,1,28,m,2021_Nov_08_1913,eye_tracking_exp,2021.2.3,85.07450919575236,
0,-12,0,0,0,0,-12,0,0,0,j,abs,resp,freq_top,,,,,0,41,41,96,,,0.7208600512875305,,,,,,,,,,994.0329810871335,None,994.0329810871335,None,j,1,None,None,0.8320453203341458,009,001,1,28,m,2021_Nov_08_1913,eye_tracking_exp,2021.2.3,85.07450919575236,
-168,0,90,180,180,180,180,0,-168,180,f,present,resp,freq_top,,,,,0,42,42,853,,,1.0823503664373546,,,,,,,,,,1002.1633968008391,None,1002.1633968008391,None,f,1,None,None,0.909757821871608,009,001,1,28,m,2021_Nov_08_1913,eye_tracking_exp,2021.2.3,85.07450919575236,
0,0,0,0,-12,0,0,-12,0,0,j,abs,resp,freq_top,,,,,0,43,43,78,,,0.9761447667498031,,,,,,,,,,1004.3765758336522,None,1004.3765758336522,None,j,1,None,None,0.7768539775643148,009,001,1,28,m,2021_Nov_08_1913,eye_tracking_exp,2021.2.3,85.07450919575236,
180,180,-168,0,0,0,0,-168,180,180,f,abs,resp,freq_top,,,,,0,44,44,312,,,1.0360316934261096,,,,,,,,,,1006.3048565182107,None,1006.3048565182107,None,j,0,1007.2350916666255,None,0.9114379061720683,009,001,1,28,m,2021_Nov_08_1913,eye_tracking_exp,2021.2.3,85.07450919575236,
0,180,0,-168,0,180,0,180,0,-168,f,abs,resp,freq_top,,,,,0,45,45,326,,,0.9608824409242007,,,,,,,,,,1008.9065195782969,None,1008.9065195782969,None,f,1,None,None,0.7417475807815208,009,001,1,28,m,2021_Nov_08_1913,eye_tracking_exp,2021.2.3,85.07450919575236,
0,-168,0,180,180,180,0,-168,0,0,f,abs,resp,freq_top,,,,,0,46,46,340,,,0.9992019358871806,,,,,,,,,,1010.6936976313154,None,1010.6936976313154,None,f,1,None,None,0.6029625358860358,009,001,1,28,m,2021_Nov_08_1913,eye_tracking_exp,2021.2.3,85.07450919575236,
180,90,0,0,12,0,0,-168,180,180,None,present,inhibit,freq_top,,,,,0,47,47,954,,,0.8558727065735905,,,,,,,,,,1012.2949049013769,None,1012.2949049013769,None,None,1,None,None,,009,001,1,28,m,2021_Nov_08_1913,eye_tracking_exp,2021.2.3,85.07450919575236,
180,0,0,180,180,-168,180,0,12,180,None,abs,inhibit,freq_top,,,,,0,48,48,435,,,0.94299902449637,,,,,,,,,,1016.259804239693,None,1016.259804239693,None,None,1,None,None,,009,001,1,28,m,2021_Nov_08_1913,eye_tracking_exp,2021.2.3,85.07450919575236,
90,180,168,180,168,0,0,180,180,180,f,present,resp,freq_top,,,,,0,49,49,725,,,0.8677292107730616,,,,,,,,,,1020.5442760771548,None,1020.5442760771548,None,f,1,None,None,1.0081873384697246,009,001,1,28,m,2021_Nov_08_1913,eye_tracking_exp,2021.2.3,85.07450919575236,
180,0,180,180,12,0,12,180,0,180,j,abs,resp,freq_top,,,,,0,50,50,23,,,0.909529864300846,,,,,,,,,,1022.7918141318514,None,1022.7918141318514,None,j,1,None,None,0.9846480474079726,009,001,1,28,m,2021_Nov_08_1913,eye_tracking_exp,2021.2.3,85.07450919575236,
0,0,-168,0,-168,0,0,0,0,0,f,abs,resp,freq_top,,,,,0,51,51,329,,,0.8093878075302399,,,,,,,,,,1024.6276261881867,None,1024.6276261881867,None,f,1,None,None,0.7319441711733816,009,001,1,28,m,2021_Nov_08_1913,eye_tracking_exp,2021.2.3,85.07450919575236,
0,0,168,0,0,168,0,180,180,180,f,abs,resp,freq_top,,,,,0,52,52,228,,,1.0224578814658358,,,,,,,,,,1026.592763684348,None,1026.592763684348,None,f,1,None,None,1.3107024240671308,009,001,1,28,m,2021_Nov_08_1913,eye_tracking_exp,2021.2.3,85.07450919575236,
0,0,180,0,0,0,168,0,180,168,f,abs,resp,freq_top,,,,,0,53,53,253,,,0.7284870683810907,,,,,,,,,,1028.958118027891,None,1028.958118027891,None,f,1,None,None,0.6413874462887179,009,001,1,28,m,2021_Nov_08_1913,eye_tracking_exp,2021.2.3,85.07450919575236,
0,0,180,180,180,12,0,-168,0,0,None,abs,inhibit,freq_top,,,,,0,54,54,449,,,0.9928416623723929,,,,,,,,,,1030.736564230625,None,1030.736564230625,None,None,1,None,None,,009,001,1,28,m,2021_Nov_08_1913,eye_tracking_exp,2021.2.3,85.07450919575236,
270,180,12,180,180,12,180,0,0,180,j,present,resp,freq_top,,,,,0,55,55,554,,,0.8924645814499206,,,,,,,,,,1034.7361829969814,None,1034.7361829969814,None,j,1,None,None,1.2314601583857439,009,001,1,28,m,2021_Nov_08_1913,eye_tracking_exp,2021.2.3,85.07450919575236,
168,180,180,12,180,180,180,0,0,0,None,abs,inhibit,freq_top,,,,,0,56,56,484,,,0.9480481735396067,,,,,,,,,,1036.9602155675602,None,1036.9602155675602,None,None,1,None,None,,009,001,1,28,m,2021_Nov_08_1913,eye_tracking_exp,2021.2.3,85.07450919575236,
0,0,0,-12,0,-12,0,0,0,0,j,abs,resp,freq_top,,,,,0,57,57,70,,,0.7425837763607487,,,,,,,,,,1040.7255413563107,None,1040.7255413563107,None,j,1,None,None,0.8251647020078963,009,001,1,28,m,2021_Nov_08_1913,eye_tracking_exp,2021.2.3,85.07450919575236,
0,0,0,0,-12,0,0,12,0,0,j,abs,resp,freq_top,,,,,0,58,58,148,,,0.818809553024988,,,,,,,,,,1042.6325061599637,None,1042.6325061599637,None,j,1,None,None,1.270449222138268,009,001,1,28,m,2021_Nov_08_1913,eye_tracking_exp,2021.2.3,85.07450919575236,
0,12,0,0,0,180,180,180,0,12,j,abs,resp,freq_top,,,,,0,59,59,62,,,0.8820954644956298,,,,,,,,,,1045.1164259783473,None,1045.1164259783473,None,j,1,None,None,0.6744132068779436,009,001,1,28,m,2021_Nov_08_1913,eye_tracking_exp,2021.2.3,85.07450919575236,
0,12,0,270,180,168,0,0,0,0,None,present,inhibit,freq_top,,,,,0,60,60,1006,,,0.8905692336512374,,,,,,,,,,1046.7982033421213,None,1046.7982033421213,None,None,1,None,None,,009,001,1,28,m,2021_Nov_08_1913,eye_tracking_exp,2021.2.3,85.07450919575236,
90,0,0,180,180,180,-168,0,0,168,f,present,resp,freq_top,,,,,0,61,61,876,,,0.7297529513030884,,,,,,,,,,1050.6216028173294,None,1050.6216028173294,None,f,1,None,None,1.265177150206,009,001,1,28,m,2021_Nov_08_1913,eye_tracking_exp,2021.2.3,85.07450919575236,
0,-168,0,0,0,-168,180,0,0,0,f,abs,resp,freq_top,,,,,0,62,62,338,,,1.0900677720946101,,,,,,,,,,1053.2217324911035,None,1053.2217324911035,None,f,1,None,None,0.7136005845750333,009,001,1,28,m,2021_Nov_08_1913,eye_tracking_exp,2021.2.3,85.07450919575236,
0,0,-168,0,0,0,0,0,-168,0,f,abs,resp,freq_top,,,,,0,63,63,319,,,0.7836608441222253,,,,,,,,,,1054.8219566432017,None,1054.8219566432017,None,f,1,None,None,0.5839874839002732,009,001,1,28,m,2021_Nov_08_1913,eye_tracking_exp,2021.2.3,85.07450919575236,
-12,0,0,180,180,180,12,180,180,180,j,abs,resp,freq_top,,,,,0,64,64,207,,,0.7460932675850631,,,,,,,,,,1056.23388065365,None,1056.23388065365,None,j,1,None,None,0.9480502211372368,009,001,1,28,m,2021_Nov_08_1913,eye_tracking_exp,2021.2.3,85.07450919575236,
0,168,0,270,0,-168,180,180,0,0,f,present,resp,freq_top,,,,,0,65,65,912,,,1.0318734639461256,,,,,,,,,,1058.5286820212568,None,1058.5286820212568,None,f,1,None,None,0.9092510195841896,009,001,1,28,m,2021_Nov_08_1913,eye_tracking_exp,2021.2.3,85.07450919575236,
0,0,12,0,180,180,180,0,12,0,j,abs,resp,freq_top,,,,,0,66,66,39,,,0.9652438529685032,,,,,,,,,,1060.4595308260468,None,1060.4595308260468,None,j,1,1061.1659398677148,None,0.6906951736818883,009,001,1,28,m,2021_Nov_08_1913,eye_tracking_exp,2021.2.3,85.07450919575236,
0,12,0,0,-12,180,180,180,270,0,j,present,resp,freq_top,,,,,0,67,67,656,,,0.8203518129287376,,,,,,,,,,1062.5171607963857,None,1062.5171607963857,None,j,1,None,None,1.78489610584802,009,001,1,28,m,2021_Nov_08_1913,eye_tracking_exp,2021.2.3,85.07450919575236,
0,0,180,0,-12,0,0,0,180,12,j,abs,resp,freq_top,,,,,0,68,68,185,,,1.042413321043822,,,,,,,,,,1065.4238654073197,None,1065.4238654073197,None,j,1,None,None,1.0542058314749738,009,001,1,28,m,2021_Nov_08_1913,eye_tracking_exp,2021.2.3,85.07450919575236,
0,180,168,180,0,12,180,180,180,180,None,abs,inhibit,freq_top,,,,,0,69,69,470,,,0.9787400070938916,,,,,,,,,,1067.5181608178173,None,1067.5181608178173,None,None,1,None,None,,009,001,1,28,m,2021_Nov_08_1913,eye_tracking_exp,2021.2.3,85.07450919575236,
0,180,0,180,0,180,-168,180,-168,180,f,abs,resp,freq_top,,,,,0,70,70,301,,,0.8127873759511073,,,,,,,,,,1071.4969448485062,None,1071.4969448485062,None,f,1,None,None,1.5882127480144845,009,001,1,28,m,2021_Nov_08_1913,eye_tracking_exp,2021.2.3,85.07450919575236,
180,12,0,0,270,180,-12,0,180,180,j,present,resp,freq_top,,,,,0,71,71,703,,,0.8136968488605731,,,,,,,,,,1073.9559465355342,None,1073.9559465355342,None,j,1,None,None,1.2732093175145565,009,001,1,28,m,2021_Nov_08_1913,eye_tracking_exp,2021.2.3,85.07450919575236,
180,12,180,270,180,180,0,0,0,12,j,present,resp,freq_top,,,,,0,72,72,552,,,0.7759574102088802,,,,,,,,,,1076.0497737802434,None,1076.0497737802434,None,j,1,None,None,0.9394164713594364,009,001,1,28,m,2021_Nov_08_1913,eye_tracking_exp,2021.2.3,85.07450919575236,
0,90,0,168,0,168,0,0,0,0,f,present,resp,freq_top,,,,,0,73,73,714,,,0.8532544166830145,,,,,,,,,,1077.9795688347149,None,1077.9795688347149,None,f,1,1079.4286122642588,None,1.4256070899937185,009,001,1,28,m,2021_Nov_08_1913,eye_tracking_exp,2021.2.3,85.07450919575236,
0,0,270,0,168,0,0,-12,0,0,None,present,inhibit,freq_top,,,,,0,74,74,1002,,,0.7511096279026498,,,,,,,,,,1080.7213547287029,None,1080.7213547287029,None,None,1,None,None,,009,001,1,28,m,2021_Nov_08_1913,eye_tracking_exp,2021.2.3,85.07450919575236,
0,0,0,12,0,0,168,0,0,0,None,abs,inhibit,freq_top,,,,,0,75,75,444,,,0.9674966894985897,,,,,,,,,,1084.6988637547038,None,1084.6988637547038,None,None,1,None,None,,009,001,1,28,m,2021_Nov_08_1913,eye_tracking_exp,2021.2.3,85.07450919575236,
-12,0,0,-12,0,270,0,0,0,0,j,present,resp,freq_top,,,,,0,76,76,580,,,1.0526441876434653,,,,,,,,,,1088.769885198264,None,1088.769885198264,None,j,1,None,None,1.7704982723880676,009,001,1,28,m,2021_Nov_08_1913,eye_tracking_exp,2021.2.3,85.07450919575236,
0,0,0,0,168,0,0,168,0,0,f,abs,resp,freq_top,,,,,0,77,77,218,,,1.0418009053201933,,,,,,,,,,1091.7361292680944,None,1091.7361292680944,None,f,1,None,None,1.3322884586596047,009,001,1,28,m,2021_Nov_08_1913,eye_tracking_exp,2021.2.3,85.07450919575236,
180,180,90,0,180,-168,180,0,0,168,f,present,resp,freq_top,,,,,0,78,78,898,,,0.938960174696819,,,,,,,,,,1094.053304190944,None,1094.053304190944,None,f,1,None,None,1.2722515547575313,009,001,1,28,m,2021_Nov_08_1913,eye_tracking_exp,2021.2.3,85.07450919575236,
-12,180,180,270,0,12,180,180,180,0,j,present,resp,freq_top,,,,,0,79,79,710,,,0.7102681292396137,,,,,,,,,,1096.2186928847586,None,1096.2186928847586,None,j,1,1097.1961143749286,None,0.9628950910337153,009,001,1,28,m,2021_Nov_08_1913,eye_tracking_exp,2021.2.3,85.07450919575236,
-12,0,90,0,0,-12,0,0,0,0,j,present,resp,freq_top,,,,,0,80,80,594,,,0.9293364670492749,,,,,,,,,,1098.6659487722209,None,1098.6659487722209,None,j,1,None,None,0.642559822757903,009,001,1,28,m,2021_Nov_08_1913,eye_tracking_exp,2021.2.3,85.07450919575236,
180,12,180,270,180,0,180,0,0,-168,None,present,inhibit,freq_top,,,,,0,81,81,972,,,0.9784489490848411,,,,,,,,,,1100.3720070668642,None,1100.3720070668642,None,None,1,None,None,,009,001,1,28,m,2021_Nov_08_1913,eye_tracking_exp,2021.2.3,85.07450919575236,
180,0,-168,0,0,0,0,0,168,0,f,abs,resp,freq_top,,,,,0,82,82,403,,,0.9421217704024487,,,,,,,,,,1104.4795557043399,None,1104.4795557043399,None,f,1,None,None,0.971977990186133,009,001,1,28,m,2021_Nov_08_1913,eye_tracking_exp,2021.2.3,85.07450919575236,
270,0,168,0,180,180,180,180,12,0,None,present,inhibit,freq_top,,,,,0,83,83,977,,,1.0505672663995358,,,,,,,,,,1112.9504215152265,None,1112.9504215152265,None,None,1,None,None,,009,001,1,28,m,2021_Nov_08_1913,eye_tracking_exp,2021.2.3,85.07450919575236,
0,0,0,0,-168,0,0,0,0,168,f,abs,resp,freq_top,,,,,0,84,84,360,,,0.7578160076749274,,,,,,,,,,1116.7273382556668,None,1116.7273382556668,None,f,1,None,None,0.8995309199308394,009,001,1,28,m,2021_Nov_08_1913,eye_tracking_exp,2021.2.3,85.07450919575236,
0,0,12,0,0,12,0,180,180,180,j,abs,resp,freq_top,,,,,0,85,85,18,,,1.0607059358814872,,,,,,,,,,1118.7512132013726,None,1118.7512132013726,None,j,1,None,None,0.6995921346533578,009,001,1,28,m,2021_Nov_08_1913,eye_tracking_exp,2021.2.3,85.07450919575236,
-168,0,270,180,180,180,168,180,0,180,f,present,resp,freq_top,,,,,0,86,86,921,,,0.9459640424815138,,,,,,,,,,1120.4456503595502,None,1120.4456503595502,None,f,1,None,None,1.8211941973568173,009,001,1,28,m,2021_Nov_08_1913,eye_tracking_exp,2021.2.3,85.07450919575236,
180,90,0,180,180,180,180,-168,0,12,None,present,inhibit,freq_top,,,,,0,87,87,952,,,0.7562058752490473,,,,,,,,,,1123.1308588261381,None,1123.1308588261381,None,None,1,None,None,,009,001,1,28,m,2021_Nov_08_1913,eye_tracking_exp,2021.2.3,85.07450919575236,
0,90,0,168,0,0,180,180,180,168,f,present,resp,freq_top,,,,,0,88,88,718,,,0.903440061818235,,,,,,,,,,1127.047484567287,None,1127.047484567287,None,f,1,None,None,1.4274402110822848,009,001,1,28,m,2021_Nov_08_1913,eye_tracking_exp,2021.2.3,85.07450919575236,
0,270,0,0,0,0,-168,0,0,-168,f,present,resp,freq_top,,,,,0,89,89,806,,,0.7776861532771701,,,,,,,,,,1129.3088131378609,None,1129.3088131378609,None,f,1,None,None,0.6221826882028836,009,001,1,28,m,2021_Nov_08_1913,eye_tracking_exp,2021.2.3,85.07450919575236,
180,0,180,12,180,-168,180,180,180,180,None,abs,inhibit,freq_top,,,,,0,90,90,437,,,0.7177382990238196,,,,,,,,,,1130.7189809983902,None,1130.7189809983902,None,None,1,None,None,,009,001,1,28,m,2021_Nov_08_1913,eye_tracking_exp,2021.2.3,85.07450919575236,
180,270,0,168,180,180,180,180,168,180,f,present,resp,freq_top,,,,,0,91,91,752,,,0.7334415036187879,,,,,,,,,,1134.473125140932,None,1134.473125140932,None,f,1,1135.1450559308723,None,0.6569914631545544,009,001,1,28,m,2021_Nov_08_1913,eye_tracking_exp,2021.2.3,85.07450919575236,
168,0,168,0,0,0,0,0,180,180,f,abs,resp,freq_top,,,,,0,92,92,265,,,0.8289266717496835,,,,,,,,,,1136.5101760406033,None,1136.5101760406033,None,f,1,None,None,0.8117901322475518,009,001,1,28,m,2021_Nov_08_1913,eye_tracking_exp,2021.2.3,85.07450919575236,
180,180,0,270,180,180,180,-12,0,12,j,present,resp,freq_top,,,,,0,93,93,686,,,1.0399404653354407,,,,,,,,,,1138.4615353966292,None,1138.4615353966292,None,j,1,1139.568243388254,None,1.0845596362196375,009,001,1,28,m,2021_Nov_08_1913,eye_tracking_exp,2021.2.3,85.07450919575236,
168,0,-168,0,0,0,180,180,180,180,f,abs,resp,freq_top,,,,,0,94,94,405,,,0.7166754784364894,,,,,,,,,,1140.8153923612626,None,1140.8153923612626,None,f,1,None,None,1.2106667758562253,009,001,1,28,m,2021_Nov_08_1913,eye_tracking_exp,2021.2.3,85.07450919575236,
12,0,0,-168,0,0,90,180,180,180,None,present,inhibit,freq_top,,,,,0,95,95,930,,,0.9141148574837508,,,,,,,,,,1143.0047679862764,None,1143.0047679862764,None,None,1,None,None,,009,001,1,28,m,2021_Nov_08_1913,eye_tracking_exp,2021.2.3,85.07450919575236,
12,0,0,0,0,-168,0,0,0,0,None,abs,inhibit,freq_top,,,,,0,96,96,440,,,0.8054164217875392,,,,,,,,,,1146.805050455354,None,1146.805050455354,None,None,1,None,None,,009,001,1,28,m,2021_Nov_08_1913,eye_tracking_exp,2021.2.3,85.07450919575236,
270,180,180,-168,180,180,12,180,180,180,None,present,inhibit,freq_top,,,,,0,97,97,925,,,1.037385131236399,,,,,,,,,,1151.2284676188356,None,1151.2284676188356,None,None,1,None,None,,009,001,1,28,m,2021_Nov_08_1913,eye_tracking_exp,2021.2.3,85.07450919575236,
12,0,180,0,0,0,0,0,-12,0,j,abs,resp,freq_top,,,,,0,98,98,181,,,1.0100154920397524,,,,,,,,,,1155.51203904461,None,1155.51203904461,None,j,1,None,None,1.1052929510551621,009,001,1,28,m,2021_Nov_08_1913,eye_tracking_exp,2021.2.3,85.07450919575236,
180,270,180,168,180,180,0,0,180,180,f,present,resp,freq_top,,,,,0,99,99,719,,,0.8908817306898358,,,,,,,,,,1157.559041561115,None,1157.559041561115,None,None,0,1160.5369097858784,None,,009,001,1,28,m,2021_Nov_08_1913,eye_tracking_exp,2021.2.3,85.07450919575236,
-12,0,180,0,180,0,-12,180,0,180,j,abs,resp,freq_top,,,,,0,100,100,97,,,1.0045993773443254,,,,,,,,,,1162.3251950162594,None,1162.3251950162594,None,j,1,None,None,1.3473259073944064,009,001,1,28,m,2021_Nov_08_1913,eye_tracking_exp,2021.2.3,85.07450919575236,
180,0,180,168,180,168,180,0,180,180,f,abs,resp,freq_top,,,,,0,101,101,227,,,0.7759578531405924,,,,,,,,,,1164.5018151611512,None,1164.5018151611512,None,f,1,None,None,0.5789007464554743,009,001,1,28,m,2021_Nov_08_1913,eye_tracking_exp,2021.2.3,85.07450919575236,
180,270,0,12,180,0,0,180,0,-168,None,present,inhibit,freq_top,,,,,0,102,102,970,,,1.0489075226043831,,,,,,,,,,1166.2434712606337,None,1166.2434712606337,None,None,1,None,None,,009,001,1,28,m,2021_Nov_08_1913,eye_tracking_exp,2021.2.3,85.07450919575236,
180,12,0,180,0,0,180,180,-12,180,j,abs,resp,freq_top,,,,,0,103,103,180,,,0.973963834254,,,,,,,,,,1170.2215359882466,None,1170.2215359882466,None,j,1,None,None,1.1961014169137343,009,001,1,28,m,2021_Nov_08_1913,eye_tracking_exp,2021.2.3,85.07450919575236,
-168,180,90,0,0,180,180,168,0,0,f,present,resp,freq_top,,,,,0,104,104,922,,,0.8593601685423586,,,,,,,,,,1172.3279572245592,None,1172.3279572245592,None,f,1,1173.1762226114733,None,0.832656561928161,009,001,1,28,m,2021_Nov_08_1913,eye_tracking_exp,2021.2.3,85.07450919575236,
0,0,0,0,0,0,168,0,0,168,f,abs,resp,freq_top,,,,,0,105,105,232,,,0.897876995886628,,,,,,,,,,1174.6107752384705,None,1174.6107752384705,None,f,1,1175.2463382100905,None,0.613859539720579,009,001,1,28,m,2021_Nov_08_1913,eye_tracking_exp,2021.2.3,85.07450919575236,
180,0,180,180,-168,90,0,168,180,180,f,present,resp,freq_top,,,,,0,106,106,884,,,0.9744585434945849,,,,,,,,,,1176.7538803276548,None,1176.7538803276548,None,None,0,1179.7417179782642,None,,009,001,1,28,m,2021_Nov_08_1913,eye_tracking_exp,2021.2.3,85.07450919575236,
270,0,168,180,180,180,12,0,0,0,None,present,inhibit,freq_top,,,,,0,107,107,975,,,0.9564065148876983,,,,,,,,,,1181.2248729145722,None,1181.2248729145722,None,None,1,None,None,,009,001,1,28,m,2021_Nov_08_1913,eye_tracking_exp,2021.2.3,85.07450919575236,
168,0,0,180,180,0,168,180,0,180,f,abs,resp,freq_top,,,,,0,108,108,277,,,0.9083580389413093,,,,,,,,,,1185.2725111223335,None,1185.2725111223335,None,f,1,None,None,1.6150566676951712,009,001,1,28,m,2021_Nov_08_1913,eye_tracking_exp,2021.2.3,85.07450919575236,
0,-168,0,12,180,270,180,0,180,180,None,present,inhibit,freq_top,,,,,0,109,109,980,,,1.0704973098360988,,,,,,,,,,1188.296860270777,None,1188.296860270777,None,None,1,None,None,,009,001,1,28,m,2021_Nov_08_1913,eye_tracking_exp,2021.2.3,85.07450919575236,
0,12,0,0,-12,0,0,180,180,180,j,abs,resp,freq_top,,,,,0,110,110,152,,,0.8919627419676209,,,,,,,,,,1192.4641663011862,None,1192.4641663011862,None,j,1,None,None,1.0321353313192958,009,001,1,28,m,2021_Nov_08_1913,eye_tracking_exp,2021.2.3,85.07450919575236,
-12,0,0,180,-12,180,180,0,180,180,j,abs,resp,freq_top,,,,,0,111,111,135,,,0.7784295346274525,,,,,,,,,,1194.3347928675867,None,1194.3347928675867,None,None,0,1197.3241334178965,None,,009,001,1,28,m,2021_Nov_08_1913,eye_tracking_exp,2021.2.3,85.07450919575236,
0,270,0,0,0,12,180,180,180,-12,j,present,resp,freq_top,,,,,0,112,112,660,,,1.0894388439613274,,,,,,,,,,1198.9359295052855,None,1198.9359295052855,None,j,1,None,None,1.0880393365005148,009,001,1,28,m,2021_Nov_08_1913,eye_tracking_exp,2021.2.3,85.07450919575236,
0,0,180,90,180,-12,0,12,0,0,j,present,resp,freq_top,,,,,0,113,113,673,,,0.962626176112632,,,,,,,,,,1201.05403013467,None,1201.05403013467,None,j,1,None,None,1.8649790173731162,009,001,1,28,m,2021_Nov_08_1913,eye_tracking_exp,2021.2.3,85.07450919575236,
0,12,0,12,180,90,180,180,0,0,j,present,resp,freq_top,,,,,0,114,114,560,,,1.029686367204908,,,,,,,,,,1203.998059119287,None,1203.998059119287,None,j,1,None,None,1.7211265532823745,009,001,1,28,m,2021_Nov_08_1913,eye_tracking_exp,2021.2.3,85.07450919575236,
12,180,90,0,168,180,0,180,0,180,None,present,inhibit,freq_top,,,,,0,115,115,937,,,0.7043018575910479,,,,,,,,,,1206.479713570683,None,1206.479713570683,None,None,1,None,None,,009,001,1,28,m,2021_Nov_08_1913,eye_tracking_exp,2021.2.3,85.07450919575236,
180,-168,180,180,180,168,180,0,180,180,f,abs,resp,freq_top,,,,,0,116,116,369,,,0.8435684407734065,,,,,,,,,,1210.3400860688562,None,1210.3400860688562,None,f,1,None,None,2.034039688456687,009,001,1,28,m,2021_Nov_08_1913,eye_tracking_exp,2021.2.3,85.07450919575236,
168,180,270,180,180,0,180,12,0,0,None,present,inhibit,freq_top,,,,,0,117,117,992,,,1.0429049628724354,,,,,,,,,,1213.5881982378778,None,1213.5881982378778,None,None,1,None,None,,009,001,1,28,m,2021_Nov_08_1913,eye_tracking_exp,2021.2.3,85.07450919575236,
180,0,180,180,0,0,0,12,0,12,j,abs,resp,freq_top,,,,,0,118,118,28,,,0.8139958147674586,,,,,,,,,,1217.4251564099322,None,1217.4251564099322,None,j,1,None,None,0.8530493925572955,009,001,1,28,m,2021_Nov_08_1913,eye_tracking_exp,2021.2.3,85.07450919575236,
0,90,180,12,0,0,12,180,180,180,j,present,resp,freq_top,,,,,0,119,119,528,,,0.9141338326067512,,,,,,,,,,1219.470767710387,None,1219.470767710387,None,j,1,None,None,2.1354946245628526,009,001,1,28,m,2021_Nov_08_1913,eye_tracking_exp,2021.2.3,85.07450919575236,
90,180,168,180,0,0,180,180,0,12,None,present,inhibit,freq_top,,,,,0,120,120,978,,,1.0662799951651893,,,,,,,,,,1222.7423977392828,None,1222.7423977392828,None,None,1,None,None,,009,001,1,28,m,2021_Nov_08_1913,eye_tracking_exp,2021.2.3,85.07450919575236,
12,180,90,180,-12,180,0,180,180,180,j,present,resp,freq_top,,,,,0,121,121,657,,,0.8860161798128476,,,,,,,,,,1226.660945948439,None,1226.660945948439,None,j,1,None,None,1.088463734369725,009,001,1,28,m,2021_Nov_08_1913,eye_tracking_exp,2021.2.3,85.07450919575236,
0,0,-12,180,0,0,180,12,0,180,j,abs,resp,freq_top,,,,,0,122,122,192,,,0.785794859553152,,,,,,,,,,1228.8377553518367,None,1228.8377553518367,None,j,1,None,None,1.1676727968078922,009,001,1,28,m,2021_Nov_08_1913,eye_tracking_exp,2021.2.3,85.07450919575236,
-12,0,270,0,0,12,0,0,0,0,j,present,resp,freq_top,,,,,0,123,123,664,,,0.7804203164307241,,,,,,,,,,1231.0735470032741,None,1231.0735470032741,None,j,1,None,None,0.9799208105760044,009,001,1,28,m,2021_Nov_08_1913,eye_tracking_exp,2021.2.3,85.07450919575236,
180,270,0,180,180,180,180,168,0,168,f,present,resp,freq_top,,,,,0,124,124,756,,,0.9938107641558074,,,,,,,,,,1233.2169017205088,None,1233.2169017205088,None,f,1,None,None,1.076527468911081,009,001,1,28,m,2021_Nov_08_1913,eye_tracking_exp,2021.2.3,85.07450919575236,
270,180,180,180,180,0,-12,0,0,12,j,present,resp,freq_top,,,,,0,125,125,666,,,0.9920045641062731,,,,,,,,,,1267.8044793595036,None,1267.8044793595036,None,j,1,None,None,1.1275415413547307,009,001,1,28,m,2021_Nov_08_1913,eye_tracking_exp,2021.2.3,85.07450919575236,
12,0,0,180,12,180,0,180,180,180,j,abs,resp,freq_top,,,,,0,126,126,65,,,0.9934711543897984,,,,,,,,,,1269.9938350625744,None,1269.9938350625744,None,j,1,None,None,1.4018857847695472,009,001,1,28,m,2021_Nov_08_1913,eye_tracking_exp,2021.2.3,85.07450919575236,
0,270,0,0,0,12,0,-12,0,0,j,present,resp,freq_top,,,,,0,127,127,658,,,0.7994547912691954,,,,,,,,,,1272.3705772143076,None,1272.3705772143076,None,j,1,None,None,1.2010601709407638,009,001,1,28,m,2021_Nov_08_1913,eye_tracking_exp,2021.2.3,85.07450919575236,
180,0,0,180,0,168,180,180,-168,180,f,abs,resp,freq_top,,,,,0,128,128,386,,,1.0231787898023785,,,,,,,,,,1274.7119307416506,None,1274.7119307416506,None,f,1,None,None,1.3230860278199543,009,001,1,28,m,2021_Nov_08_1913,eye_tracking_exp,2021.2.3,85.07450919575236,
12,180,180,0,168,0,180,0,180,180,None,abs,inhibit,freq_top,,,,,0,129,129,433,,,0.7257315412888865,,,,,,,,,,1277.018164892761,None,1277.018164892761,None,None,1,None,None,,009,001,1,28,m,2021_Nov_08_1913,eye_tracking_exp,2021.2.3,85.07450919575236,
180,270,0,180,180,180,180,12,0,-168,None,present,inhibit,freq_top,,,,,0,130,130,966,,,1.0520040151299335,,,,,,,,,,1281.0787248987253,None,1281.0787248987253,None,None,1,None,None,,009,001,1,28,m,2021_Nov_08_1913,eye_tracking_exp,2021.2.3,85.07450919575236,
180,180,0,180,180,-168,180,180,0,168,f,abs,resp,freq_top,,,,,0,131,131,394,,,0.7490113448542333,,,,,,,,,,1285.137998127946,None,1285.137998127946,None,f,1,None,None,1.3291637312649982,009,001,1,28,m,2021_Nov_08_1913,eye_tracking_exp,2021.2.3,85.07450919575236,
0,270,0,0,12,0,0,12,0,0,j,present,resp,freq_top,,,,,0,132,132,512,,,1.07362392093214,,,,,,,,,,1287.832758263161,None,1287.832758263161,None,j,1,None,None,1.0815266705249087,009,001,1,28,m,2021_Nov_08_1913,eye_tracking_exp,2021.2.3,85.07450919575236,
0,0,180,0,180,168,0,168,0,0,f,abs,resp,freq_top,,,,,0,133,133,239,,,0.9197231092212244,,,,,,,,,,1290.15080401663,None,1290.15080401663,None,f,1,None,None,1.0194667833347921,009,001,1,28,m,2021_Nov_08_1913,eye_tracking_exp,2021.2.3,85.07450919575236,
-12,0,0,-168,0,0,270,0,0,0,None,present,inhibit,freq_top,,,,,0,134,134,1000,,,0.8184119336847205,,,,,,,,,,1292.0459098278297,None,1292.0459098278297,None,None,1,None,None,,009,001,1,28,m,2021_Nov_08_1913,eye_tracking_exp,2021.2.3,85.07450919575236,
180,0,180,0,-168,180,-168,180,180,180,f,abs,resp,freq_top,,,,,0,135,135,287,,,0.781684601926813,,,,,,,,,,1295.847566307646,None,1295.847566307646,None,f,1,None,None,1.5148076131590642,009,001,1,28,m,2021_Nov_08_1913,eye_tracking_exp,2021.2.3,85.07450919575236,
180,270,0,180,0,180,0,-168,0,-168,f,present,resp,freq_top,,,,,0,136,136,826,,,0.7629531354602646,,,,,,,,,,1298.4234268226137,None,1298.4234268226137,None,f,1,None,None,1.1629784613687661,009,001,1,28,m,2021_Nov_08_1913,eye_tracking_exp,2021.2.3,85.07450919575236,
180,180,-12,180,-12,180,0,180,0,180,j,abs,resp,freq_top,,,,,0,137,137,81,,,0.9438905037748998,,,,,,,,,,1300.588733413846,None,1300.588733413846,None,j,1,None,None,1.2217065536460723,009,001,1,28,m,2021_Nov_08_1913,eye_tracking_exp,2021.2.3,85.07450919575236,
90,180,168,180,180,12,0,180,0,180,None,present,inhibit,freq_top,,,,,0,138,138,974,,,0.8817077373901885,,,,,,,,,,1302.953769308071,None,1302.953769308071,None,None,1,None,None,,009,001,1,28,m,2021_Nov_08_1913,eye_tracking_exp,2021.2.3,85.07450919575236,
168,0,180,0,0,0,0,270,-168,0,f,present,resp,freq_top,,,,,0,139,139,895,,,1.0896970188304202,,,,,,,,,,1307.072136167124,None,1307.072136167124,None,f,1,None,None,1.6814465601491975,009,001,1,28,m,2021_Nov_08_1913,eye_tracking_exp,2021.2.3,85.07450919575236,
-168,180,0,180,270,180,0,-168,0,0,f,present,resp,freq_top,,,,,0,140,140,852,,,0.9597554489528952,,,,,,,,,,1309.7676406587707,None,1309.7676406587707,None,f,1,None,None,1.2099915425424115,009,001,1,28,m,2021_Nov_08_1913,eye_tracking_exp,2021.2.3,85.07450919575236,
-168,0,90,180,180,0,-168,180,180,180,f,present,resp,freq_top,,,,,0,141,141,811,,,0.7262695356009623,,,,,,,,,,1311.826133007984,None,1311.826133007984,None,f,1,None,None,1.3114564396237256,009,001,1,28,m,2021_Nov_08_1913,eye_tracking_exp,2021.2.3,85.07450919575236,
0,270,0,0,-12,180,180,180,0,-12,j,present,resp,freq_top,,,,,0,142,142,584,,,1.0694155902720341,,,,,,,,,,1314.532658864715,None,1314.532658864715,None,j,1,None,None,1.3730397092876956,009,001,1,28,m,2021_Nov_08_1913,eye_tracking_exp,2021.2.3,85.07450919575236,
0,0,0,180,0,0,-168,0,180,168,f,abs,resp,freq_top,,,,,0,143,143,393,,,0.7585042446341757,,,,,,,,,,1316.9938899988556,None,1316.9938899988556,None,f,1,None,None,1.2653178112304886,009,001,1,28,m,2021_Nov_08_1913,eye_tracking_exp,2021.2.3,85.07450919575236,
0,270,180,180,180,12,0,0,0,12,j,present,resp,freq_top,,,,,0,144,144,520,,,0.8099902759858033,,,,,,,,,,1319.110655555858,None,1319.110655555858,None,j,1,None,None,1.1783838624542113,009,001,1,28,m,2021_Nov_08_1913,eye_tracking_exp,2021.2.3,85.07450919575236,
0,90,0,-168,0,0,180,180,180,12,None,present,inhibit,freq_top,,,,,0,145,145,928,,,0.9842036931112834,,,,,,,,,,1321.429004968115,None,1321.429004968115,None,None,1,None,None,,009,001,1,28,m,2021_Nov_08_1913,eye_tracking_exp,2021.2.3,85.07450919575236,
0,-168,0,0,-168,0,0,270,0,0,f,present,resp,freq_top,,,,,0,146,146,796,,,0.860150234467844,,,,,,,,,,1325.3017287723342,None,1325.3017287723342,None,f,1,None,None,2.8593281265784753,009,001,1,28,m,2021_Nov_08_1913,eye_tracking_exp,2021.2.3,85.07450919575236,
180,0,-12,0,0,0,0,12,180,180,j,abs,resp,freq_top,,,,,0,147,147,172,,,1.045290531326271,,,,,,,,,,1329.26640987477,None,1329.26640987477,None,j,1,None,None,1.3275494497574982,009,001,1,28,m,2021_Nov_08_1913,eye_tracking_exp,2021.2.3,85.07450919575236,
-168,0,168,180,0,180,0,180,90,180,f,present,resp,freq_top,,,,,0,148,148,917,,,1.0214750865086506,,,,,,,,,,1331.8326432591857,None,1331.8326432591857,None,f,1,None,None,1.3202534890006064,009,001,1,28,m,2021_Nov_08_1913,eye_tracking_exp,2021.2.3,85.07450919575236,
180,270,180,0,0,180,168,0,12,180,None,present,inhibit,freq_top,,,,,0,149,149,945,,,0.9429213538865964,,,,,,,,,,1334.7385591420825,None,1334.7385591420825,None,None,1,None,None,,009,001,1,28,m,2021_Nov_08_1913,eye_tracking_exp,2021.2.3,85.07450919575236,
-12,0,180,0,-12,0,180,0,180,180,j,abs,resp,freq_top,,,,,0,150,150,83,,,1.053961813319646,,,,,,,,,,1339.1284201985618,None,1339.1284201985618,None,j,1,None,None,1.6561465914419387,009,001,1,28,m,2021_Nov_08_1913,eye_tracking_exp,2021.2.3,85.07450919575236,
180,168,0,90,180,0,180,180,-168,180,f,present,resp,freq_top,,,,,0,151,151,915,,,0.9662477514432888,,,,,,,,,,1341.966673599105,None,1341.966673599105,None,f,1,None,None,1.3773663942265557,009,001,1,28,m,2021_Nov_08_1913,eye_tracking_exp,2021.2.3,85.07450919575236,
0,0,-12,0,12,180,180,180,180,0,j,abs,resp,freq_top,,,,,0,152,152,189,,,0.942279874941768,,,,,,,,,,1344.5775230921063,None,1344.5775230921063,None,j,1,None,None,2.046546144221793,009,001,1,28,m,2021_Nov_08_1913,eye_tracking_exp,2021.2.3,85.07450919575236,
0,180,12,180,0,180,180,12,180,180,j,abs,resp,freq_top,,,,,0,153,153,52,,,0.7051622673299887,,,,,,,,,,1347.4139095646242,None,1347.4139095646242,None,j,1,None,None,1.4655834975783364,009,001,1,28,m,2021_Nov_08_1913,eye_tracking_exp,2021.2.3,85.07450919575236,
12,0,180,0,90,0,0,0,12,0,j,present,resp,freq_top,,,,,0,154,154,545,,,0.9161090576316256,,,,,,,,,,1350.1090086748081,None,1350.1090086748081,None,j,1,None,None,1.2341598842176609,009,001,1,28,m,2021_Nov_08_1913,eye_tracking_exp,2021.2.3,85.07450919575236,
180,90,0,168,180,0,180,0,0,168,f,present,resp,freq_top,,,,,0,155,155,760,,,0.8828485785038922,,,,,,,,,,1352.2846463054302,None,1352.2846463054302,None,f,1,None,None,1.5080299249020754,009,001,1,28,m,2021_Nov_08_1913,eye_tracking_exp,2021.2.3,85.07450919575236,
0,0,-12,0,0,0,0,0,180,12,j,abs,resp,freq_top,,,,,0,156,156,187,,,1.0105006703776844,,,,,,,,,,1355.10827156272,None,1355.10827156272,None,None,0,1358.0973742570422,None,,009,001,1,28,m,2021_Nov_08_1913,eye_tracking_exp,2021.2.3,85.07450919575236,
0,-12,0,90,0,0,0,-12,0,0,j,present,resp,freq_top,,,,,0,157,157,634,,,0.8916169037225485,,,,,,,,,,1359.5209924510928,None,1359.5209924510928,None,j,1,None,None,2.894308954717417,009,001,1,28,m,2021_Nov_08_1913,eye_tracking_exp,2021.2.3,85.07450919575236,
180,180,0,0,12,0,0,-168,0,180,None,abs,inhibit,freq_top,,,,,0,158,158,450,,,0.8689679645127455,,,,,,,,,,1363.463477182886,None,1363.463477182886,None,None,1,None,None,,009,001,1,28,m,2021_Nov_08_1913,eye_tracking_exp,2021.2.3,85.07450919575236,
180,0,168,0,0,0,12,0,0,0,None,abs,inhibit,freq_top,,,,,0,159,159,471,,,0.9783438862743288,,,,,,,,,,1367.511511112978,None,1367.511511112978,None,None,1,None,None,,009,001,1,28,m,2021_Nov_08_1913,eye_tracking_exp,2021.2.3,85.07450919575236,
-168,0,0,0,0,0,0,-168,180,180,f,abs,resp,freq_top,,,,,0,160,160,314,,,0.850165716454699,,,,,,,,,,1371.360374460186,None,1371.360374460186,None,f,1,None,None,1.9180710093860398,009,001,1,28,m,2021_Nov_08_1913,eye_tracking_exp,2021.2.3,85.07450919575236,
180,0,12,0,90,0,12,0,0,0,j,present,resp,freq_top,,,,,0,161,161,555,,,0.831131344535382,,,,,,,,,,1374.4435504050998,None,1374.4435504050998,None,None,0,1377.4339966235348,None,,009,001,1,28,m,2021_Nov_08_1913,eye_tracking_exp,2021.2.3,85.07450919575236,
180,168,180,0,180,0,180,180,-168,180,f,abs,resp,freq_top,,,,,0,162,162,411,,,0.7925567629047909,,,,,,,,,,1378.7522923069046,None,1378.7522923069046,None,None,0,1381.7529168297915,None,,009,001,1,28,m,2021_Nov_08_1913,eye_tracking_exp,2021.2.3,85.07450919575236,
0,0,0,180,180,180,-12,0,180,12,j,abs,resp,freq_top,,,,,0,163,163,183,,,0.8001461879658176,,,,,,,,,,1383.0597896906402,None,1383.0597896906402,None,j,1,None,None,1.6418350864332751,009,001,1,28,m,2021_Nov_08_1913,eye_tracking_exp,2021.2.3,85.07450919575236,
180,0,168,180,0,180,168,180,180,180,f,abs,resp,freq_top,,,,,0,164,164,235,,,0.8077250094974416,,,,,,,,,,1385.5662101421476,None,1385.5662101421476,None,f,1,None,None,1.8554653815590427,009,001,1,28,m,2021_Nov_08_1913,eye_tracking_exp,2021.2.3,85.07450919575236,
0,168,0,270,180,180,-168,0,0,0,f,present,resp,freq_top,,,,,0,165,165,880,,,0.970790541792927,,,,,,,,,,1388.450111668557,None,1388.450111668557,None,f,1,None,None,1.4675630147976335,009,001,1,28,m,2021_Nov_08_1913,eye_tracking_exp,2021.2.3,85.07450919575236,
180,12,180,180,0,180,0,180,0,-168,None,abs,inhibit,freq_top,,,,,0,166,166,468,,,1.0713829971251667,,,,,,,,,,1391.1217421200417,None,1391.1217421200417,None,None,1,None,None,,009,001,1,28,m,2021_Nov_08_1913,eye_tracking_exp,2021.2.3,85.07450919575236,
0,180,12,0,180,12,180,0,180,180,j,abs,resp,freq_top,,,,,0,167,167,50,,,0.9198399421561416,,,,,,,,,,1399.6743132738484,None,1399.6743132738484,None,j,1,None,None,1.458676618494792,009,001,1,28,m,2021_Nov_08_1913,eye_tracking_exp,2021.2.3,85.07450919575236,
180,-12,0,12,180,180,90,180,0,180,j,present,resp,freq_top,,,,,0,168,168,649,,,0.8179305516041228,,,,,,,,,,1402.2526911986351,None,1402.2526911986351,None,j,1,None,None,1.4561839601956308,009,001,1,28,m,2021_Nov_08_1913,eye_tracking_exp,2021.2.3,85.07450919575236,
180,90,180,-168,180,12,0,0,0,0,None,present,inhibit,freq_top,,,,,0,169,169,924,,,0.7468559462656752,,,,,,,,,,1404.794965119996,None,1404.794965119996,None,None,1,None,None,,009,001,1,28,m,2021_Nov_08_1913,eye_tracking_exp,2021.2.3,85.07450919575236,
180,-12,180,180,-12,0,90,0,180,0,j,present,resp,freq_top,,,,,0,170,170,631,,,0.7355618630322729,,,,,,,,,,1408.547297572637,None,1408.547297572637,None,j,1,None,None,1.465664090916107,009,001,1,28,m,2021_Nov_08_1913,eye_tracking_exp,2021.2.3,85.07450919575236,
-12,180,0,180,0,180,180,-12,0,0,j,abs,resp,freq_top,,,,,0,171,171,138,,,1.0541059753228617,,,,,,,,,,1411.394869615382,None,1411.394869615382,None,j,1,None,None,1.3372146131296176,009,001,1,28,m,2021_Nov_08_1913,eye_tracking_exp,2021.2.3,85.07450919575236,
0,168,180,180,-168,0,0,270,0,0,f,present,resp,freq_top,,,,,0,172,172,866,,,0.7679963702350884,,,,,,,,,,1413.712866167676,None,1413.712866167676,None,f,1,None,None,2.1566034379429766,009,001,1,28,m,2021_Nov_08_1913,eye_tracking_exp,2021.2.3,85.07450919575236,
0,-168,180,180,180,180,180,0,0,-168,f,abs,resp,freq_top,,,,,0,173,173,328,,,1.090783627386663,,,,,,,,,,1417.056533357645,None,1417.056533357645,None,f,1,None,None,1.3080974784170394,009,001,1,28,m,2021_Nov_08_1913,eye_tracking_exp,2021.2.3,85.07450919575236,
0,168,0,-168,180,180,180,90,0,0,f,present,resp,freq_top,,,,,0,174,174,910,,,1.0192471440282662,,,,,,,,,,1419.72842641663,None,1419.72842641663,None,f,1,None,None,1.3877599160914542,009,001,1,28,m,2021_Nov_08_1913,eye_tracking_exp,2021.2.3,85.07450919575236,
90,180,180,-12,0,0,180,180,-12,0,j,present,resp,freq_top,,,,,0,175,175,577,,,0.9856026962534694,,,,,,,,,,1422.4682068344991,None,1422.4682068344991,None,j,1,None,None,1.4800640373068745,009,001,1,28,m,2021_Nov_08_1913,eye_tracking_exp,2021.2.3,85.07450919575236,
0,0,12,0,180,180,180,180,168,0,None,abs,inhibit,freq_top,,,,,0,176,176,459,,,0.7404424085952253,,,,,,,,,,1425.1396444053025,None,1425.1396444053025,None,None,1,None,None,,009,001,1,28,m,2021_Nov_08_1913,eye_tracking_exp,2021.2.3,85.07450919575236,
-168,0,0,180,180,180,-168,180,0,0,f,abs,resp,freq_top,,,,,0,177,177,347,,,0.733679256334355,,,,,,,,,,1428.9171292231185,None,1428.9171292231185,None,f,1,None,None,1.399584497899923,009,001,1,28,m,2021_Nov_08_1913,eye_tracking_exp,2021.2.3,85.07450919575236,
180,168,180,180,-168,0,0,0,180,180,f,abs,resp,freq_top,,,,,0,178,178,407,,,0.9461300852127156,,,,,,,,,,1431.5196613027365,None,1431.5196613027365,None,f,1,None,None,1.1636718055378878,009,001,1,28,m,2021_Nov_08_1913,eye_tracking_exp,2021.2.3,85.07450919575236,
0,270,0,-168,180,180,180,-12,0,0,None,present,inhibit,freq_top,,,,,0,179,179,996,,,0.8753114743815644,,,,,,,,,,1433.9888618198602,None,1433.9888618198602,None,None,1,None,None,,009,001,1,28,m,2021_Nov_08_1913,eye_tracking_exp,2021.2.3,85.07450919575236,
180,0,0,-12,0,180,0,180,0,-12,j,abs,resp,freq_top,,,,,0,180,180,116,,,1.063509523149565,,,,,,,,,,1438.0614489474465,None,1438.0614489474465,None,j,1,None,None,1.6619973054184811,009,001,1,28,m,2021_Nov_08_1913,eye_tracking_exp,2021.2.3,85.07450919575236,
-12,0,0,12,0,0,0,0,0,0,j,abs,resp,freq_top,,,,,0,181,181,146,,,0.7105417907549145,,,,,,,,,,1440.4860276208783,None,1440.4860276208783,None,j,1,None,None,1.766099144006148,009,001,1,28,m,2021_Nov_08_1913,eye_tracking_exp,2021.2.3,85.07450919575236,
180,-12,180,0,180,12,180,0,180,0,j,abs,resp,freq_top,,,,,0,182,182,159,,,0.7284617826582063,,,,,,,,,,1443.2980800373334,None,1443.2980800373334,None,j,1,None,None,1.560485923801025,009,001,1,28,m,2021_Nov_08_1913,eye_tracking_exp,2021.2.3,85.07450919575236,
-12,180,270,0,-12,180,0,180,0,180,j,present,resp,freq_top,,,,,0,183,183,587,,,1.047957126672718,,,,,,,,,,1446.1693368617343,None,1446.1693368617343,None,j,1,None,None,2.657262522392557,009,001,1,28,m,2021_Nov_08_1913,eye_tracking_exp,2021.2.3,85.07450919575236,
0,0,180,180,180,-12,0,-12,0,0,j,abs,resp,freq_top,,,,,0,184,184,84,,,0.9525063734639285,,,,,,,,,,1450.1600414618006,None,1450.1600414618006,None,j,1,None,None,1.9145867813786026,009,001,1,28,m,2021_Nov_08_1913,eye_tracking_exp,2021.2.3,85.07450919575236,
0,180,-12,180,90,180,180,-12,180,0,j,present,resp,freq_top,,,,,0,185,185,626,,,0.8297437503004335,,,,,,,,,,1453.07827514565,None,1453.07827514565,None,j,1,None,None,1.7963587722697412,009,001,1,28,m,2021_Nov_08_1913,eye_tracking_exp,2021.2.3,85.07450919575236,
0,0,180,180,12,0,0,0,-12,0,j,abs,resp,freq_top,,,,,0,186,186,177,,,0.8543573643932246,,,,,,,,,,1456.0555266955635,None,1456.0555266955635,None,j,1,None,None,1.6031883179675788,009,001,1,28,m,2021_Nov_08_1913,eye_tracking_exp,2021.2.3,85.07450919575236,
180,180,90,180,-12,0,12,0,0,180,j,present,resp,freq_top,,,,,0,187,187,651,,,0.8908894851410556,,,,,,,,,,1458.8689501042754,None,1458.8689501042754,None,j,1,None,None,2.644816134321445,009,001,1,28,m,2021_Nov_08_1913,eye_tracking_exp,2021.2.3,85.07450919575236,
180,-12,180,-168,0,180,0,90,180,180,None,present,inhibit,freq_top,,,,,0,188,188,999,,,1.0280064021388757,,,,,,,,,,1462.6690113189907,None,1462.6690113189907,None,None,1,None,None,,009,001,1,28,m,2021_Nov_08_1913,eye_tracking_exp,2021.2.3,85.07450919575236,
180,180,0,-12,0,180,0,180,0,12,j,abs,resp,freq_top,,,,,0,189,189,186,,,0.9915599761159386,,,,,,,,,,1466.8108435164177,None,1466.8108435164177,None,j,1,None,None,1.7430470351318945,009,001,1,28,m,2021_Nov_08_1913,eye_tracking_exp,2021.2.3,85.07450919575236,
0,180,168,0,180,180,180,180,0,12,None,abs,inhibit,freq_top,,,,,0,190,190,474,,,1.0265231993961859,,,,,,,,,,1469.670477091422,None,1469.670477091422,None,None,1,None,None,,009,001,1,28,m,2021_Nov_08_1913,eye_tracking_exp,2021.2.3,85.07450919575236,
270,180,0,12,0,180,0,180,168,180,None,present,inhibit,freq_top,,,,,0,191,191,962,,,1.0629718873843255,,,,,,,,,,1473.7543518137609,None,1473.7543518137609,None,None,1,None,None,,009,001,1,28,m,2021_Nov_08_1913,eye_tracking_exp,2021.2.3,85.07450919575236,
0,0,90,0,0,0,12,0,180,12,j,present,resp,freq_top,,,,,0,192,192,547,,,0.9348638434252641,,,,,,,,,,1477.6963532873851,None,1477.6963532873851,None,j,1,None,None,1.6086822479628609,009,001,1,28,m,2021_Nov_08_1913,eye_tracking_exp,2021.2.3,85.07450919575236,
0,0,180,180,168,0,0,0,-168,0,f,abs,resp,freq_top,,,,,0,193,193,387,,,0.8513098414529046,,,,,,,,,,1480.4735945141001,None,1480.4735945141001,None,f,1,None,None,1.4393936818596558,009,001,1,28,m,2021_Nov_08_1913,eye_tracking_exp,2021.2.3,85.07450919575236,
0,180,-12,180,180,12,180,0,180,0,j,abs,resp,freq_top,,,,,0,194,194,190,,,0.7195551100061264,,,,,,,,,,1482.7565199857927,None,1482.7565199857927,None,None,0,1485.7352137640191,None,,009,001,1,28,m,2021_Nov_08_1913,eye_tracking_exp,2021.2.3,85.07450919575236,
180,0,12,180,180,0,-12,180,0,180,j,abs,resp,freq_top,,,,,0,195,195,165,,,0.8140455343948014,,,,,,,,,,1487.1001485392553,None,1487.1001485392553,None,j,1,None,None,1.9969767148795654,009,001,1,28,m,2021_Nov_08_1913,eye_tracking_exp,2021.2.3,85.07450919575236,
270,0,-12,180,180,12,0,0,0,0,j,present,resp,freq_top,,,,,0,196,196,662,,,0.7077118423910135,,,,,,,,,,1489.8537406023534,None,1489.8537406023534,None,j,1,None,None,0.986444343070616,009,001,1,28,m,2021_Nov_08_1913,eye_tracking_exp,2021.2.3,85.07450919575236,
-168,0,180,0,180,180,180,0,-168,0,f,abs,resp,freq_top,,,,,0,197,197,321,,,1.045146981219728,,,,,,,,,,1491.9250309922136,None,1491.9250309922136,None,f,1,None,None,0.9951665342159686,009,001,1,28,m,2021_Nov_08_1913,eye_tracking_exp,2021.2.3,85.07450919575236,
180,-168,180,90,180,180,-168,0,180,180,f,present,resp,freq_top,,,,,0,198,198,843,,,0.9245473552481184,,,,,,,,,,1493.903339914621,None,1493.903339914621,None,f,1,None,None,1.0649060306022875,009,001,1,28,m,2021_Nov_08_1913,eye_tracking_exp,2021.2.3,85.07450919575236,
180,-168,180,270,180,168,180,0,180,180,f,present,resp,freq_top,,,,,0,199,199,873,,,0.9276231564631239,,,,,,,,,,1496.102137111906,None,1496.102137111906,None,f,1,None,None,1.2024870050227037,009,001,1,28,m,2021_Nov_08_1913,eye_tracking_exp,2021.2.3,85.07450919575236,
0,0,0,12,0,0,0,-12,0,0,j,abs,resp,freq_top,,,,,0,200,200,142,,,0.8577216965446112,,,,,,,,,,1498.4795179733774,None,1498.4795179733774,None,j,1,None,None,1.1607577678441885,009,001,1,28,m,2021_Nov_08_1913,eye_tracking_exp,2021.2.3,85.07450919575236,
180,180,-168,180,90,0,0,180,0,-168,f,present,resp,freq_top,,,,,0,201,201,838,,,0.78300330129589,,,,,,,,,,1500.7978921371396,None,1500.7978921371396,None,f,1,None,None,1.3564257100078976,009,001,1,28,m,2021_Nov_08_1913,eye_tracking_exp,2021.2.3,85.07450919575236,
180,180,0,180,12,180,168,180,0,180,None,abs,inhibit,freq_top,,,,,0,202,202,443,,,0.8545407874814875,,,,,,,,,,1503.0576984897707,None,1503.0576984897707,None,None,1,None,None,,009,001,1,28,m,2021_Nov_08_1913,eye_tracking_exp,2021.2.3,85.07450919575236,
0,90,0,-168,0,0,180,180,180,-168,f,present,resp,freq_top,,,,,0,203,203,788,,,0.7897587809471973,,,,,,,,,,1506.8707626997202,None,1506.8707626997202,None,f,1,None,None,1.1846698408189695,009,001,1,28,m,2021_Nov_08_1913,eye_tracking_exp,2021.2.3,85.07450919575236,
180,168,180,180,-168,0,0,0,180,90,f,present,resp,freq_top,,,,,0,204,204,911,,,0.7527591563179997,,,,,,,,,,1508.8711161633764,None,1508.8711161633764,None,f,1,None,None,1.1683102991519263,009,001,1,28,m,2021_Nov_08_1913,eye_tracking_exp,2021.2.3,85.07450919575236,
90,0,-12,0,0,-12,180,180,180,180,j,present,resp,freq_top,,,,,0,205,205,592,,,0.7770189094298666,,,,,,,,,,1510.8841155364353,None,1510.8841155364353,None,j,1,None,None,1.0283405020309146,009,001,1,28,m,2021_Nov_08_1913,eye_tracking_exp,2021.2.3,85.07450919575236,
0,0,0,0,0,-12,0,0,0,-12,j,abs,resp,freq_top,,,,,0,206,206,86,,,0.7521839066521264,,,,,,,,,,1513.01317082256,None,1513.01317082256,None,j,1,None,None,1.0903095330577344,009,001,1,28,m,2021_Nov_08_1913,eye_tracking_exp,2021.2.3,85.07450919575236,
0,270,180,180,180,168,0,0,0,168,f,present,resp,freq_top,,,,,0,207,207,730,,,0.7342482681350738,,,,,,,,,,1515.120248879466,None,1515.120248879466,None,f,1,None,None,1.0313263794814702,009,001,1,28,m,2021_Nov_08_1913,eye_tracking_exp,2021.2.3,85.07450919575236,
0,168,0,168,0,180,0,180,90,0,f,present,resp,freq_top,,,,,0,208,208,770,,,0.9477497398798379,,,,,,,,,,1517.5564058269956,None,1517.5564058269956,None,f,1,None,None,1.2031924230905133,009,001,1,28,m,2021_Nov_08_1913,eye_tracking_exp,2021.2.3,85.07450919575236,
0,0,180,0,0,0,12,0,180,-168,None,abs,inhibit,freq_top,,,,,0,209,209,463,,,0.9814540904651516,,,,,,,,,,1525.6985308166913,None,1525.6985308166913,None,None,1,None,None,,009,001,1,28,m,2021_Nov_08_1913,eye_tracking_exp,2021.2.3,85.07450919575236,
180,90,180,0,12,0,-12,0,180,180,j,present,resp,freq_top,,,,,0,210,210,667,,,0.8975671696069587,,,,,,,,,,1529.6281441588435,None,1529.6281441588435,None,j,1,None,None,1.4345940015773522,009,001,1,28,m,2021_Nov_08_1913,eye_tracking_exp,2021.2.3,85.07450919575236,
-168,0,0,-168,0,0,0,0,0,0,f,abs,resp,freq_top,,,,,0,211,211,286,,,0.8025804441913831,,,,,,,,,,1532.0989604667047,None,1532.0989604667047,None,f,1,None,None,1.1718410117027815,009,001,1,28,m,2021_Nov_08_1913,eye_tracking_exp,2021.2.3,85.07450919575236,
-168,0,90,0,180,180,180,-168,180,180,f,present,resp,freq_top,,,,,0,212,212,818,,,0.9483578121703587,,,,,,,,,,1534.6523188393112,None,1534.6523188393112,None,f,1,None,None,1.0024872464928194,009,001,1,28,m,2021_Nov_08_1913,eye_tracking_exp,2021.2.3,85.07450919575236,
0,0,0,-12,0,0,0,-12,0,0,j,abs,resp,freq_top,,,,,0,213,213,72,,,1.0050628677012432,,,,,,,,,,1537.0055983693019,None,1537.0055983693019,None,j,1,None,None,0.8733048824869911,009,001,1,28,m,2021_Nov_08_1913,eye_tracking_exp,2021.2.3,85.07450919575236,
0,90,168,0,0,168,0,0,180,180,f,present,resp,freq_top,,,,,0,214,214,732,,,0.7883194093773982,,,,,,,,,,1538.7840448738934,None,1538.7840448738934,None,f,1,None,None,1.2217898636081372,009,001,1,28,m,2021_Nov_08_1913,eye_tracking_exp,2021.2.3,85.07450919575236,
180,180,168,180,0,0,180,0,0,168,f,abs,resp,freq_top,,,,,0,215,215,264,,,0.7579135643053085,,,,,,,,,,1540.8301880299914,None,1540.8301880299914,None,f,1,None,None,1.1596693050305475,009,001,1,28,m,2021_Nov_08_1913,eye_tracking_exp,2021.2.3,85.07450919575236,
168,0,270,180,180,180,180,168,180,180,f,present,resp,freq_top,,,,,0,216,216,748,,,0.8135240033712307,,,,,,,,,,1543.0073922501833,None,1543.0073922501833,None,f,1,None,None,1.014492031390546,009,001,1,28,m,2021_Nov_08_1913,eye_tracking_exp,2021.2.3,85.07450919575236,
180,180,0,0,180,180,180,-12,0,12,j,abs,resp,freq_top,,,,,0,217,217,182,,,0.9775019720086179,,,,,,,,,,1545.5019515963068,None,1545.5019515963068,None,j,1,None,None,1.0169964617525693,009,001,1,28,m,2021_Nov_08_1913,eye_tracking_exp,2021.2.3,85.07450919575236,
180,-168,180,0,90,-168,180,180,0,0,f,present,resp,freq_top,,,,,0,218,218,803,,,0.7336352192586485,,,,,,,,,,1547.5141788429537,None,1547.5141788429537,None,f,1,None,None,1.0997775898795226,009,001,1,28,m,2021_Nov_08_1913,eye_tracking_exp,2021.2.3,85.07450919575236,
0,90,0,0,-168,0,180,180,180,168,f,present,resp,freq_top,,,,,0,219,219,864,,,1.0901732578202552,,,,,,,,,,1549.7522627258295,None,1549.7522627258295,None,f,1,None,None,1.165583708876511,009,001,1,28,m,2021_Nov_08_1913,eye_tracking_exp,2021.2.3,85.07450919575236,
180,180,270,0,180,-12,0,180,0,-12,j,present,resp,freq_top,,,,,0,220,220,618,,,0.9864641282693729,,,,,,,,,,1552.1866251887695,None,1552.1866251887695,None,j,1,None,None,1.1634215737940394,009,001,1,28,m,2021_Nov_08_1913,eye_tracking_exp,2021.2.3,85.07450919575236,
0,0,270,0,-168,180,180,0,180,-168,f,present,resp,freq_top,,,,,0,221,221,829,,,0.8902520078271062,,,,,,,,,,1554.6461273392852,None,1554.6461273392852,None,f,1,None,None,1.550893807579996,009,001,1,28,m,2021_Nov_08_1913,eye_tracking_exp,2021.2.3,85.07450919575236,
270,180,180,180,12,0,168,180,180,180,None,present,inhibit,freq_top,,,,,0,222,222,947,,,0.9171379997777882,,,,,,,,,,1557.1760662543675,None,1557.1760662543675,None,None,1,None,None,,009,001,1,28,m,2021_Nov_08_1913,eye_tracking_exp,2021.2.3,85.07450919575236,
180,270,180,12,180,180,180,180,12,180,j,present,resp,freq_top,,,,,0,223,223,507,,,0.8742790005921646,,,,,,,,,,1561.0714476525172,None,1561.0714476525172,None,j,1,None,None,1.077691695485555,009,001,1,28,m,2021_Nov_08_1913,eye_tracking_exp,2021.2.3,85.07450919575236,
90,180,0,0,168,180,180,180,168,180,f,present,resp,freq_top,,,,,0,224,224,723,,,0.7776867982084428,,,,,,,,,,1563.1896916595579,None,1563.1896916595579,None,f,1,None,None,0.7526134942963836,009,001,1,28,m,2021_Nov_08_1913,eye_tracking_exp,2021.2.3,85.07450919575236,
168,0,0,168,0,180,180,180,180,90,f,present,resp,freq_top,,,,,0,225,225,720,,,1.083568409187376,,,,,,,,,,1565.379932681928,None,1565.379932681928,None,f,1,None,None,1.0733254685037537,009,001,1,28,m,2021_Nov_08_1913,eye_tracking_exp,2021.2.3,85.07450919575236,
180,180,180,168,180,180,180,180,-168,180,f,abs,resp,freq_top,,,,,0,226,226,353,,,0.8401535475552155,,,,,,,,,,1567.579926101651,None,1567.579926101651,None,f,1,None,None,1.2570511082594749,009,001,1,28,m,2021_Nov_08_1913,eye_tracking_exp,2021.2.3,85.07450919575236,
-168,0,-168,180,180,0,180,0,180,180,f,abs,resp,freq_top,,,,,0,227,227,343,,,0.7631348288282924,,,,,,,,,,1569.6519273428494,None,1569.6519273428494,None,f,1,None,None,1.2323801901729894,009,001,1,28,m,2021_Nov_08_1913,eye_tracking_exp,2021.2.3,85.07450919575236,
0,-12,0,0,0,-12,180,0,0,0,j,abs,resp,freq_top,,,,,0,228,228,128,,,1.0499225701361312,,,,,,,,,,1572.2858687886182,None,1572.2858687886182,None,j,1,None,None,1.0465286370672402,009,001,1,28,m,2021_Nov_08_1913,eye_tracking_exp,2021.2.3,85.07450919575236,
180,180,-12,180,0,180,-12,180,0,0,j,abs,resp,freq_top,,,,,0,229,229,95,,,0.9073748850821007,,,,,,,,,,1574.5336993337332,None,1574.5336993337332,None,j,1,None,None,0.990654816647293,009,001,1,28,m,2021_Nov_08_1913,eye_tracking_exp,2021.2.3,85.07450919575236,
180,0,168,180,180,180,180,0,12,0,None,abs,inhibit,freq_top,,,,,0,230,230,473,,,1.009825191224588,,,,,,,,,,1576.9345476465096,None,1576.9345476465096,None,None,1,None,None,,009,001,1,28,m,2021_Nov_08_1913,eye_tracking_exp,2021.2.3,85.07450919575236,
90,180,180,0,180,168,0,180,-168,180,f,present,resp,freq_top,,,,,0,231,231,869,,,0.9254980078255367,,,,,,,,,,1580.8882417944988,None,1580.8882417944988,None,f,1,None,None,1.2938623408626881,009,001,1,28,m,2021_Nov_08_1913,eye_tracking_exp,2021.2.3,85.07450919575236,
180,-12,180,0,180,0,180,180,-12,180,j,abs,resp,freq_top,,,,,0,232,232,131,,,0.7614856644140802,,,,,,,,,,1583.1363204584268,None,1583.1363204584268,None,j,1,None,None,1.60424508676806,009,001,1,28,m,2021_Nov_08_1913,eye_tracking_exp,2021.2.3,85.07450919575236,
180,180,0,180,-168,180,0,180,-168,180,f,abs,resp,freq_top,,,,,0,233,233,289,,,1.0877008941848962,,,,,,,,,,1585.9009329810578,None,1585.9009329810578,None,f,1,None,None,1.0785643371928018,009,001,1,28,m,2021_Nov_08_1913,eye_tracking_exp,2021.2.3,85.07450919575236,
-168,180,180,270,0,-168,0,180,180,180,f,present,resp,freq_top,,,,,0,234,234,850,,,0.948488119731332,,,,,,,,,,1588.2543733958737,None,1588.2543733958737,None,f,1,None,None,0.8693784476054134,009,001,1,28,m,2021_Nov_08_1913,eye_tracking_exp,2021.2.3,85.07450919575236,
168,0,0,90,0,180,12,0,180,180,None,present,inhibit,freq_top,,,,,0,235,235,991,,,0.8373966973844911,,,,,,,,,,1590.1018228884495,None,1590.1018228884495,None,None,1,None,None,,009,001,1,28,m,2021_Nov_08_1913,eye_tracking_exp,2021.2.3,85.07450919575236,
0,12,0,-12,0,180,180,0,0,0,j,abs,resp,freq_top,,,,,0,236,236,196,,,1.0172990125561214,,,,,,,,,,1594.1269263542927,None,1594.1269263542927,None,j,1,None,None,1.300722433545161,009,001,1,28,m,2021_Nov_08_1913,eye_tracking_exp,2021.2.3,85.07450919575236,
180,180,0,0,0,-168,180,180,-168,180,f,abs,resp,freq_top,,,,,0,237,237,316,,,1.0366186689979247,,,,,,,,,,1596.5982817621552,None,1596.5982817621552,None,f,1,None,None,1.0054012842010707,009,001,1,28,m,2021_Nov_08_1913,eye_tracking_exp,2021.2.3,85.07450919575236,
0,180,-168,0,180,0,180,-168,180,180,f,abs,resp,freq_top,,,,,0,238,238,332,,,0.8108131399628542,,,,,,,,,,1598.8700446040384,None,1598.8700446040384,None,f,1,None,None,1.2127588822622783,009,001,1,28,m,2021_Nov_08_1913,eye_tracking_exp,2021.2.3,85.07450919575236,
0,0,0,0,-12,180,180,180,180,-12,j,abs,resp,freq_top,,,,,0,239,239,80,,,0.7352674068291002,,,,,,,,,,1601.5165939264043,None,1601.5165939264043,None,j,1,None,None,1.0942504566337448,009,001,1,28,m,2021_Nov_08_1913,eye_tracking_exp,2021.2.3,85.07450919575236,
180,0,-168,180,-168,0,180,180,0,180,f,abs,resp,freq_top,,,,,0,240,240,291,,,0.9333670205417238,,,,,,,,,,1603.869762074588,None,1603.869762074588,None,f,1,None,None,0.9330722363956738,009,001,1,28,m,2021_Nov_08_1913,eye_tracking_exp,2021.2.3,85.07450919575236,
180,0,0,180,180,12,180,180,0,12,j,abs,resp,freq_top,,,,,0,241,241,44,,,0.8609911914389186,,,,,,,,,,1606.060632751265,None,1606.060632751265,None,j,1,None,None,0.9021868778509088,009,001,1,28,m,2021_Nov_08_1913,eye_tracking_exp,2021.2.3,85.07450919575236,
0,180,-168,180,90,-168,180,0,0,180,f,present,resp,freq_top,,,,,0,242,242,834,,,0.7695817350233521,,,,,,,,,,1608.082429173708,None,1608.082429173708,None,f,1,None,None,0.9604196380460053,009,001,1,28,m,2021_Nov_08_1913,eye_tracking_exp,2021.2.3,85.07450919575236,
0,0,180,-168,180,180,180,168,0,270,f,present,resp,freq_top,,,,,0,243,243,885,,,0.9301720944026979,,,,,,,,,,1610.2476844508346,None,1610.2476844508346,None,f,1,None,None,1.4357443431654247,009,001,1,28,m,2021_Nov_08_1913,eye_tracking_exp,2021.2.3,85.07450919575236,
0,0,180,0,0,0,12,0,180,12,j,abs,resp,freq_top,,,,,0,244,244,43,,,1.0180460212533728,,,,,,,,,,1612.7556781325547,None,1612.7556781325547,None,j,1,None,None,0.9112510624399874,009,001,1,28,m,2021_Nov_08_1913,eye_tracking_exp,2021.2.3,85.07450919575236,
-168,0,0,270,0,-168,0,0,0,0,f,present,resp,freq_top,,,,,0,245,245,804,,,0.8190833377107161,,,,,,,,,,1614.7910927158446,None,1614.7910927158446,None,f,1,None,None,1.002869385687518,009,001,1,28,m,2021_Nov_08_1913,eye_tracking_exp,2021.2.3,85.07450919575236,
180,180,270,0,0,0,0,12,0,12,j,present,resp,freq_top,,,,,0,246,246,532,,,1.018997706741319,,,,,,,,,,1617.1435744623595,None,1617.1435744623595,None,j,1,None,None,0.9224305957250181,009,001,1,28,m,2021_Nov_08_1913,eye_tracking_exp,2021.2.3,85.07450919575236,
0,-168,0,-168,180,180,90,180,180,0,f,present,resp,freq_top,,,,,0,247,247,840,,,0.7038862540131151,,,,,,,,,,1619.1200816558412,None,1619.1200816558412,None,f,1,None,None,0.9619629853405058,009,001,1,28,m,2021_Nov_08_1913,eye_tracking_exp,2021.2.3,85.07450919575236,
180,0,12,180,180,0,180,0,0,12,j,abs,resp,freq_top,,,,,0,248,248,54,,,0.7744724782372098,,,,,,,,,,1621.096737358399,None,1621.096737358399,None,j,1,None,None,0.9225039447119343,009,001,1,28,m,2021_Nov_08_1913,eye_tracking_exp,2021.2.3,85.07450919575236,
0,180,-12,180,180,270,180,12,180,180,j,present,resp,freq_top,,,,,0,249,249,696,,,0.9952561859381155,,,,,,,,,,1623.521009052718,None,1623.521009052718,None,j,1,None,None,1.313044158523553,009,001,1,28,m,2021_Nov_08_1913,eye_tracking_exp,2021.2.3,85.07450919575236,
180,180,270,0,-12,0,0,12,180,0,j,present,resp,freq_top,,,,,0,250,250,674,,,0.8823489725141769,,,,,,,,,,1625.863611022156,None,1625.863611022156,None,j,1,None,None,1.2100833042495651,009,001,1,28,m,2021_Nov_08_1913,eye_tracking_exp,2021.2.3,85.07450919575236,
168,0,90,180,180,180,0,0,168,0,f,present,resp,freq_top,,,,,0,251,251,755,,,0.9071589946171099,,,,,,,,,,1667.4283040777518,None,1667.4283040777518,None,f,1,None,None,1.2113936251116684,009,001,1,28,m,2021_Nov_08_1913,eye_tracking_exp,2021.2.3,85.07450919575236,
0,12,0,90,180,180,180,180,0,12,j,present,resp,freq_top,,,,,0,252,252,566,,,1.0350873244349161,,,,,,,,,,1669.969771462056,None,1669.969771462056,None,j,1,None,None,1.710456237080507,009,001,1,28,m,2021_Nov_08_1913,eye_tracking_exp,2021.2.3,85.07450919575236,
180,180,0,0,270,168,180,180,168,180,f,present,resp,freq_top,,,,,0,253,253,750,,,0.8353202961444047,,,,,,,,,,1672.8176643689076,None,1672.8176643689076,None,f,1,None,None,1.2941186095631565,009,001,1,28,m,2021_Nov_08_1913,eye_tracking_exp,2021.2.3,85.07450919575236,
0,0,0,12,0,180,180,180,180,-12,j,abs,resp,freq_top,,,,,0,254,254,144,,,1.0543226558964365,,,,,,,,,,1675.724032721504,None,1675.724032721504,None,j,1,None,None,1.253671621409012,009,001,1,28,m,2021_Nov_08_1913,eye_tracking_exp,2021.2.3,85.07450919575236,
90,180,0,-168,180,0,0,0,-168,180,f,present,resp,freq_top,,,,,0,255,255,822,,,0.9413012036873853,,,,,,,,,,1677.9721799048566,None,1677.9721799048566,None,f,1,None,None,1.2757071072264807,009,001,1,28,m,2021_Nov_08_1913,eye_tracking_exp,2021.2.3,85.07450919575236,
12,180,180,180,168,180,0,180,0,0,None,abs,inhibit,freq_top,,,,,0,256,256,503,,,0.9452701753214506,,,,,,,,,,1680.2902247527818,None,1680.2902247527818,None,None,1,None,None,,009,001,1,28,m,2021_Nov_08_1913,eye_tracking_exp,2021.2.3,85.07450919575236,
180,0,180,168,180,0,180,180,168,180,f,abs,resp,freq_top,,,,,0,257,257,213,,,0.8763801131927593,,,,,,,,,,1684.4209314476757,None,1684.4209314476757,None,f,1,None,None,1.4340171706207911,009,001,1,28,m,2021_Nov_08_1913,eye_tracking_exp,2021.2.3,85.07450919575236,
180,0,180,0,168,180,0,180,12,180,None,abs,inhibit,freq_top,,,,,0,258,258,429,,,0.9317835758356157,,,,,,,,,,1686.9746870518575,None,1686.9746870518575,None,f,0,1688.237466302482,None,1.2483648369961884,009,001,1,28,m,2021_Nov_08_1913,eye_tracking_exp,2021.2.3,85.07450919575236,
-12,180,180,180,270,180,180,-12,0,0,j,present,resp,freq_top,,,,,0,259,259,642,,,0.9893112249021847,,,,,,,,,,1690.328647852104,None,1690.328647852104,None,j,1,None,None,1.2704075671572355,009,001,1,28,m,2021_Nov_08_1913,eye_tracking_exp,2021.2.3,85.07450919575236,
180,-168,180,180,0,180,0,180,0,168,f,abs,resp,freq_top,,,,,0,260,260,398,,,0.9744437705865198,,,,,,,,,,1692.7298432897296,None,1692.7298432897296,None,f,1,None,None,2.3882812070660293,009,001,1,28,m,2021_Nov_08_1913,eye_tracking_exp,2021.2.3,85.07450919575236,
180,0,180,0,180,-168,180,0,-168,180,f,abs,resp,freq_top,,,,,0,261,261,295,,,0.8385574704982884,,,,,,,,,,1696.2831953235363,None,1696.2831953235363,None,f,1,None,None,0.7869335778232198,009,001,1,28,m,2021_Nov_08_1913,eye_tracking_exp,2021.2.3,85.07450919575236,
0,0,0,0,12,0,0,0,180,12,j,abs,resp,freq_top,,,,,0,262,262,45,,,0.9668330140510921,,,,,,,,,,1698.3777234586087,None,1698.3777234586087,None,j,1,None,None,0.7884717937049572,009,001,1,28,m,2021_Nov_08_1913,eye_tracking_exp,2021.2.3,85.07450919575236,
180,180,0,180,0,180,-12,180,12,180,j,abs,resp,freq_top,,,,,0,263,263,161,,,0.7525733594501653,,,,,,,,,,1700.3662091762308,None,1700.3662091762308,None,j,1,None,None,0.8799660575459711,009,001,1,28,m,2021_Nov_08_1913,eye_tracking_exp,2021.2.3,85.07450919575236,
180,-168,180,0,180,0,180,180,12,180,None,abs,inhibit,freq_top,,,,,0,264,264,481,,,0.7678023250899999,,,,,,,,,,1702.2258077369042,None,1702.2258077369042,None,None,1,None,None,,009,001,1,28,m,2021_Nov_08_1913,eye_tracking_exp,2021.2.3,85.07450919575236,
-168,0,0,180,0,180,-168,0,180,180,f,abs,resp,freq_top,,,,,0,265,265,307,,,0.9498346928884243,,,,,,,,,,1706.3332839309296,None,1706.3332839309296,None,f,1,None,None,1.1049790294491686,009,001,1,28,m,2021_Nov_08_1913,eye_tracking_exp,2021.2.3,85.07450919575236,
0,0,0,0,0,0,-12,0,0,-12,j,abs,resp,freq_top,,,,,0,266,266,92,,,0.8537896409239065,,,,,,,,,,1708.463975835286,None,1708.463975835286,None,j,1,None,None,1.1653678877701168,009,001,1,28,m,2021_Nov_08_1913,eye_tracking_exp,2021.2.3,85.07450919575236,
270,180,0,-12,180,180,0,180,0,-12,j,present,resp,freq_top,,,,,0,267,267,620,,,1.0381735097860991,,,,,,,,,,1710.9574766015212,None,1710.9574766015212,None,j,1,None,None,1.343912311749591,009,001,1,28,m,2021_Nov_08_1913,eye_tracking_exp,2021.2.3,85.07450919575236,
180,180,0,12,180,0,180,0,0,12,j,abs,resp,freq_top,,,,,0,268,268,46,,,0.9675291348602053,,,,,,,,,,1713.334643452974,None,1713.334643452974,None,j,1,None,None,0.6151870659086853,009,001,1,28,m,2021_Nov_08_1913,eye_tracking_exp,2021.2.3,85.07450919575236,
180,12,180,180,-12,0,0,0,180,180,j,abs,resp,freq_top,,,,,0,269,269,197,,,0.9593377688430282,,,,,,,,,,1714.9946322423493,None,1714.9946322423493,None,j,1,None,None,1.1467964061594103,009,001,1,28,m,2021_Nov_08_1913,eye_tracking_exp,2021.2.3,85.07450919575236,
270,0,180,0,180,-12,0,-12,0,0,j,present,resp,freq_top,,,,,0,270,270,603,,,1.0226419879580804,,,,,,,,,,1717.5825567043576,None,1717.5825567043576,None,j,1,None,None,0.9268318370450288,009,001,1,28,m,2021_Nov_08_1913,eye_tracking_exp,2021.2.3,85.07450919575236,
168,0,180,0,180,180,180,0,12,180,None,abs,inhibit,freq_top,,,,,0,271,271,489,,,0.7232379541760499,,,,,,,,,,1719.6647763957517,None,1719.6647763957517,None,None,1,None,None,,009,001,1,28,m,2021_Nov_08_1913,eye_tracking_exp,2021.2.3,85.07450919575236,
-168,0,0,168,0,0,0,0,0,0,f,abs,resp,freq_top,,,,,0,272,272,356,,,1.078844092246042,,,,,,,,,,1723.748246038478,None,1723.748246038478,None,f,1,None,None,1.1612340835126815,009,001,1,28,m,2021_Nov_08_1913,eye_tracking_exp,2021.2.3,85.07450919575236,
-168,0,90,180,-168,0,180,0,180,180,f,present,resp,freq_top,,,,,0,273,273,849,,,0.948552244707216,,,,,,,,,,1726.2072090889997,None,1726.2072090889997,None,f,1,None,None,0.9573649393205415,009,001,1,28,m,2021_Nov_08_1913,eye_tracking_exp,2021.2.3,85.07450919575236,
180,180,168,0,0,0,0,168,0,180,f,abs,resp,freq_top,,,,,0,274,274,242,,,0.8446023553686757,,,,,,,,,,1728.0665326664166,None,1728.0665326664166,None,f,1,None,None,1.5780839465733152,009,001,1,28,m,2021_Nov_08_1913,eye_tracking_exp,2021.2.3,85.07450919575236,
0,0,0,180,180,0,-168,0,-168,0,f,abs,resp,freq_top,,,,,0,275,275,315,,,0.8549889391967969,,,,,,,,,,1730.6202514451725,None,1730.6202514451725,None,f,1,None,None,0.9764308474623249,009,001,1,28,m,2021_Nov_08_1913,eye_tracking_exp,2021.2.3,85.07450919575236,
180,0,180,12,0,180,180,0,12,180,j,abs,resp,freq_top,,,,,0,276,276,3,,,0.7113522444455822,,,,,,,,,,1732.7618898563815,None,1732.7618898563815,None,j,1,None,None,1.011126127683383,009,001,1,28,m,2021_Nov_08_1913,eye_tracking_exp,2021.2.3,85.07450919575236,
12,0,168,0,0,90,0,0,180,180,None,present,inhibit,freq_top,,,,,0,277,277,979,,,0.9808025099638313,,,,,,,,,,1734.9517306287016,None,1734.9517306287016,None,None,1,None,None,,009,001,1,28,m,2021_Nov_08_1913,eye_tracking_exp,2021.2.3,85.07450919575236,
90,180,180,-168,0,180,0,180,-12,180,None,present,inhibit,freq_top,,,,,0,278,278,997,,,0.7887461974010126,,,,,,,,,,1739.2126040129515,None,1739.2126040129515,None,None,1,None,None,,009,001,1,28,m,2021_Nov_08_1913,eye_tracking_exp,2021.2.3,85.07450919575236,
12,0,270,180,0,180,168,180,0,0,None,present,inhibit,freq_top,,,,,0,279,279,951,,,0.9197108855530555,,,,,,,,,,1743.2480979821848,None,1743.2480979821848,None,None,1,None,None,,009,001,1,28,m,2021_Nov_08_1913,eye_tracking_exp,2021.2.3,85.07450919575236,
0,270,0,-12,0,180,180,180,180,-12,j,present,resp,freq_top,,,,,0,280,280,578,,,0.7378636255612935,,,,,,,,,,1747.237675181088,None,1747.237675181088,None,j,1,None,None,1.3821872038461152,009,001,1,28,m,2021_Nov_08_1913,eye_tracking_exp,2021.2.3,85.07450919575236,
0,12,180,90,180,0,180,-168,0,0,None,present,inhibit,freq_top,,,,,0,281,281,957,,,0.9076717219830406,,,,,,,,,,1749.899163851689,None,1749.899163851689,None,None,1,None,None,,009,001,1,28,m,2021_Nov_08_1913,eye_tracking_exp,2021.2.3,85.07450919575236,
0,0,-12,0,180,180,180,180,-12,0,j,abs,resp,freq_top,,,,,0,282,282,109,,,0.7544721867912821,,,,,,,,,,1753.6634769414013,None,1753.6634769414013,None,j,1,None,None,1.0204701250913786,009,001,1,28,m,2021_Nov_08_1913,eye_tracking_exp,2021.2.3,85.07450919575236,
168,0,180,180,180,180,0,168,180,180,f,abs,resp,freq_top,,,,,0,283,283,244,,,0.7115458236348293,,,,,,,,,,1755.4519363379077,None,1755.4519363379077,None,f,1,None,None,0.7836856965659535,009,001,1,28,m,2021_Nov_08_1913,eye_tracking_exp,2021.2.3,85.07450919575236,
12,0,0,180,180,0,0,12,180,180,j,abs,resp,freq_top,,,,,0,284,284,34,,,1.0804962577070896,,,,,,,,,,1757.6875423530073,None,1757.6875423530073,None,j,1,None,None,0.7554493534407811,009,001,1,28,m,2021_Nov_08_1913,eye_tracking_exp,2021.2.3,85.07450919575236,
180,168,180,0,180,168,180,0,180,180,f,abs,resp,freq_top,,,,,0,285,285,229,,,0.9218723585090626,,,,,,,,,,1759.7465882909091,None,1759.7465882909091,None,f,1,None,None,1.1448863139085006,009,001,1,28,m,2021_Nov_08_1913,eye_tracking_exp,2021.2.3,85.07450919575236,
90,0,180,0,0,0,-168,0,180,-168,f,present,resp,freq_top,,,,,0,286,286,827,,,1.0401608695269344,,,,,,,,,,1762.0060170320648,None,1762.0060170320648,None,f,1,None,None,1.0302258427618654,009,001,1,28,m,2021_Nov_08_1913,eye_tracking_exp,2021.2.3,85.07450919575236,
-168,180,180,0,0,168,0,0,0,0,f,abs,resp,freq_top,,,,,0,287,287,416,,,1.0348761355693878,,,,,,,,,,1764.4066697475282,None,1764.4066697475282,None,f,1,None,None,0.9004889845382422,009,001,1,28,m,2021_Nov_08_1913,eye_tracking_exp,2021.2.3,85.07450919575236,
180,180,90,180,-12,180,-12,180,180,180,j,present,resp,freq_top,,,,,0,288,288,581,,,0.9796475250364909,,,,,,,,,,1766.571829037086,None,1766.571829037086,None,j,1,None,None,1.0234098198488937,009,001,1,28,m,2021_Nov_08_1913,eye_tracking_exp,2021.2.3,85.07450919575236,
168,0,0,90,12,0,180,0,180,180,None,present,inhibit,freq_top,,,,,0,289,289,989,,,1.0121862538653654,,,,,,,,,,1768.8909333704432,None,1768.8909333704432,None,None,1,None,None,,009,001,1,28,m,2021_Nov_08_1913,eye_tracking_exp,2021.2.3,85.07450919575236,
168,0,180,0,180,0,168,180,180,180,f,abs,resp,freq_top,,,,,0,290,290,237,,,0.9118107631819646,,,,,,,,,,1773.0435191940487,None,1773.0435191940487,None,f,1,None,None,0.982727390488435,009,001,1,28,m,2021_Nov_08_1913,eye_tracking_exp,2021.2.3,85.07450919575236,
180,-168,180,168,180,0,180,0,180,270,f,present,resp,freq_top,,,,,0,291,291,859,,,1.049329205928461,,,,,,,,,,1775.3499860697339,None,1775.3499860697339,None,f,1,None,None,0.9642820812223363,009,001,1,28,m,2021_Nov_08_1913,eye_tracking_exp,2021.2.3,85.07450919575236,
0,0,12,0,180,180,180,180,180,-168,None,abs,inhibit,freq_top,,,,,0,292,292,467,,,0.9703715481070421,,,,,,,,,,1777.5987653221673,None,1777.5987653221673,None,None,1,None,None,,009,001,1,28,m,2021_Nov_08_1913,eye_tracking_exp,2021.2.3,85.07450919575236,
0,0,0,180,12,0,0,0,12,0,j,abs,resp,freq_top,,,,,0,293,293,37,,,0.858703868268005,,,,,,,,,,1790.4475912402631,None,1790.4475912402631,None,j,1,None,None,1.0819408055685926,009,001,1,28,m,2021_Nov_08_1913,eye_tracking_exp,2021.2.3,85.07450919575236,
-12,180,180,90,180,180,0,12,0,0,j,present,resp,freq_top,,,,,0,294,294,712,,,1.033443245197297,,,,,,,,,,1792.9524369523206,None,1792.9524369523206,None,j,1,None,None,1.1531424522108864,009,001,1,28,m,2021_Nov_08_1913,eye_tracking_exp,2021.2.3,85.07450919575236,
180,180,-12,180,90,180,0,180,0,-12,j,present,resp,freq_top,,,,,0,295,295,628,,,0.8431828018502585,,,,,,,,,,1795.460699882191,None,1795.460699882191,None,j,1,None,None,0.9182433644164121,009,001,1,28,m,2021_Nov_08_1913,eye_tracking_exp,2021.2.3,85.07450919575236,
270,0,-12,0,180,180,180,180,-12,0,j,present,resp,freq_top,,,,,0,296,296,613,,,1.0392423702281057,,,,,,,,,,1797.859096286098,None,1797.859096286098,None,j,1,None,None,0.8065370767217246,009,001,1,28,m,2021_Nov_08_1913,eye_tracking_exp,2021.2.3,85.07450919575236,
0,12,180,0,270,0,180,180,12,180,j,present,resp,freq_top,,,,,0,297,297,565,,,0.8362624901232303,,,,,,,,,,1799.5888958079158,None,1799.5888958079158,None,j,1,None,None,0.7247197483084165,009,001,1,28,m,2021_Nov_08_1913,eye_tracking_exp,2021.2.3,85.07450919575236,
-12,0,0,90,0,0,0,0,-12,180,j,present,resp,freq_top,,,,,0,298,298,643,,,0.9858945160982586,,,,,,,,,,1801.6362641638261,None,1801.6362641638261,None,j,1,None,None,1.2045842428415199,009,001,1,28,m,2021_Nov_08_1913,eye_tracking_exp,2021.2.3,85.07450919575236,
0,0,0,270,0,12,0,12,0,0,j,present,resp,freq_top,,,,,0,299,299,518,,,0.8374404592138185,,,,,,,,,,1803.9912430963668,None,1803.9912430963668,None,j,1,None,None,0.9294075034704292,009,001,1,28,m,2021_Nov_08_1913,eye_tracking_exp,2021.2.3,85.07450919575236,
180,180,168,0,270,0,0,168,0,180,f,present,resp,freq_top,,,,,0,300,300,746,,,1.0372804700800837,,,,,,,,,,1806.24945961716,None,1806.24945961716,None,f,1,None,None,0.7993446497202967,009,001,1,28,m,2021_Nov_08_1913,eye_tracking_exp,2021.2.3,85.07450919575236,
0,12,180,0,0,0,180,12,0,0,j,abs,resp,freq_top,,,,,0,301,301,33,,,1.0758653714445703,,,,,,,,,,1808.4609730543598,None,1808.4609730543598,None,j,1,None,None,0.8118172985487035,009,001,1,28,m,2021_Nov_08_1913,eye_tracking_exp,2021.2.3,85.07450919575236,
270,180,180,180,-168,180,180,180,168,180,f,present,resp,freq_top,,,,,0,302,302,863,,,0.8066410308498148,,,,,,,,,,1810.6377362750645,None,1810.6377362750645,None,f,1,None,None,0.9712861552543472,009,001,1,28,m,2021_Nov_08_1913,eye_tracking_exp,2021.2.3,85.07450919575236,
-168,0,0,180,168,180,180,0,180,0,f,abs,resp,freq_top,,,,,0,303,303,415,,,0.9434833405922053,,,,,,,,,,1812.8849993465046,None,1812.8849993465046,None,f,1,None,None,0.8197842667432269,009,001,1,28,m,2021_Nov_08_1913,eye_tracking_exp,2021.2.3,85.07450919575236,
180,-168,180,90,180,180,180,180,-168,180,f,present,resp,freq_top,,,,,0,304,304,845,,,0.8753373139704336,,,,,,,,,,1814.9208235371188,None,1814.9208235371188,None,f,1,None,None,0.8490305922750849,009,001,1,28,m,2021_Nov_08_1913,eye_tracking_exp,2021.2.3,85.07450919575236,
270,0,-168,0,0,-168,180,180,180,180,f,present,resp,freq_top,,,,,0,305,305,802,,,0.9329793636904735,,,,,,,,,,1817.0166031327608,None,1817.0166031327608,None,f,1,None,None,0.7523167780091171,009,001,1,28,m,2021_Nov_08_1913,eye_tracking_exp,2021.2.3,85.07450919575236,
180,12,0,270,180,0,180,0,168,180,None,present,inhibit,freq_top,,,,,0,306,306,964,,,0.8988650403724678,,,,,,,,,,1818.9572725524777,None,1818.9572725524777,None,None,1,None,None,,009,001,1,28,m,2021_Nov_08_1913,eye_tracking_exp,2021.2.3,85.07450919575236,
0,12,180,180,180,0,180,-168,0,0,None,abs,inhibit,freq_top,,,,,0,307,307,453,,,0.9189802032851799,,,,,,,,,,1822.8992616503456,None,1822.8992616503456,None,None,1,None,None,,009,001,1,28,m,2021_Nov_08_1913,eye_tracking_exp,2021.2.3,85.07450919575236,
12,0,270,0,180,180,180,180,12,0,j,present,resp,freq_top,,,,,0,308,308,573,,,0.8708870860963029,,,,,,,,,,1826.7726534435278,None,1826.7726534435278,None,j,1,None,None,0.9153510597607237,009,001,1,28,m,2021_Nov_08_1913,eye_tracking_exp,2021.2.3,85.07450919575236,
180,0,-168,0,0,0,-168,0,0,0,f,abs,resp,freq_top,,,,,0,309,309,331,,,0.8494902780936582,,,,,,,,,,1828.8419443942257,None,1828.8419443942257,None,f,1,None,None,0.7827532890223665,009,001,1,28,m,2021_Nov_08_1913,eye_tracking_exp,2021.2.3,85.07450919575236,
180,90,0,12,180,12,0,180,0,180,j,present,resp,freq_top,,,,,0,310,310,521,,,0.9663101649170784,,,,,,,,,,1830.948388269113,None,1830.948388269113,None,j,1,None,None,0.7717464126326377,009,001,1,28,m,2021_Nov_08_1913,eye_tracking_exp,2021.2.3,85.07450919575236,
180,270,180,180,-12,180,-12,180,180,180,j,present,resp,freq_top,,,,,0,311,311,597,,,0.9952759710392645,,,,,,,,,,1833.0309034694073,None,1833.0309034694073,None,f,0,1834.113782698034,None,1.056248434855661,009,001,1,28,m,2021_Nov_08_1913,eye_tracking_exp,2021.2.3,85.07450919575236,
180,90,0,180,180,180,180,-12,0,-12,j,present,resp,freq_top,,,,,0,312,312,602,,,0.7391196423250628,,,,,,,,,,1835.396161221688,None,1835.396161221688,None,j,1,None,None,1.6349813325432478,009,001,1,28,m,2021_Nov_08_1913,eye_tracking_exp,2021.2.3,85.07450919575236,
0,0,180,0,180,-12,0,12,0,0,j,abs,resp,freq_top,,,,,0,313,313,169,,,0.9001701368066922,,,,,,,,,,1837.975564824963,None,1837.975564824963,None,j,1,None,None,1.0716061440034537,009,001,1,28,m,2021_Nov_08_1913,eye_tracking_exp,2021.2.3,85.07450919575236,
270,180,180,-12,180,-12,180,0,180,180,j,present,resp,freq_top,,,,,0,314,314,591,,,1.0406844309217123,,,,,,,,,,1840.385331228048,None,1840.385331228048,None,j,1,None,None,0.8538266503965133,009,001,1,28,m,2021_Nov_08_1913,eye_tracking_exp,2021.2.3,85.07450919575236,
168,0,0,0,0,0,0,0,168,180,f,abs,resp,freq_top,,,,,0,315,315,279,,,0.8192226664527787,,,,,,,,,,1842.3620753719806,None,1842.3620753719806,None,f,1,None,None,0.8452158410436823,009,001,1,28,m,2021_Nov_08_1913,eye_tracking_exp,2021.2.3,85.07450919575236,
180,0,0,180,180,-12,180,180,0,12,j,abs,resp,freq_top,,,,,0,316,316,184,,,0.7534219381982992,,,,,,,,,,1844.0112996686657,None,1844.0112996686657,None,f,0,1846.9638793949416,None,2.940047634903749,009,001,1,28,m,2021_Nov_08_1913,eye_tracking_exp,2021.2.3,85.07450919575236,
270,0,180,0,180,12,0,-168,0,0,None,present,inhibit,freq_top,,,,,0,317,317,953,,,0.8389176582766387,,,,,,,,,,1848.504315969345,None,1848.504315969345,None,None,1,None,None,,009,001,1,28,m,2021_Nov_08_1913,eye_tracking_exp,2021.2.3,85.07450919575236,
0,0,168,0,90,0,0,0,168,0,f,present,resp,freq_top,,,,,0,318,318,753,,,0.7118221540841385,,,,,,,,,,1852.2237986386099,None,1852.2237986386099,None,f,1,None,None,0.950536842487054,009,001,1,28,m,2021_Nov_08_1913,eye_tracking_exp,2021.2.3,85.07450919575236,
180,0,168,180,168,0,180,180,0,180,f,abs,resp,freq_top,,,,,0,319,319,221,,,0.8298346594481029,,,,,,,,,,1854.353402382003,None,1854.353402382003,None,f,1,None,None,0.757148454154958,009,001,1,28,m,2021_Nov_08_1913,eye_tracking_exp,2021.2.3,85.07450919575236,
180,-168,180,270,0,180,180,180,12,0,None,present,inhibit,freq_top,,,,,0,320,320,985,,,1.0657172184893828,,,,,,,,,,1856.4611016414783,None,1856.4611016414783,None,None,1,None,None,,009,001,1,28,m,2021_Nov_08_1913,eye_tracking_exp,2021.2.3,85.07450919575236,
0,12,0,0,168,0,180,180,180,0,None,abs,inhibit,freq_top,,,,,0,321,321,502,,,1.0843512553964878,,,,,,,,,,1860.5681093678795,None,1860.5681093678795,None,None,1,None,None,,009,001,1,28,m,2021_Nov_08_1913,eye_tracking_exp,2021.2.3,85.07450919575236,
0,168,0,270,0,0,0,168,0,0,f,present,resp,freq_top,,,,,0,322,322,774,,,1.0156916646256642,,,,,,,,,,1864.591676730779,None,1864.591676730779,None,f,1,None,None,1.3179724259243812,009,001,1,28,m,2021_Nov_08_1913,eye_tracking_exp,2021.2.3,85.07450919575236,
0,0,180,0,0,0,12,0,12,0,j,abs,resp,freq_top,,,,,0,323,323,35,,,0.8080283836206433,,,,,,,,,,1867.0508993703188,None,1867.0508993703188,None,j,1,None,None,0.922702258649224,009,001,1,28,m,2021_Nov_08_1913,eye_tracking_exp,2021.2.3,85.07450919575236,
90,0,180,0,12,0,0,0,180,12,j,present,resp,freq_top,,,,,0,324,324,549,,,0.959325167796959,,,,,,,,,,1869.6043169050754,None,1869.6043169050754,None,j,1,None,None,0.7853612531544059,009,001,1,28,m,2021_Nov_08_1913,eye_tracking_exp,2021.2.3,85.07450919575236,
0,12,0,0,12,0,0,90,0,0,j,present,resp,freq_top,,,,,0,325,325,516,,,0.9201358002223912,,,,,,,,,,1871.3692937578817,None,1871.3692937578817,None,j,1,None,None,1.2124633733619703,009,001,1,28,m,2021_Nov_08_1913,eye_tracking_exp,2021.2.3,85.07450919575236,
0,12,180,0,270,180,0,180,-12,0,j,present,resp,freq_top,,,,,0,326,326,705,,,1.09254657026724,,,,,,,,,,1873.9706247855065,None,1873.9706247855065,None,j,1,None,None,1.170537633333879,009,001,1,28,m,2021_Nov_08_1913,eye_tracking_exp,2021.2.3,85.07450919575236,
0,-168,0,0,0,0,0,12,0,0,None,abs,inhibit,freq_top,,,,,0,327,327,480,,,0.9180018399648981,,,,,,,,,,1876.3610170939428,None,1876.3610170939428,None,None,1,None,None,,009,001,1,28,m,2021_Nov_08_1913,eye_tracking_exp,2021.2.3,85.07450919575236,
0,270,0,0,-12,180,180,180,0,12,j,present,resp,freq_top,,,,,0,328,328,654,,,0.8218063806166219,,,,,,,,,,1880.1731045247288,None,1880.1731045247288,None,j,1,None,None,1.4322906017769128,009,001,1,28,m,2021_Nov_08_1913,eye_tracking_exp,2021.2.3,85.07450919575236,
0,0,-12,0,-12,0,0,0,0,0,j,abs,resp,freq_top,,,,,0,329,329,119,,,0.8829917530131198,,,,,,,,,,1882.573427622512,None,1882.573427622512,None,j,1,None,None,0.8553702995268395,009,001,1,28,m,2021_Nov_08_1913,eye_tracking_exp,2021.2.3,85.07450919575236,
12,0,90,0,0,-168,0,0,0,0,None,present,inhibit,freq_top,,,,,0,330,330,944,,,0.8441889892640689,,,,,,,,,,1884.997232358437,None,1884.997232358437,None,None,1,None,None,,009,001,1,28,m,2021_Nov_08_1913,eye_tracking_exp,2021.2.3,85.07450919575236,
168,0,0,0,0,168,0,0,0,0,f,abs,resp,freq_top,,,,,0,331,331,230,,,1.07525386581487,,,,,,,,,,1889.340344148637,None,1889.340344148637,None,f,1,None,None,0.9686226511548739,009,001,1,28,m,2021_Nov_08_1913,eye_tracking_exp,2021.2.3,85.07450919575236,
12,0,0,180,0,180,12,180,180,180,j,abs,resp,freq_top,,,,,0,332,332,67,,,0.9769671739498775,,,,,,,,,,1891.6595000979505,None,1891.6595000979505,None,j,1,None,None,0.7934136442490853,009,001,1,28,m,2021_Nov_08_1913,eye_tracking_exp,2021.2.3,85.07450919575236,
90,0,180,168,180,180,0,168,0,0,f,present,resp,freq_top,,,,,0,333,333,745,,,1.0860581492883794,,,,,,,,,,1893.8703364907633,None,1893.8703364907633,None,f,1,None,None,1.2383975240809377,009,001,1,28,m,2021_Nov_08_1913,eye_tracking_exp,2021.2.3,85.07450919575236,
0,180,-168,0,180,168,0,180,0,180,f,abs,resp,freq_top,,,,,0,334,334,400,,,1.035856233999474,,,,,,,,,,1896.2709611343962,None,1896.2709611343962,None,f,1,None,None,0.8050963576461072,009,001,1,28,m,2021_Nov_08_1913,eye_tracking_exp,2021.2.3,85.07450919575236,
168,180,90,180,-168,180,180,180,180,180,f,present,resp,freq_top,,,,,0,335,335,867,,,0.8319687911735004,,,,,,,,,,1906.9536244211704,None,1906.9536244211704,None,f,1,None,None,1.0185829732727143,009,001,1,28,m,2021_Nov_08_1913,eye_tracking_exp,2021.2.3,85.07450919575236,
180,180,0,0,180,180,0,-168,0,-168,f,abs,resp,freq_top,,,,,0,336,336,322,,,0.9951040024449089,,,,,,,,,,1909.1655806689523,None,1909.1655806689523,None,f,1,None,None,0.8546724276457098,009,001,1,28,m,2021_Nov_08_1913,eye_tracking_exp,2021.2.3,85.07450919575236,
180,180,180,-168,180,-168,0,180,0,180,f,abs,resp,freq_top,,,,,0,337,337,297,,,1.0642222826677312,,,,,,,,,,1911.5897162299589,None,1911.5897162299589,None,f,1,None,None,0.7975275265634991,009,001,1,28,m,2021_Nov_08_1913,eye_tracking_exp,2021.2.3,85.07450919575236,
0,270,180,180,-12,180,180,180,-12,0,j,present,resp,freq_top,,,,,0,338,338,611,,,0.9293435926649396,,,,,,,,,,1913.66089584172,None,1913.66089584172,None,j,1,None,None,0.8869293821408064,009,001,1,28,m,2021_Nov_08_1913,eye_tracking_exp,2021.2.3,85.07450919575236,
