ori10,ori11,ori12,ori13,ori14,ori16,ori17,ori18,ori19,ori20,corrAns,distractor,respon,dist_freq,practice_trials.thisRepN,practice_trials.thisTrialN,practice_trials.thisN,practice_trials.thisIndex,trials.thisRepN,trials.thisTrialN,trials.thisN,trials.thisIndex,key_resp.keys,key_resp.rt,fixdur,int14_2.started,int14_2.stopped,per15_2.started,per15_2.stopped,response_pract.keys,response_pract.corr,response_pract.rt,key_resp_2.keys,key_resp_2.rt,int14.started,int14.stopped,per15.started,per15.stopped,response.keys,response.corr,response.rt,text_7.started,text_7.stopped,participant,session,1=top 2=bottom,age,gender,date,expName,psychopyVersion,frameRate,
,,,,,,,,,,,,,,,,,,,,,,space,19.465401990491046,,,,,,,,,,,,,,,,,,,,010,001,1,33,m,2021_Nov_09_1137,eye_tracking_exp,2021.2.3,84.87751076007592,
180,270,0,0,168,0,0,168,180,0,f,present,resp,pract,0,0,0,45,,,,,,,1.039297357456603,144.6386912043963,None,144.6386912043963,None,f,1,2.134093143573409,,,,,,,,,,,,010,001,1,33,m,2021_Nov_09_1137,eye_tracking_exp,2021.2.3,84.87751076007592,
90,0,180,180,180,168,0,168,0,0,f,present,resp,pract,0,1,1,44,,,,,,,0.7599537597003835,147.841080985796,None,147.841080985796,None,f,1,1.8753389075309315,,,,,,,,,,,,010,001,1,33,m,2021_Nov_09_1137,eye_tracking_exp,2021.2.3,84.87751076007592,
0,180,0,12,0,180,180,12,0,0,j,abs,resp,pract,0,2,2,2,,,,,,,0.906661624647388,150.93472834845488,None,150.93472834845488,None,j,1,1.6129579823164022,,,,,,,,,,,,010,001,1,33,m,2021_Nov_09_1137,eye_tracking_exp,2021.2.3,84.87751076007592,
0,180,180,180,168,0,0,0,0,12,None,abs,inhibit,pract,0,3,3,31,,,,,,,0.8484707956203748,153.64074859211178,None,153.64074859211178,None,None,1,,,,,,,,,,,,,010,001,1,33,m,2021_Nov_09_1137,eye_tracking_exp,2021.2.3,84.87751076007592,
12,0,0,12,0,0,90,180,180,0,j,present,resp,pract,0,4,4,38,,,,,,,0.8600754793806417,157.51233149780364,None,157.51233149780364,None,j,1,1.627143875868569,,,,,,,,,,,,010,001,1,33,m,2021_Nov_09_1137,eye_tracking_exp,2021.2.3,84.87751076007592,
90,0,180,168,180,180,0,168,0,0,f,present,resp,pract,0,5,5,46,,,,,,,1.084321739852396,160.58395219471277,None,160.58395219471277,None,f,1,1.7555830049923316,,,,,,,,,,,,010,001,1,33,m,2021_Nov_09_1137,eye_tracking_exp,2021.2.3,84.87751076007592,
90,0,0,12,0,12,180,180,180,0,j,present,resp,pract,0,6,6,32,,,,,,,1.028255745912346,163.6222909627977,None,163.6222909627977,None,j,1,1.2292313275238484,,,,,,,,,,,,010,001,1,33,m,2021_Nov_09_1137,eye_tracking_exp,2021.2.3,84.87751076007592,
0,270,0,0,12,0,0,12,0,0,j,present,resp,pract,0,7,7,40,,,,,,,0.9346502462457765,166.0800286392232,None,166.0800286392232,None,j,1,1.3475978292917716,,,,,,,,,,,,010,001,1,33,m,2021_Nov_09_1137,eye_tracking_exp,2021.2.3,84.87751076007592,
180,270,180,12,180,180,180,180,12,180,j,present,resp,pract,0,8,8,35,,,,,,,0.9853719049074986,168.6804948717745,None,168.6804948717745,None,j,1,1.4660844660820658,,,,,,,,,,,,010,001,1,33,m,2021_Nov_09_1137,eye_tracking_exp,2021.2.3,84.87751076007592,
0,0,0,-168,0,12,0,0,0,0,None,abs,inhibit,pract,0,9,9,21,,,,,,,0.7800272356718909,171.30457246571768,None,171.30457246571768,None,None,1,,,,,,,,,,,,,010,001,1,33,m,2021_Nov_09_1137,eye_tracking_exp,2021.2.3,84.87751076007592,
180,180,180,-168,180,180,12,180,0,180,None,abs,inhibit,pract,0,10,10,22,,,,,,,0.7407678108638854,175.52912896977614,None,175.52912896977614,None,None,1,,,,,,,,,,,,,010,001,1,33,m,2021_Nov_09_1137,eye_tracking_exp,2021.2.3,84.87751076007592,
180,270,0,0,0,0,0,168,0,168,f,present,resp,pract,0,11,11,43,,,,,,,0.8648647776726042,179.672936024479,None,179.672936024479,None,f,1,1.6257919040999695,,,,,,,,,,,,010,001,1,33,m,2021_Nov_09_1137,eye_tracking_exp,2021.2.3,84.87751076007592,
90,0,0,12,0,180,180,180,0,12,j,present,resp,pract,0,12,12,36,,,,,,,0.8248751396387003,182.46022851613088,None,182.46022851613088,None,j,1,0.9824764068926015,,,,,,,,,,,,010,001,1,33,m,2021_Nov_09_1137,eye_tracking_exp,2021.2.3,84.87751076007592,
0,0,180,0,168,0,0,0,180,168,f,abs,resp,pract,0,13,13,17,,,,,,,0.9079161441475688,184.75469575503848,None,184.75469575503848,None,f,1,1.4870691567148242,,,,,,,,,,,,010,001,1,33,m,2021_Nov_09_1137,eye_tracking_exp,2021.2.3,84.87751076007592,
0,180,0,0,180,168,180,0,0,168,f,abs,resp,pract,0,14,14,16,,,,,,,0.8282840248007447,187.42729491849968,None,187.42729491849968,None,f,1,1.678222993232339,,,,,,,,,,,,010,001,1,33,m,2021_Nov_09_1137,eye_tracking_exp,2021.2.3,84.87751076007592,
180,270,180,12,180,0,12,180,0,180,j,present,resp,pract,0,15,15,33,,,,,,,1.0563157107759318,190.55731995065435,None,190.55731995065435,None,j,1,1.876492867806519,,,,,,,,,,,,010,001,1,33,m,2021_Nov_09_1137,eye_tracking_exp,2021.2.3,84.87751076007592,
180,12,180,12,180,90,180,180,0,180,j,present,resp,pract,0,16,16,37,,,,,,,0.8570922497307478,193.6388919325109,None,193.6388919325109,None,j,1,1.5789618839871764,,,,,,,,,,,,010,001,1,33,m,2021_Nov_09_1137,eye_tracking_exp,2021.2.3,84.87751076007592,
180,0,180,0,12,180,180,180,12,180,j,abs,resp,pract,0,17,17,9,,,,,,,0.7307290534526696,196.65174094663416,None,196.65174094663416,None,j,1,2.0221602042702216,,,,,,,,,,,,010,001,1,33,m,2021_Nov_09_1137,eye_tracking_exp,2021.2.3,84.87751076007592,
180,168,180,0,180,0,180,0,0,168,f,abs,resp,pract,0,18,18,20,,,,,,,0.9267663412880205,199.88892672035308,None,199.88892672035308,None,f,1,1.2646391632861196,,,,,,,,,,,,010,001,1,33,m,2021_Nov_09_1137,eye_tracking_exp,2021.2.3,84.87751076007592,
180,0,180,0,168,180,0,180,12,180,None,abs,inhibit,pract,0,19,19,30,,,,,,,1.0358771166993825,202.5468688074243,None,202.5468688074243,None,None,1,,,,,,,,,,,,,010,001,1,33,m,2021_Nov_09_1137,eye_tracking_exp,2021.2.3,84.87751076007592,
0,180,0,12,0,180,180,180,0,12,j,abs,resp,pract,0,20,20,4,,,,,,,0.8755112197255426,206.70267487569254,None,206.70267487569254,None,j,1,0.9301449272006721,,,,,,,,,,,,010,001,1,33,m,2021_Nov_09_1137,eye_tracking_exp,2021.2.3,84.87751076007592,
0,0,0,-168,0,0,0,12,0,0,None,abs,inhibit,pract,0,21,21,23,,,,,,,0.8326601603432953,208.98412889582323,None,208.98412889582323,None,None,1,,,,,,,,,,,,,010,001,1,33,m,2021_Nov_09_1137,eye_tracking_exp,2021.2.3,84.87751076007592,
0,0,168,0,0,0,0,0,180,168,f,abs,resp,pract,0,22,22,19,,,,,,,1.072684034043458,213.3875090969077,None,213.3875090969077,None,f,1,1.0455989092988602,,,,,,,,,,,,010,001,1,33,m,2021_Nov_09_1137,eye_tracking_exp,2021.2.3,84.87751076007592,
12,0,0,-168,0,0,180,180,180,180,None,abs,inhibit,pract,0,23,23,27,,,,,,,0.8759295781774514,215.63383660248564,None,215.63383660248564,None,None,1,,,,,,,,,,,,,010,001,1,33,m,2021_Nov_09_1137,eye_tracking_exp,2021.2.3,84.87751076007592,
0,0,168,0,0,0,0,0,168,0,f,abs,resp,pract,0,24,24,11,,,,,,,0.8581741703355872,219.87048086306459,None,219.87048086306459,None,f,1,1.2017273499377552,,,,,,,,,,,,010,001,1,33,m,2021_Nov_09_1137,eye_tracking_exp,2021.2.3,84.87751076007592,
180,180,90,180,12,180,12,0,0,180,j,present,resp,pract,0,25,25,39,,,,,,,0.9038557387233164,222.7076001097521,None,222.7076001097521,None,j,1,1.7407864753849935,,,,,,,,,,,,010,001,1,33,m,2021_Nov_09_1137,eye_tracking_exp,2021.2.3,84.87751076007592,
0,180,180,180,12,0,180,12,0,0,j,abs,resp,pract,0,26,26,8,,,,,,,1.0354996296938452,226.16575131627906,None,226.16575131627906,None,j,1,1.0345316967732288,,,,,,,,,,,,010,001,1,33,m,2021_Nov_09_1137,eye_tracking_exp,2021.2.3,84.87751076007592,
0,0,0,-168,180,180,180,180,0,12,None,abs,inhibit,pract,0,27,27,25,,,,,,,0.9514995431078366,228.44845860427904,None,228.44845860427904,None,None,1,,,,,,,,,,,,,010,001,1,33,m,2021_Nov_09_1137,eye_tracking_exp,2021.2.3,84.87751076007592,
12,0,0,12,0,0,180,0,180,180,j,abs,resp,pract,0,28,28,6,,,,,,,0.9348140486964774,232.68622724414854,None,232.68622724414854,None,j,1,1.3622295505520015,,,,,,,,,,,,010,001,1,33,m,2021_Nov_09_1137,eye_tracking_exp,2021.2.3,84.87751076007592,
180,12,180,12,0,180,0,180,180,180,j,abs,resp,pract,0,29,29,5,,,,,,,0.8630088282128938,235.41544441355563,None,235.41544441355563,None,j,1,1.6078733731519605,,,,,,,,,,,,010,001,1,33,m,2021_Nov_09_1137,eye_tracking_exp,2021.2.3,84.87751076007592,
90,0,0,12,0,0,0,12,0,0,j,present,resp,pract,0,30,30,34,,,,,,,0.8080880833776999,238.25094696883934,None,238.25094696883934,None,j,1,1.3804481172082887,,,,,,,,,,,,010,001,1,33,m,2021_Nov_09_1137,eye_tracking_exp,2021.2.3,84.87751076007592,
0,0,0,0,168,0,0,12,0,0,None,abs,inhibit,pract,0,31,31,29,,,,,,,0.9730790806980855,274.98191786809275,None,274.98191786809275,None,None,1,,,,,,,,,,,,,010,001,1,33,m,2021_Nov_09_1137,eye_tracking_exp,2021.2.3,84.87751076007592,
180,0,90,180,12,0,180,180,12,180,j,present,resp,pract,0,32,32,41,,,,,,,0.8519793987122118,279.18416487596096,None,279.18416487596096,None,j,1,1.2607196827275402,,,,,,,,,,,,010,001,1,33,m,2021_Nov_09_1137,eye_tracking_exp,2021.2.3,84.87751076007592,
180,0,180,12,0,180,180,0,12,180,j,abs,resp,pract,0,33,33,3,,,,,,,1.0941940199126843,281.58324496768637,None,281.58324496768637,None,j,1,1.1816355221071717,,,,,,,,,,,,010,001,1,33,m,2021_Nov_09_1137,eye_tracking_exp,2021.2.3,84.87751076007592,
0,270,0,0,12,0,180,180,180,12,j,present,resp,pract,0,34,34,42,,,,,,,0.9040363968297814,284.06639361606176,None,284.06639361606176,None,j,1,1.1144960426308899,,,,,,,,,,,,010,001,1,33,m,2021_Nov_09_1137,eye_tracking_exp,2021.2.3,84.87751076007592,
180,0,180,12,180,180,12,180,180,180,j,abs,resp,pract,0,35,35,1,,,,,,,0.9095322534576571,286.2800184368025,None,286.2800184368025,None,j,1,1.2060386276280042,,,,,,,,,,,,010,001,1,33,m,2021_Nov_09_1137,eye_tracking_exp,2021.2.3,84.87751076007592,
0,0,180,0,0,0,168,0,180,168,f,abs,resp,pract,0,36,36,15,,,,,,,0.9805806851090415,288.82045307806766,None,288.82045307806766,None,f,1,1.3365795159452318,,,,,,,,,,,,010,001,1,33,m,2021_Nov_09_1137,eye_tracking_exp,2021.2.3,84.87751076007592,
168,0,270,180,180,180,180,168,180,180,f,present,resp,pract,0,37,37,49,,,,,,,1.042510667579709,291.5384741463704,None,291.5384741463704,None,f,1,1.7375561110466151,,,,,,,,,,,,010,001,1,33,m,2021_Nov_09_1137,eye_tracking_exp,2021.2.3,84.87751076007592,
180,180,0,168,180,180,180,180,168,180,f,abs,resp,pract,0,38,38,10,,,,,,,0.7629479847582517,294.3157622280396,None,294.3157622280396,None,f,1,1.0882546901639216,,,,,,,,,,,,010,001,1,33,m,2021_Nov_09_1137,eye_tracking_exp,2021.2.3,84.87751076007592,
0,180,0,180,168,180,12,180,0,180,None,abs,inhibit,pract,0,39,39,28,,,,,,,0.9571283585433277,296.6939210169585,None,296.6939210169585,None,None,1,,,,,,,,,,,,,010,001,1,33,m,2021_Nov_09_1137,eye_tracking_exp,2021.2.3,84.87751076007592,
0,180,0,-168,180,0,180,0,12,180,None,abs,inhibit,pract,0,40,40,24,,,,,,,0.9958283372434178,300.95406254084355,None,300.95406254084355,None,None,1,,,,,,,,,,,,,010,001,1,33,m,2021_Nov_09_1137,eye_tracking_exp,2021.2.3,84.87751076007592,
180,168,0,180,0,180,180,180,168,180,f,abs,resp,pract,0,41,41,12,,,,,,,0.9871691008668055,304.94210850245054,None,304.94210850245054,None,f,1,0.9580920158732624,,,,,,,,,,,,010,001,1,33,m,2021_Nov_09_1137,eye_tracking_exp,2021.2.3,84.87751076007592,
0,180,0,12,0,12,0,180,180,180,j,abs,resp,pract,0,42,42,0,,,,,,,0.8379560298351554,307.08375614522356,None,307.08375614522356,None,j,1,0.8793779194174931,,,,,,,,,,,,010,001,1,33,m,2021_Nov_09_1137,eye_tracking_exp,2021.2.3,84.87751076007592,
180,0,180,0,12,0,12,180,180,180,j,abs,resp,pract,0,43,43,7,,,,,,,0.7594906910593622,309.10768203096995,None,309.10768203096995,None,j,1,1.3834765460442213,,,,,,,,,,,,010,001,1,33,m,2021_Nov_09_1137,eye_tracking_exp,2021.2.3,84.87751076007592,
180,180,168,0,270,0,0,168,0,180,f,present,resp,pract,0,44,44,47,,,,,,,0.7129286826172396,311.53180453971527,None,311.53180453971527,None,f,1,1.2153998021021835,,,,,,,,,,,,010,001,1,33,m,2021_Nov_09_1137,eye_tracking_exp,2021.2.3,84.87751076007592,
180,180,0,168,180,180,180,0,0,168,f,abs,resp,pract,0,45,45,18,,,,,,,1.0648005484873366,314.132435278766,None,314.132435278766,None,f,1,1.0467987502861433,,,,,,,,,,,,010,001,1,33,m,2021_Nov_09_1137,eye_tracking_exp,2021.2.3,84.87751076007592,
180,12,180,-168,180,180,0,180,180,180,None,abs,inhibit,pract,0,46,46,26,,,,,,,0.773725919923831,316.54678127185616,None,316.54678127185616,None,None,1,,,,,,,,,,,,,010,001,1,33,m,2021_Nov_09_1137,eye_tracking_exp,2021.2.3,84.87751076007592,
0,168,180,90,0,180,0,168,0,0,f,present,resp,pract,0,47,47,48,,,,,,,0.7126501519879389,320.2651778375639,None,320.2651778375639,None,f,1,1.3621688793473368,,,,,,,,,,,,010,001,1,33,m,2021_Nov_09_1137,eye_tracking_exp,2021.2.3,84.87751076007592,
0,180,0,0,180,0,180,168,0,168,f,abs,resp,pract,0,48,48,14,,,,,,,1.013139330273026,323.2067656543031,None,323.2067656543031,None,f,1,1.4756644794779277,,,,,,,,,,,,010,001,1,33,m,2021_Nov_09_1137,eye_tracking_exp,2021.2.3,84.87751076007592,
168,0,180,0,0,180,180,0,168,0,f,abs,resp,pract,0,49,49,13,,,,,,,0.8196772546640578,326.03048048877463,None,326.03048048877463,None,f,1,1.084806996136649,,,,,,,,,,,,010,001,1,33,m,2021_Nov_09_1137,eye_tracking_exp,2021.2.3,84.87751076007592,
,,,,,,,,,,,,,,,,,,,,,,,,,,,,,,,,space,7.639977495805397,,,,,,,,,,010,001,1,33,m,2021_Nov_09_1137,eye_tracking_exp,2021.2.3,84.87751076007592,
0,0,-168,0,90,168,0,180,180,180,f,present,resp,freq_top,,,,,0,0,0,872,,,0.771788142898941,,,,,,,,,,337.07796974227404,None,337.07796974227404,None,f,1,2.899616142940431,None,None,010,001,1,33,m,2021_Nov_09_1137,eye_tracking_exp,2021.2.3,84.87751076007592,
0,0,180,0,-168,0,0,0,180,-168,f,abs,resp,freq_top,,,,,0,1,1,325,,,0.8213562829498889,,,,,,,,,,341.1499991397368,None,341.1499991397368,None,f,1,2.427509050113258,None,None,010,001,1,33,m,2021_Nov_09_1137,eye_tracking_exp,2021.2.3,84.87751076007592,
0,0,-168,0,180,180,0,0,180,168,f,abs,resp,freq_top,,,,,0,2,2,397,,,1.0242793817727607,,,,,,,,,,344.97657336884276,None,344.97657336884276,None,f,1,1.4969999160794032,None,None,010,001,1,33,m,2021_Nov_09_1137,eye_tracking_exp,2021.2.3,84.87751076007592,
180,180,-12,0,90,0,0,-12,180,180,j,present,resp,freq_top,,,,,0,3,3,606,,,0.9982641737836575,,,,,,,,,,347.9056408826127,None,347.9056408826127,None,j,1,1.2241702624096433,None,None,010,001,1,33,m,2021_Nov_09_1137,eye_tracking_exp,2021.2.3,84.87751076007592,
0,180,168,0,180,180,180,180,0,12,None,abs,inhibit,freq_top,,,,,0,4,4,474,,,1.0183397348085674,,,,,,,,,,350.4003553944094,None,350.4003553944094,None,None,1,,None,None,010,001,1,33,m,2021_Nov_09_1137,eye_tracking_exp,2021.2.3,84.87751076007592,
-12,0,90,0,0,-12,0,0,0,0,j,present,resp,freq_top,,,,,0,5,5,594,,,0.8233921883949651,,,,,,,,,,354.58965257132695,None,354.58965257132695,None,j,1,1.2110737339189654,None,None,010,001,1,33,m,2021_Nov_09_1137,eye_tracking_exp,2021.2.3,84.87751076007592,
12,180,0,0,0,12,0,180,180,180,j,abs,resp,freq_top,,,,,0,6,6,66,,,0.9750896451896456,,,,,,,,,,357.0722621213372,None,357.0722621213372,None,j,1,1.01639976014485,None,None,010,001,1,33,m,2021_Nov_09_1137,eye_tracking_exp,2021.2.3,84.87751076007592,
0,-168,0,-168,180,180,90,180,180,0,f,present,resp,freq_top,,,,,0,7,7,840,,,0.8226528832975437,,,,,,,,,,359.2621352219285,None,359.2621352219285,None,f,1,1.0346620945856557,None,None,010,001,1,33,m,2021_Nov_09_1137,eye_tracking_exp,2021.2.3,84.87751076007592,
0,270,0,-168,0,0,-168,0,180,0,f,present,resp,freq_top,,,,,0,8,8,808,,,1.0311369825217023,,,,,,,,,,361.79094332856766,None,361.79094332856766,None,f,1,1.27382919062984,None,None,010,001,1,33,m,2021_Nov_09_1137,eye_tracking_exp,2021.2.3,84.87751076007592,
180,0,180,0,180,12,180,180,-12,180,j,abs,resp,freq_top,,,,,0,9,9,155,,,0.9923267420587967,,,,,,,,,,364.36754072441454,None,364.36754072441454,None,j,1,1.577327383623924,None,None,010,001,1,33,m,2021_Nov_09_1137,eye_tracking_exp,2021.2.3,84.87751076007592,
0,270,180,0,0,0,-168,0,180,168,f,present,resp,freq_top,,,,,0,10,10,897,,,0.8503157972979438,,,,,,,,,,367.19129932667056,None,367.19129932667056,None,None,0,,370.17063972503,None,010,001,1,33,m,2021_Nov_09_1137,eye_tracking_exp,2021.2.3,84.87751076007592,
180,180,0,180,-168,180,0,180,-168,180,f,abs,resp,freq_top,,,,,0,11,11,289,,,0.9069100610967152,,,,,,,,,,371.6160511859716,None,371.6160511859716,None,f,1,1.6878467744127192,None,None,010,001,1,33,m,2021_Nov_09_1137,eye_tracking_exp,2021.2.3,84.87751076007592,
168,0,168,0,270,0,0,0,180,180,f,present,resp,freq_top,,,,,0,12,12,769,,,0.7599759309630048,,,,,,,,,,374.4046841792142,None,374.4046841792142,None,f,1,2.2432647884479593,None,None,010,001,1,33,m,2021_Nov_09_1137,eye_tracking_exp,2021.2.3,84.87751076007592,
0,0,90,0,0,0,-12,0,180,12,j,present,resp,freq_top,,,,,0,13,13,687,,,0.7137036811897062,,,,,,,,,,377.68850015047065,None,377.68850015047065,None,j,1,1.7275203089993738,None,None,010,001,1,33,m,2021_Nov_09_1137,eye_tracking_exp,2021.2.3,84.87751076007592,
0,0,180,0,180,-168,0,168,0,0,f,abs,resp,freq_top,,,,,0,14,14,379,,,1.0760102787024945,,,,,,,,,,380.8308462667137,None,380.8308462667137,None,None,0,,383.81996861397147,None,010,001,1,33,m,2021_Nov_09_1137,eye_tracking_exp,2021.2.3,84.87751076007592,
-168,0,-168,180,90,0,180,0,180,180,f,present,resp,freq_top,,,,,0,15,15,847,,,0.7416251360454519,,,,,,,,,,385.0792160676674,None,385.0792160676674,None,f,1,1.3598688068132105,None,None,010,001,1,33,m,2021_Nov_09_1137,eye_tracking_exp,2021.2.3,84.87751076007592,
0,0,0,0,0,12,0,-12,0,0,j,abs,resp,freq_top,,,,,0,16,16,154,,,1.080010836239377,,,,,,,,,,387.89264366171574,None,387.89264366171574,None,j,1,1.8435692311195453,None,None,010,001,1,33,m,2021_Nov_09_1137,eye_tracking_exp,2021.2.3,84.87751076007592,
180,-168,180,180,-168,0,0,0,180,180,f,abs,resp,freq_top,,,,,0,17,17,337,,,0.7514451760499918,,,,,,,,,,390.833079027414,None,390.833079027414,None,f,1,1.7979843290131612,None,None,010,001,1,33,m,2021_Nov_09_1137,eye_tracking_exp,2021.2.3,84.87751076007592,
180,90,180,180,180,180,-12,180,12,0,j,present,resp,freq_top,,,,,0,18,18,665,,,0.8135731790205966,,,,,,,,,,393.95157592699434,None,393.95157592699434,None,j,1,1.351649216896476,None,None,010,001,1,33,m,2021_Nov_09_1137,eye_tracking_exp,2021.2.3,84.87751076007592,
180,180,0,180,-12,180,0,180,12,180,j,abs,resp,freq_top,,,,,0,19,19,149,,,0.8128981840959633,,,,,,,,,,396.49529767979493,None,396.49529767979493,None,j,1,1.1276616940349413,None,None,010,001,1,33,m,2021_Nov_09_1137,eye_tracking_exp,2021.2.3,84.87751076007592,
-12,180,270,0,0,-12,180,180,180,0,j,present,resp,freq_top,,,,,0,20,20,640,,,0.9700991205514555,,,,,,,,,,398.89353531713095,None,398.89353531713095,None,j,1,1.8007622250142958,None,None,010,001,1,33,m,2021_Nov_09_1137,eye_tracking_exp,2021.2.3,84.87751076007592,
168,0,0,180,180,0,168,180,0,180,f,abs,resp,freq_top,,,,,0,21,21,277,,,1.0300257569411797,,,,,,,,,,402.083231233657,None,402.083231233657,None,f,1,1.5070106648436195,None,None,010,001,1,33,m,2021_Nov_09_1137,eye_tracking_exp,2021.2.3,84.87751076007592,
180,180,12,180,168,0,180,90,0,180,None,present,inhibit,freq_top,,,,,0,22,22,935,,,0.9852021324001625,,,,,,,,,,404.95384883331735,None,404.95384883331735,None,f,0,1.756693197482491,406.74292433395294,None,010,001,1,33,m,2021_Nov_09_1137,eye_tracking_exp,2021.2.3,84.87751076007592,
0,0,180,180,180,12,0,0,0,-12,j,abs,resp,freq_top,,,,,0,23,23,156,,,0.8298975070744623,,,,,,,,,,408.10769018083374,None,408.10769018083374,None,j,1,1.1785901898520024,None,None,010,001,1,33,m,2021_Nov_09_1137,eye_tracking_exp,2021.2.3,84.87751076007592,
180,180,180,0,0,180,168,180,12,180,None,abs,inhibit,freq_top,,,,,0,24,24,441,,,0.8281032084570724,,,,,,,,,,410.38978139953724,None,410.38978139953724,None,None,1,,None,None,010,001,1,33,m,2021_Nov_09_1137,eye_tracking_exp,2021.2.3,84.87751076007592,
-12,0,-12,0,0,0,0,0,180,180,j,abs,resp,freq_top,,,,,0,25,25,125,,,0.7710213767450181,,,,,,,,,,414.496778841989,None,414.496778841989,None,j,1,0.9175884026162748,None,None,010,001,1,33,m,2021_Nov_09_1137,eye_tracking_exp,2021.2.3,84.87751076007592,
0,12,0,0,0,90,0,12,0,0,j,present,resp,freq_top,,,,,0,26,26,564,,,0.7633310227592445,,,,,,,,,,416.5218067703636,None,416.5218067703636,None,j,1,2.5077951646489964,None,None,010,001,1,33,m,2021_Nov_09_1137,eye_tracking_exp,2021.2.3,84.87751076007592,
0,12,0,270,180,168,0,0,0,0,None,present,inhibit,freq_top,,,,,0,27,27,1006,,,0.8031821827473982,,,,,,,,,,420.2284035413877,None,420.2284035413877,None,None,1,,None,None,010,001,1,33,m,2021_Nov_09_1137,eye_tracking_exp,2021.2.3,84.87751076007592,
90,0,180,0,0,0,-168,0,180,-168,f,present,resp,freq_top,,,,,0,28,28,827,,,0.9853548955420175,,,,,,,,,,424.5823198072767,None,424.5823198072767,None,f,1,1.8551966712866488,None,None,010,001,1,33,m,2021_Nov_09_1137,eye_tracking_exp,2021.2.3,84.87751076007592,
0,168,0,270,0,-168,180,180,0,0,f,present,resp,freq_top,,,,,0,29,29,912,,,1.0987509883465594,,,,,,,,,,427.888867558383,None,427.888867558383,None,j,0,1.8927186419596183,429.7964882540855,None,010,001,1,33,m,2021_Nov_09_1137,eye_tracking_exp,2021.2.3,84.87751076007592,
0,0,0,-168,0,0,0,0,0,-168,f,abs,resp,freq_top,,,,,0,30,30,284,,,0.7869832123608992,,,,,,,,,,431.12565761096175,None,431.12565761096175,None,f,1,1.8869738938674345,None,None,010,001,1,33,m,2021_Nov_09_1137,eye_tracking_exp,2021.2.3,84.87751076007592,
0,-168,0,0,-168,0,0,270,0,0,f,present,resp,freq_top,,,,,0,31,31,796,,,1.0888413874937424,,,,,,,,,,434.4193113727724,None,434.4193113727724,None,f,1,2.0492775161192185,None,None,010,001,1,33,m,2021_Nov_09_1137,eye_tracking_exp,2021.2.3,84.87751076007592,
180,12,0,270,180,180,0,180,12,180,j,present,resp,freq_top,,,,,0,32,32,544,,,0.8674496198455994,,,,,,,,,,437.6564675655063,None,437.6564675655063,None,j,1,1.5957687132104184,None,None,010,001,1,33,m,2021_Nov_09_1137,eye_tracking_exp,2021.2.3,84.87751076007592,
0,270,180,180,180,-168,0,12,0,0,None,present,inhibit,freq_top,,,,,0,33,33,938,,,1.0552697193027585,,,,,,,,,,440.5851284916507,None,440.5851284916507,None,None,1,,None,None,010,001,1,33,m,2021_Nov_09_1137,eye_tracking_exp,2021.2.3,84.87751076007592,
-12,180,180,0,0,-12,0,0,0,0,j,abs,resp,freq_top,,,,,0,34,34,136,,,0.9707164163030522,,,,,,,,,,444.78652489526667,None,444.78652489526667,None,j,1,1.858834226943145,None,None,010,001,1,33,m,2021_Nov_09_1137,eye_tracking_exp,2021.2.3,84.87751076007592,
168,0,180,0,0,180,180,0,168,0,f,abs,resp,freq_top,,,,,0,35,35,251,,,0.9505855902739402,,,,,,,,,,447.9410610940922,None,447.9410610940922,None,f,1,0.9587455141718237,None,None,010,001,1,33,m,2021_Nov_09_1137,eye_tracking_exp,2021.2.3,84.87751076007592,
0,0,180,180,168,0,0,270,-168,0,f,present,resp,freq_top,,,,,0,36,36,891,,,0.8259217370893266,,,,,,,,,,450.11778454115847,None,450.11778454115847,None,None,0,,453.072690140084,None,010,001,1,33,m,2021_Nov_09_1137,eye_tracking_exp,2021.2.3,84.87751076007592,
0,0,180,0,-12,0,0,0,180,12,j,abs,resp,freq_top,,,,,0,37,37,185,,,0.8267468896740793,,,,,,,,,,454.4488525143388,None,454.4488525143388,None,j,1,1.8429607079924608,None,None,010,001,1,33,m,2021_Nov_09_1137,eye_tracking_exp,2021.2.3,84.87751076007592,
0,180,0,12,0,180,180,12,0,0,j,abs,resp,freq_top,,,,,0,38,38,2,,,0.9676100621823676,,,,,,,,,,457.59176821547317,None,457.59176821547317,None,j,1,1.0201613748322416,None,None,010,001,1,33,m,2021_Nov_09_1137,eye_tracking_exp,2021.2.3,84.87751076007592,
12,0,180,180,90,180,-12,180,180,180,j,present,resp,freq_top,,,,,0,39,39,671,,,0.8594067432477768,,,,,,,,,,459.6154982026537,None,459.6154982026537,None,j,1,1.6524609734669866,None,None,010,001,1,33,m,2021_Nov_09_1137,eye_tracking_exp,2021.2.3,84.87751076007592,
-168,0,270,180,180,180,168,180,0,180,f,present,resp,freq_top,,,,,0,40,40,921,,,0.9332460249742164,,,,,,,,,,462.28665363292293,None,462.28665363292293,None,f,1,2.245647567002379,None,None,010,001,1,33,m,2021_Nov_09_1137,eye_tracking_exp,2021.2.3,84.87751076007592,
180,12,180,0,180,12,0,180,0,180,j,abs,resp,freq_top,,,,,0,41,41,19,,,0.9169510888522978,,,,,,,,,,465.77004466426934,None,465.77004466426934,None,j,1,2.5210788381482416,None,None,010,001,1,33,m,2021_Nov_09_1137,eye_tracking_exp,2021.2.3,84.87751076007592,
180,180,12,180,168,180,0,180,0,180,None,abs,inhibit,freq_top,,,,,0,42,42,431,,,1.0247185061939876,,,,,,,,,,477.20878048162103,None,477.20878048162103,None,None,1,,None,None,010,001,1,33,m,2021_Nov_09_1137,eye_tracking_exp,2021.2.3,84.87751076007592,
180,180,90,0,180,-168,180,0,0,168,f,present,resp,freq_top,,,,,0,43,43,898,,,0.7377378109626397,,,,,,,,,,481.2556494399687,None,481.2556494399687,None,f,1,1.2585841166937826,None,None,010,001,1,33,m,2021_Nov_09_1137,eye_tracking_exp,2021.2.3,84.87751076007592,
0,12,0,0,0,0,-12,0,0,0,j,abs,resp,freq_top,,,,,0,44,44,166,,,0.8042471969905188,,,,,,,,,,483.6567298703658,None,483.6567298703658,None,j,1,1.5295148522136515,None,None,010,001,1,33,m,2021_Nov_09_1137,eye_tracking_exp,2021.2.3,84.87751076007592,
0,90,180,-12,180,0,180,12,0,0,j,present,resp,freq_top,,,,,0,45,45,675,,,0.7703629888539151,,,,,,,,,,486.2809861576079,None,486.2809861576079,None,j,1,1.4652649520485284,None,None,010,001,1,33,m,2021_Nov_09_1137,eye_tracking_exp,2021.2.3,84.87751076007592,
270,180,0,0,0,12,180,180,168,180,None,present,inhibit,freq_top,,,,,0,46,46,960,,,0.8389818565696646,,,,,,,,,,488.90474651057593,None,488.90474651057593,None,None,1,,None,None,010,001,1,33,m,2021_Nov_09_1137,eye_tracking_exp,2021.2.3,84.87751076007592,
90,0,-12,180,180,180,180,0,180,12,j,present,resp,freq_top,,,,,0,47,47,691,,,0.732980669515045,,,,,,,,,,492.90735205206056,None,492.90735205206056,None,j,1,1.2709652682933665,None,None,010,001,1,33,m,2021_Nov_09_1137,eye_tracking_exp,2021.2.3,84.87751076007592,
90,0,0,180,180,180,-168,0,0,168,f,present,resp,freq_top,,,,,0,48,48,876,,,0.7002171491016916,,,,,,,,,,495.2242957084327,None,495.2242957084327,None,f,1,1.6410264133974124,None,None,010,001,1,33,m,2021_Nov_09_1137,eye_tracking_exp,2021.2.3,84.87751076007592,
180,180,180,-168,180,180,12,180,0,180,None,abs,inhibit,freq_top,,,,,0,49,49,421,,,0.8615051581479641,,,,,,,,,,498.0723855766737,None,498.0723855766737,None,None,1,,None,None,010,001,1,33,m,2021_Nov_09_1137,eye_tracking_exp,2021.2.3,84.87751076007592,
180,180,0,12,0,180,0,0,-12,180,j,abs,resp,freq_top,,,,,0,50,50,178,,,0.9945851010411609,,,,,,,,,,502.3696717627463,None,502.3696717627463,None,j,1,0.9756739876511347,None,None,010,001,1,33,m,2021_Nov_09_1137,eye_tracking_exp,2021.2.3,84.87751076007592,
0,180,0,0,180,0,180,168,0,168,f,abs,resp,freq_top,,,,,0,51,51,252,,,0.7025034065603265,,,,,,,,,,504.52140108827825,None,504.52140108827825,None,None,0,,507.499110910283,None,010,001,1,33,m,2021_Nov_09_1137,eye_tracking_exp,2021.2.3,84.87751076007592,
180,0,12,180,180,0,-12,180,0,180,j,abs,resp,freq_top,,,,,0,52,52,165,,,0.9576314456564078,,,,,,,,,,508.99319758075853,None,508.99319758075853,None,j,1,1.519313034431434,None,None,010,001,1,33,m,2021_Nov_09_1137,eye_tracking_exp,2021.2.3,84.87751076007592,
90,0,168,0,12,0,0,180,180,180,None,present,inhibit,freq_top,,,,,0,53,53,973,,,0.730233116581179,,,,,,,,,,511.5583586054563,None,511.5583586054563,None,None,1,,None,None,010,001,1,33,m,2021_Nov_09_1137,eye_tracking_exp,2021.2.3,84.87751076007592,
180,0,180,0,12,0,12,180,180,180,j,abs,resp,freq_top,,,,,0,54,54,7,,,1.012753234608672,,,,,,,,,,515.8891183930646,None,515.8891183930646,None,j,1,0.9434255822325213,None,None,010,001,1,33,m,2021_Nov_09_1137,eye_tracking_exp,2021.2.3,84.87751076007592,
168,0,0,180,270,180,168,180,180,180,f,present,resp,freq_top,,,,,0,55,55,781,,,1.0161118570934127,,,,,,,,,,518.432681072607,None,518.432681072607,None,f,1,1.3118636971512387,None,None,010,001,1,33,m,2021_Nov_09_1137,eye_tracking_exp,2021.2.3,84.87751076007592,
180,-168,180,-168,180,180,90,0,0,180,f,present,resp,freq_top,,,,,0,56,56,789,,,0.7852967771963896,,,,,,,,,,520.8086572073926,None,520.8086572073926,None,j,0,1.7199844020606179,522.5411847305368,None,010,001,1,33,m,2021_Nov_09_1137,eye_tracking_exp,2021.2.3,84.87751076007592,
90,180,0,0,0,-168,180,0,-168,180,f,present,resp,freq_top,,,,,0,57,57,820,,,0.8657525181544093,,,,,,,,,,523.9399967823138,None,523.9399967823138,None,f,1,1.389216766435311,None,None,010,001,1,33,m,2021_Nov_09_1137,eye_tracking_exp,2021.2.3,84.87751076007592,
0,-168,0,0,270,0,180,180,180,-168,f,present,resp,freq_top,,,,,0,58,58,846,,,0.7772568205629349,,,,,,,,,,526.1530710345105,None,526.1530710345105,None,f,1,0.9825995603823685,None,None,010,001,1,33,m,2021_Nov_09_1137,eye_tracking_exp,2021.2.3,84.87751076007592,
90,0,180,0,180,180,12,0,180,-168,None,present,inhibit,freq_top,,,,,0,59,59,967,,,1.064269289008728,,,,,,,,,,528.5276508260495,None,528.5276508260495,None,None,1,,None,None,010,001,1,33,m,2021_Nov_09_1137,eye_tracking_exp,2021.2.3,84.87751076007592,
12,0,180,0,0,180,180,180,168,0,None,abs,inhibit,freq_top,,,,,0,60,60,461,,,0.7628504112978696,,,,,,,,,,532.364250292565,None,532.364250292565,None,None,1,,None,None,010,001,1,33,m,2021_Nov_09_1137,eye_tracking_exp,2021.2.3,84.87751076007592,
12,0,270,180,12,0,180,0,180,180,j,present,resp,freq_top,,,,,0,61,61,569,,,0.9696289285402904,,,,,,,,,,536.6826530763174,None,536.6826530763174,None,j,1,1.8450657875000616,None,None,010,001,1,33,m,2021_Nov_09_1137,eye_tracking_exp,2021.2.3,84.87751076007592,
0,0,180,180,168,0,0,0,-168,0,f,abs,resp,freq_top,,,,,0,62,62,387,,,0.7979906497100082,,,,,,,,,,539.6491571381184,None,539.6491571381184,None,f,1,1.1022691347397995,None,None,010,001,1,33,m,2021_Nov_09_1137,eye_tracking_exp,2021.2.3,84.87751076007592,
90,180,180,-12,0,12,180,0,180,180,j,present,resp,freq_top,,,,,0,63,63,661,,,0.8527067524540488,,,,,,,,,,541.8956225876782,None,541.8956225876782,None,j,1,1.3032248420440737,None,None,010,001,1,33,m,2021_Nov_09_1137,eye_tracking_exp,2021.2.3,84.87751076007592,
0,270,0,0,-12,0,0,12,0,0,j,present,resp,freq_top,,,,,0,64,64,652,,,0.7938122789867488,,,,,,,,,,544.4843023068042,None,544.4843023068042,None,j,1,1.5144813728757072,None,None,010,001,1,33,m,2021_Nov_09_1137,eye_tracking_exp,2021.2.3,84.87751076007592,
0,0,0,180,180,0,-168,0,-168,0,f,abs,resp,freq_top,,,,,0,65,65,315,,,1.0542712098368618,,,,,,,,,,547.3082610334814,None,547.3082610334814,None,f,1,1.0906075858856639,None,None,010,001,1,33,m,2021_Nov_09_1137,eye_tracking_exp,2021.2.3,84.87751076007592,
0,180,168,0,180,0,180,12,180,180,None,abs,inhibit,freq_top,,,,,0,66,66,472,,,0.8155883654400974,,,,,,,,,,549.6028776865496,None,549.6028776865496,None,None,1,,None,None,010,001,1,33,m,2021_Nov_09_1137,eye_tracking_exp,2021.2.3,84.87751076007592,
180,168,180,270,180,168,180,180,180,180,f,present,resp,freq_top,,,,,0,67,67,733,,,0.7620851027876727,,,,,,,,,,553.6767969467592,None,553.6767969467592,None,f,1,1.3141978783714876,None,None,010,001,1,33,m,2021_Nov_09_1137,eye_tracking_exp,2021.2.3,84.87751076007592,
0,180,-12,180,180,270,180,12,180,180,j,present,resp,freq_top,,,,,0,68,68,696,,,0.7012434430258553,,,,,,,,,,556.017337174032,None,556.017337174032,None,j,1,1.1327420773450285,None,None,010,001,1,33,m,2021_Nov_09_1137,eye_tracking_exp,2021.2.3,84.87751076007592,
-12,180,270,0,-12,180,0,180,0,180,j,present,resp,freq_top,,,,,0,69,69,587,,,0.8183174030218707,,,,,,,,,,558.3136985015426,None,558.3136985015426,None,j,1,2.1163602484002695,None,None,010,001,1,33,m,2021_Nov_09_1137,eye_tracking_exp,2021.2.3,84.87751076007592,
0,180,0,180,180,180,168,180,168,180,f,abs,resp,freq_top,,,,,0,70,70,231,,,0.8918371769667555,,,,,,,,,,561.6420652478055,None,561.6420652478055,None,f,1,1.2840346305729327,None,None,010,001,1,33,m,2021_Nov_09_1137,eye_tracking_exp,2021.2.3,84.87751076007592,
270,0,-12,0,0,0,0,0,-12,0,j,present,resp,freq_top,,,,,0,71,71,627,,,0.7474239136262408,,,,,,,,,,564.0541066406595,None,564.0541066406595,None,j,1,1.192027503366262,None,None,010,001,1,33,m,2021_Nov_09_1137,eye_tracking_exp,2021.2.3,84.87751076007592,
12,180,180,0,168,0,180,0,180,180,None,abs,inhibit,freq_top,,,,,0,72,72,433,,,0.848373130799161,,,,,,,,,,566.1604747325564,None,566.1604747325564,None,None,1,,None,None,010,001,1,33,m,2021_Nov_09_1137,eye_tracking_exp,2021.2.3,84.87751076007592,
0,0,168,0,90,0,0,0,168,0,f,present,resp,freq_top,,,,,0,73,73,753,,,0.8760299329575136,,,,,,,,,,570.3390524244487,None,570.3390524244487,None,f,1,0.9710735407370521,None,None,010,001,1,33,m,2021_Nov_09_1137,eye_tracking_exp,2021.2.3,84.87751076007592,
0,0,-12,0,0,0,0,0,180,12,j,abs,resp,freq_top,,,,,0,74,74,187,,,1.0045583109098346,,,,,,,,,,572.6459047389644,None,572.6459047389644,None,j,1,0.9513840746767528,None,None,010,001,1,33,m,2021_Nov_09_1137,eye_tracking_exp,2021.2.3,84.87751076007592,
0,0,180,0,-168,0,0,0,-168,0,f,abs,resp,freq_top,,,,,0,75,75,317,,,0.8772393754056592,,,,,,,,,,574.8102035684933,None,574.8102035684933,None,f,1,1.4750109811784569,None,None,010,001,1,33,m,2021_Nov_09_1137,eye_tracking_exp,2021.2.3,84.87751076007592,
0,12,0,0,0,-12,0,180,0,0,j,abs,resp,freq_top,,,,,0,76,76,198,,,0.7109427920068059,,,,,,,,,,577.3046965247477,None,577.3046965247477,None,j,1,1.876547200227833,None,None,010,001,1,33,m,2021_Nov_09_1137,eye_tracking_exp,2021.2.3,84.87751076007592,
180,180,0,180,180,180,180,-168,0,168,f,abs,resp,freq_top,,,,,0,77,77,392,,,1.0268287683195005,,,,,,,,,,580.5056800019565,None,580.5056800019565,None,f,1,1.0116106589875926,None,None,010,001,1,33,m,2021_Nov_09_1137,eye_tracking_exp,2021.2.3,84.87751076007592,
180,180,180,180,168,180,180,180,168,180,f,abs,resp,freq_top,,,,,0,78,78,219,,,0.7049692824199275,,,,,,,,,,582.8602769323552,None,582.8602769323552,None,f,1,1.2330847036346313,None,None,010,001,1,33,m,2021_Nov_09_1137,eye_tracking_exp,2021.2.3,84.87751076007592,
0,12,180,90,180,0,180,-168,0,0,None,present,inhibit,freq_top,,,,,0,79,79,957,,,1.063086141514889,,,,,,,,,,585.2242700514562,None,585.2242700514562,None,None,1,,None,None,010,001,1,33,m,2021_Nov_09_1137,eye_tracking_exp,2021.2.3,84.87751076007592,
0,-168,0,0,0,12,0,180,0,0,None,abs,inhibit,freq_top,,,,,0,80,80,478,,,0.816813406853268,,,,,,,,,,589.3554366681674,None,589.3554366681674,None,None,1,,None,None,010,001,1,33,m,2021_Nov_09_1137,eye_tracking_exp,2021.2.3,84.87751076007592,
-168,180,0,180,-168,180,180,180,180,180,f,abs,resp,freq_top,,,,,0,81,81,293,,,0.9297721792135389,,,,,,,,,,593.5333400343325,None,593.5333400343325,None,f,1,1.407993145958244,None,None,010,001,1,33,m,2021_Nov_09_1137,eye_tracking_exp,2021.2.3,84.87751076007592,
270,180,0,-12,180,180,0,180,0,-12,j,present,resp,freq_top,,,,,0,82,82,620,,,0.7505665250814014,,,,,,,,,,595.9688744646373,None,595.9688744646373,None,j,1,1.8041685660309668,None,None,010,001,1,33,m,2021_Nov_09_1137,eye_tracking_exp,2021.2.3,84.87751076007592,
0,0,0,180,0,-168,0,-168,0,0,f,abs,resp,freq_top,,,,,0,83,83,309,,,0.984434247782564,,,,,,,,,,602.3457431603783,None,602.3457431603783,None,f,1,1.3627758932407232,None,None,010,001,1,33,m,2021_Nov_09_1137,eye_tracking_exp,2021.2.3,84.87751076007592,
180,180,12,180,180,180,0,-168,180,180,None,abs,inhibit,freq_top,,,,,0,84,84,452,,,1.0457674623013857,,,,,,,,,,605.030449398555,None,605.030449398555,None,None,1,,None,None,010,001,1,33,m,2021_Nov_09_1137,eye_tracking_exp,2021.2.3,84.87751076007592,
180,-12,0,180,180,0,180,180,-12,180,j,abs,resp,freq_top,,,,,0,85,85,110,,,0.9174202681679077,,,,,,,,,,608.9829109440288,None,608.9829109440288,None,j,1,0.6607258404019376,609.6671203423912,None,010,001,1,33,m,2021_Nov_09_1137,eye_tracking_exp,2021.2.3,84.87751076007592,
0,-168,0,0,180,180,180,180,0,12,None,abs,inhibit,freq_top,,,,,0,86,86,482,,,0.8944988388017114,,,,,,,,,,611.0896451760809,None,611.0896451760809,None,None,1,,None,None,010,001,1,33,m,2021_Nov_09_1137,eye_tracking_exp,2021.2.3,84.87751076007592,
180,180,0,180,12,180,168,180,0,180,None,abs,inhibit,freq_top,,,,,0,87,87,443,,,0.8590469027586658,,,,,,,,,,615.2554846316216,None,615.2554846316216,None,None,1,,None,None,010,001,1,33,m,2021_Nov_09_1137,eye_tracking_exp,2021.2.3,84.87751076007592,
270,0,0,12,180,0,180,-168,0,0,None,present,inhibit,freq_top,,,,,0,88,88,955,,,0.716458707316385,,,,,,,,,,619.2916241440007,None,619.2916241440007,None,None,1,,None,None,010,001,1,33,m,2021_Nov_09_1137,eye_tracking_exp,2021.2.3,84.87751076007592,
180,168,180,0,180,168,180,0,180,180,f,abs,resp,freq_top,,,,,0,89,89,229,,,0.782486172244184,,,,,,,,,,623.081651065716,None,623.081651065716,None,f,1,1.713117689451792,None,None,010,001,1,33,m,2021_Nov_09_1137,eye_tracking_exp,2021.2.3,84.87751076007592,
-168,0,0,168,0,0,0,0,0,0,f,abs,resp,freq_top,,,,,0,90,90,356,,,0.9242310362115114,,,,,,,,,,625.9868998493484,None,625.9868998493484,None,f,1,1.8966939641741192,None,None,010,001,1,33,m,2021_Nov_09_1137,eye_tracking_exp,2021.2.3,84.87751076007592,
270,0,180,-168,180,180,180,-168,0,0,f,present,resp,freq_top,,,,,0,91,91,815,,,0.8089870398534575,,,,,,,,,,629.023091279375,None,629.023091279375,None,f,1,1.2277417136192526,None,None,010,001,1,33,m,2021_Nov_09_1137,eye_tracking_exp,2021.2.3,84.87751076007592,
0,0,-12,0,0,-12,180,180,180,180,j,abs,resp,freq_top,,,,,0,92,92,88,,,1.074475755670241,,,,,,,,,,631.4001377628747,None,631.4001377628747,None,j,1,0.8827866752071714,None,None,010,001,1,33,m,2021_Nov_09_1137,eye_tracking_exp,2021.2.3,84.87751076007592,
0,0,-12,180,0,0,180,12,0,180,j,abs,resp,freq_top,,,,,0,93,93,192,,,0.957526062579291,,,,,,,,,,633.4599348192041,None,633.4599348192041,None,j,1,1.4466805470838153,None,None,010,001,1,33,m,2021_Nov_09_1137,eye_tracking_exp,2021.2.3,84.87751076007592,
-12,0,90,180,180,180,0,-12,180,180,j,present,resp,freq_top,,,,,0,94,94,608,,,0.9305483428322487,,,,,,,,,,636.1075428796003,None,636.1075428796003,None,j,1,1.8227825519807084,None,None,010,001,1,33,m,2021_Nov_09_1137,eye_tracking_exp,2021.2.3,84.87751076007592,
180,-12,180,180,270,180,180,180,0,12,j,present,resp,freq_top,,,,,0,95,95,692,,,0.8605841095150266,,,,,,,,,,639.1558498360519,None,639.1558498360519,None,j,1,1.9261297612110866,None,None,010,001,1,33,m,2021_Nov_09_1137,eye_tracking_exp,2021.2.3,84.87751076007592,
12,0,-12,0,0,0,180,180,180,0,j,abs,resp,freq_top,,,,,0,96,96,195,,,0.7403741053251403,,,,,,,,,,642.1338017391809,None,642.1338017391809,None,j,1,1.1721801714356843,None,None,010,001,1,33,m,2021_Nov_09_1137,eye_tracking_exp,2021.2.3,84.87751076007592,
0,168,0,0,0,0,0,168,0,0,f,abs,resp,freq_top,,,,,0,97,97,270,,,1.0068807350698767,,,,,,,,,,644.6284954235498,None,644.6284954235498,None,f,1,1.301564081009019,None,None,010,001,1,33,m,2021_Nov_09_1137,eye_tracking_exp,2021.2.3,84.87751076007592,
0,0,180,-168,180,180,180,-168,0,0,f,abs,resp,freq_top,,,,,0,98,98,311,,,0.8360921852925903,,,,,,,,,,647.1113968594054,None,647.1113968594054,None,f,1,0.883174246485396,None,None,010,001,1,33,m,2021_Nov_09_1137,eye_tracking_exp,2021.2.3,84.87751076007592,
0,-12,0,90,0,0,0,-12,0,0,j,present,resp,freq_top,,,,,0,99,99,634,,,0.7280605814641585,,,,,,,,,,648.7804692449818,None,648.7804692449818,None,j,1,1.8047155124122582,None,None,010,001,1,33,m,2021_Nov_09_1137,eye_tracking_exp,2021.2.3,84.87751076007592,
0,0,0,270,0,0,12,0,0,12,j,present,resp,freq_top,,,,,0,100,100,526,,,0.8593407001188398,,,,,,,,,,651.7809863085313,None,651.7809863085313,None,j,1,1.4761779208665757,None,None,010,001,1,33,m,2021_Nov_09_1137,eye_tracking_exp,2021.2.3,84.87751076007592,
90,180,180,0,180,168,0,180,-168,180,f,present,resp,freq_top,,,,,0,101,101,869,,,0.9838149678097793,,,,,,,,,,654.3112136987738,None,654.3112136987738,None,None,0,,657.2882425544212,None,010,001,1,33,m,2021_Nov_09_1137,eye_tracking_exp,2021.2.3,84.87751076007592,
-12,180,180,-12,0,180,180,180,0,0,j,abs,resp,freq_top,,,,,0,102,102,134,,,0.8331941414700894,,,,,,,,,,658.641218265715,None,658.641218265715,None,j,1,1.1119261190669931,None,None,010,001,1,33,m,2021_Nov_09_1137,eye_tracking_exp,2021.2.3,84.87751076007592,
-12,0,270,0,0,12,0,0,0,0,j,present,resp,freq_top,,,,,0,103,103,664,,,1.0793618166199297,,,,,,,,,,660.902230013894,None,660.902230013894,None,j,1,1.13895800827504,None,None,010,001,1,33,m,2021_Nov_09_1137,eye_tracking_exp,2021.2.3,84.87751076007592,
168,0,0,0,0,168,0,0,0,0,f,abs,resp,freq_top,,,,,0,104,104,230,,,1.078511909080216,,,,,,,,,,663.501853792056,None,663.501853792056,None,f,1,1.2584597558161477,None,None,010,001,1,33,m,2021_Nov_09_1137,eye_tracking_exp,2021.2.3,84.87751076007592,
0,0,0,12,0,0,12,0,180,0,j,abs,resp,freq_top,,,,,0,105,105,24,,,0.7470680672181227,,,,,,,,,,665.866017454593,None,665.866017454593,None,j,1,1.4542955378819897,None,None,010,001,1,33,m,2021_Nov_09_1137,eye_tracking_exp,2021.2.3,84.87751076007592,
180,168,0,270,180,0,180,0,168,180,f,present,resp,freq_top,,,,,0,106,106,754,,,0.7762848324402116,,,,,,,,,,668.526071261801,None,668.526071261801,None,f,1,1.2101989819238952,None,None,010,001,1,33,m,2021_Nov_09_1137,eye_tracking_exp,2021.2.3,84.87751076007592,
12,0,12,0,0,0,0,0,180,180,j,abs,resp,freq_top,,,,,0,107,107,55,,,1.0902353050005307,,,,,,,,,,671.1380466105775,None,671.1380466105775,None,j,1,0.8862588188239897,None,None,010,001,1,33,m,2021_Nov_09_1137,eye_tracking_exp,2021.2.3,84.87751076007592,
0,270,180,180,-168,0,0,180,-168,0,f,present,resp,freq_top,,,,,0,108,108,821,,,0.7849709608545344,,,,,,,,,,673.1500516610786,None,673.1500516610786,None,f,1,1.3383447159685602,None,None,010,001,1,33,m,2021_Nov_09_1137,eye_tracking_exp,2021.2.3,84.87751076007592,
0,0,12,0,12,0,180,180,180,0,j,abs,resp,freq_top,,,,,0,109,109,49,,,1.0700756243894887,,,,,,,,,,676.1857224053929,None,676.1857224053929,None,j,1,0.9587017463882148,None,None,010,001,1,33,m,2021_Nov_09_1137,eye_tracking_exp,2021.2.3,84.87751076007592,
180,180,180,12,0,180,0,180,-12,180,j,abs,resp,freq_top,,,,,0,110,110,143,,,0.7649535226642068,,,,,,,,,,678.2697432702507,None,678.2697432702507,None,None,0,,681.2576316678333,None,010,001,1,33,m,2021_Nov_09_1137,eye_tracking_exp,2021.2.3,84.87751076007592,
0,90,0,0,0,-12,0,-12,0,0,j,present,resp,freq_top,,,,,0,111,111,588,,,0.9823259527645387,,,,,,,,,,682.7652211525783,None,682.7652211525783,None,j,1,0.9062009306471737,None,None,010,001,1,33,m,2021_Nov_09_1137,eye_tracking_exp,2021.2.3,84.87751076007592,
0,90,0,0,0,-12,0,0,0,-12,j,present,resp,freq_top,,,,,0,112,112,590,,,1.0577957179903223,,,,,,,,,,685.0695518390166,None,685.0695518390166,None,j,1,1.0019778224032052,None,None,010,001,1,33,m,2021_Nov_09_1137,eye_tracking_exp,2021.2.3,84.87751076007592,
0,-168,180,180,0,180,0,-168,0,0,f,abs,resp,freq_top,,,,,0,113,113,313,,,0.9957492649600992,,,,,,,,,,687.4111041585738,None,687.4111041585738,None,f,1,0.8683750002564921,None,None,010,001,1,33,m,2021_Nov_09_1137,eye_tracking_exp,2021.2.3,84.87751076007592,
0,0,-12,0,90,0,0,0,180,-12,j,present,resp,freq_top,,,,,0,114,114,621,,,1.0270112172816117,,,,,,,,,,689.6704479013952,None,689.6704479013952,None,j,1,0.9931128840516976,None,None,010,001,1,33,m,2021_Nov_09_1137,eye_tracking_exp,2021.2.3,84.87751076007592,
180,0,270,180,-12,180,0,180,-12,180,j,present,resp,freq_top,,,,,0,115,115,614,,,0.8080714913578271,,,,,,,,,,691.8716954945448,None,691.8716954945448,None,j,1,0.9038371684400772,None,None,010,001,1,33,m,2021_Nov_09_1137,eye_tracking_exp,2021.2.3,84.87751076007592,
0,0,180,-12,180,180,180,12,0,0,j,abs,resp,freq_top,,,,,0,116,116,171,,,0.7794606322038167,,,,,,,,,,693.6715324369088,None,693.6715324369088,None,j,1,1.664011744549498,None,None,010,001,1,33,m,2021_Nov_09_1137,eye_tracking_exp,2021.2.3,84.87751076007592,
0,-168,0,0,270,-168,180,0,0,0,f,present,resp,freq_top,,,,,0,117,117,842,,,0.7985625099340253,,,,,,,,,,696.4259450596592,None,696.4259450596592,None,f,1,0.9408870507350002,None,None,010,001,1,33,m,2021_Nov_09_1137,eye_tracking_exp,2021.2.3,84.87751076007592,
-12,0,12,180,90,180,180,0,180,180,j,present,resp,freq_top,,,,,0,118,118,707,,,0.7682366177832556,,,,,,,,,,698.5332823815952,None,698.5332823815952,None,j,1,0.9933576817975336,None,None,010,001,1,33,m,2021_Nov_09_1137,eye_tracking_exp,2021.2.3,84.87751076007592,
0,0,0,0,0,0,-168,0,180,-168,f,abs,resp,freq_top,,,,,0,119,119,323,,,1.080037411000107,,,,,,,,,,700.9444429855184,None,700.9444429855184,None,f,1,1.126226714400218,None,None,010,001,1,33,m,2021_Nov_09_1137,eye_tracking_exp,2021.2.3,84.87751076007592,
0,0,0,-168,0,-168,0,0,0,0,f,abs,resp,freq_top,,,,,0,120,120,280,,,1.0729961242615542,,,,,,,,,,703.5094633496119,None,703.5094633496119,None,f,1,0.8012530278938357,None,None,010,001,1,33,m,2021_Nov_09_1137,eye_tracking_exp,2021.2.3,84.87751076007592,
12,0,270,180,0,180,168,180,0,0,None,present,inhibit,freq_top,,,,,0,121,121,951,,,1.0748863362717849,,,,,,,,,,705.7577522556257,None,705.7577522556257,None,None,1,,None,None,010,001,1,33,m,2021_Nov_09_1137,eye_tracking_exp,2021.2.3,84.87751076007592,
270,180,12,180,180,180,0,0,0,12,j,present,resp,freq_top,,,,,0,122,122,558,,,0.8559612465287085,,,,,,,,,,709.6283828346977,None,709.6283828346977,None,j,1,1.1943387442315725,None,None,010,001,1,33,m,2021_Nov_09_1137,eye_tracking_exp,2021.2.3,84.87751076007592,
12,0,-12,0,270,0,0,0,180,180,j,present,resp,freq_top,,,,,0,123,123,699,,,0.812554817942373,,,,,,,,,,712.265785153304,None,712.265785153304,None,j,1,0.9400427852660869,None,None,010,001,1,33,m,2021_Nov_09_1137,eye_tracking_exp,2021.2.3,84.87751076007592,
180,-12,180,180,-12,0,90,0,180,0,j,present,resp,freq_top,,,,,0,124,124,631,,,1.039994696006796,,,,,,,,,,714.6058424257135,None,714.6058424257135,None,j,1,1.8159768124241964,None,None,010,001,1,33,m,2021_Nov_09_1137,eye_tracking_exp,2021.2.3,84.87751076007592,
0,180,-12,180,0,-12,180,0,180,0,j,abs,resp,freq_top,,,,,0,125,125,120,,,0.7372943817246216,,,,,,,,,,722.1478026006516,None,722.1478026006516,None,j,1,1.266215407218624,None,None,010,001,1,33,m,2021_Nov_09_1137,eye_tracking_exp,2021.2.3,84.87751076007592,
180,0,0,180,180,12,180,180,0,12,j,abs,resp,freq_top,,,,,0,126,126,44,,,0.8991503470047854,,,,,,,,,,724.642431991655,None,724.642431991655,None,j,1,1.1567062976337183,None,None,010,001,1,33,m,2021_Nov_09_1137,eye_tracking_exp,2021.2.3,84.87751076007592,
180,0,180,-12,180,-12,180,0,180,0,j,abs,resp,freq_top,,,,,0,127,127,87,,,0.9582319676487723,,,,,,,,,,727.0545319427856,None,727.0545319427856,None,j,1,0.951406713185861,None,None,010,001,1,33,m,2021_Nov_09_1137,eye_tracking_exp,2021.2.3,84.87751076007592,
90,0,180,0,-12,0,0,0,180,12,j,present,resp,freq_top,,,,,0,128,128,689,,,0.8065222265652947,,,,,,,,,,729.1258040066541,None,729.1258040066541,None,j,1,1.0871212554693557,None,None,010,001,1,33,m,2021_Nov_09_1137,eye_tracking_exp,2021.2.3,84.87751076007592,
0,12,0,0,168,0,180,180,180,180,None,abs,inhibit,freq_top,,,,,0,129,129,432,,,1.0755178083076349,,,,,,,,,,731.550663021565,None,731.550663021565,None,None,1,,None,None,010,001,1,33,m,2021_Nov_09_1137,eye_tracking_exp,2021.2.3,84.87751076007592,
0,-168,0,90,0,12,180,0,0,0,None,present,inhibit,freq_top,,,,,0,130,130,982,,,0.8581551163321012,,,,,,,,,,735.4682051193822,None,735.4682051193822,None,None,1,,None,None,010,001,1,33,m,2021_Nov_09_1137,eye_tracking_exp,2021.2.3,84.87751076007592,
180,0,0,180,180,12,0,180,0,12,j,abs,resp,freq_top,,,,,0,131,131,16,,,0.8745150687651236,,,,,,,,,,739.7172561885382,None,739.7172561885382,None,j,1,1.0238674497104512,None,None,010,001,1,33,m,2021_Nov_09_1137,eye_tracking_exp,2021.2.3,84.87751076007592,
180,180,12,180,180,180,12,180,0,180,j,abs,resp,freq_top,,,,,0,132,132,25,,,1.0265766287486693,,,,,,,,,,742.0809984729576,None,742.0809984729576,None,j,1,1.3321731565165464,None,None,010,001,1,33,m,2021_Nov_09_1137,eye_tracking_exp,2021.2.3,84.87751076007592,
180,90,0,0,12,0,0,-168,180,180,None,present,inhibit,freq_top,,,,,0,133,133,954,,,1.0680137383367483,,,,,,,,,,744.75209806157,None,744.75209806157,None,None,1,,None,None,010,001,1,33,m,2021_Nov_09_1137,eye_tracking_exp,2021.2.3,84.87751076007592,
180,0,168,0,0,0,12,0,0,0,None,abs,inhibit,freq_top,,,,,0,134,134,471,,,1.0912609446473969,,,,,,,,,,749.106189398598,None,749.106189398598,None,None,1,,None,None,010,001,1,33,m,2021_Nov_09_1137,eye_tracking_exp,2021.2.3,84.87751076007592,
168,0,168,0,0,0,0,0,180,180,f,abs,resp,freq_top,,,,,0,135,135,265,,,0.9016471298510282,,,,,,,,,,753.3558393317835,None,753.3558393317835,None,f,1,0.9364945762590651,None,None,010,001,1,33,m,2021_Nov_09_1137,eye_tracking_exp,2021.2.3,84.87751076007592,
168,0,180,0,0,0,0,270,-168,0,f,present,resp,freq_top,,,,,0,136,136,895,,,0.7914519940593274,,,,,,,,,,755.4033696364468,None,755.4033696364468,None,f,1,2.8889199001177985,None,None,010,001,1,33,m,2021_Nov_09_1137,eye_tracking_exp,2021.2.3,84.87751076007592,
0,0,270,180,12,180,180,180,-12,0,j,present,resp,freq_top,,,,,0,137,137,681,,,1.0729581320041233,,,,,,,,,,759.7097474478105,None,759.7097474478105,None,j,1,1.0153882715549116,None,None,010,001,1,33,m,2021_Nov_09_1137,eye_tracking_exp,2021.2.3,84.87751076007592,
-168,0,0,180,0,180,168,180,180,180,f,abs,resp,freq_top,,,,,0,138,138,417,,,0.9671698427685708,,,,,,,,,,762.0180905836178,None,762.0180905836178,None,f,1,1.3772895924057593,None,None,010,001,1,33,m,2021_Nov_09_1137,eye_tracking_exp,2021.2.3,84.87751076007592,
0,12,0,270,0,0,-12,0,0,0,j,present,resp,freq_top,,,,,0,139,139,670,,,0.8712431289751501,,,,,,,,,,764.6987182679795,None,764.6987182679795,None,j,1,2.456658394547958,None,None,010,001,1,33,m,2021_Nov_09_1137,eye_tracking_exp,2021.2.3,84.87751076007592,
-168,180,90,180,-168,180,0,180,0,180,f,present,resp,freq_top,,,,,0,140,140,797,,,0.7976810181721642,,,,,,,,,,768.3117606451551,None,768.3117606451551,None,f,1,2.5397230087774005,None,None,010,001,1,33,m,2021_Nov_09_1137,eye_tracking_exp,2021.2.3,84.87751076007592,
168,0,0,0,90,168,0,0,0,0,f,present,resp,freq_top,,,,,0,141,141,734,,,1.005759191326272,,,,,,,,,,772.1593168482732,None,772.1593168482732,None,f,1,1.0921313084782014,None,None,010,001,1,33,m,2021_Nov_09_1137,eye_tracking_exp,2021.2.3,84.87751076007592,
180,-168,180,180,180,168,180,0,180,180,f,abs,resp,freq_top,,,,,0,142,142,369,,,0.9494778841162169,,,,,,,,,,774.5485860138087,None,774.5485860138087,None,f,1,2.0620728015146597,None,None,010,001,1,33,m,2021_Nov_09_1137,eye_tracking_exp,2021.2.3,84.87751076007592,
180,0,180,180,-168,90,0,168,180,180,f,present,resp,freq_top,,,,,0,143,143,884,,,1.09303013547212,,,,,,,,,,778.0894000764883,None,778.0894000764883,None,f,1,1.0171136278013364,None,None,010,001,1,33,m,2021_Nov_09_1137,eye_tracking_exp,2021.2.3,84.87751076007592,
12,180,180,12,0,0,180,180,180,0,j,abs,resp,freq_top,,,,,0,144,144,64,,,0.7616742019734616,,,,,,,,,,780.3491784786866,None,780.3491784786866,None,j,1,1.253403218403946,None,None,010,001,1,33,m,2021_Nov_09_1137,eye_tracking_exp,2021.2.3,84.87751076007592,
0,0,0,12,0,-12,0,0,0,0,j,abs,resp,freq_top,,,,,0,145,145,140,,,1.0312131113373701,,,,,,,,,,782.999026242258,None,782.999026242258,None,j,1,1.4195731961790443,None,None,010,001,1,33,m,2021_Nov_09_1137,eye_tracking_exp,2021.2.3,84.87751076007592,
0,0,90,0,0,0,12,0,180,12,j,present,resp,freq_top,,,,,0,146,146,547,,,0.7360110886664359,,,,,,,,,,785.4576211635649,None,785.4576211635649,None,j,1,1.441010053302307,None,None,010,001,1,33,m,2021_Nov_09_1137,eye_tracking_exp,2021.2.3,84.87751076007592,
180,0,-12,0,0,0,-12,0,0,0,j,abs,resp,freq_top,,,,,0,147,147,121,,,0.7817552448770508,,,,,,,,,,788.0235540105023,None,788.0235540105023,None,j,1,0.8119178786500925,None,None,010,001,1,33,m,2021_Nov_09_1137,eye_tracking_exp,2021.2.3,84.87751076007592,
180,0,180,0,180,12,180,180,12,180,j,abs,resp,freq_top,,,,,0,148,148,15,,,0.9518670306348476,,,,,,,,,,789.9281972894769,None,789.9281972894769,None,j,1,0.9215338419980981,None,None,010,001,1,33,m,2021_Nov_09_1137,eye_tracking_exp,2021.2.3,84.87751076007592,
180,180,90,0,0,180,180,168,0,-168,f,present,resp,freq_top,,,,,0,149,149,882,,,0.8418157157736367,,,,,,,,,,791.9282757696419,None,791.9282757696419,None,f,1,1.4017720836327499,None,None,010,001,1,33,m,2021_Nov_09_1137,eye_tracking_exp,2021.2.3,84.87751076007592,
-12,180,0,0,0,12,0,0,0,0,j,abs,resp,freq_top,,,,,0,150,150,206,,,0.7295059584281727,,,,,,,,,,794.434227131861,None,794.434227131861,None,j,1,1.264492465746116,None,None,010,001,1,33,m,2021_Nov_09_1137,eye_tracking_exp,2021.2.3,84.87751076007592,
0,180,180,180,168,0,0,0,0,12,None,abs,inhibit,freq_top,,,,,0,151,151,430,,,1.0372225317312973,,,,,,,,,,797.1056213229404,None,797.1056213229404,None,None,1,,None,None,010,001,1,33,m,2021_Nov_09_1137,eye_tracking_exp,2021.2.3,84.87751076007592,
180,-168,180,90,180,180,180,0,0,168,f,present,resp,freq_top,,,,,0,152,152,902,,,0.7834625437795865,,,,,,,,,,801.165925481876,None,801.165925481876,None,f,1,2.915879647942347,None,None,010,001,1,33,m,2021_Nov_09_1137,eye_tracking_exp,2021.2.3,84.87751076007592,
0,0,180,180,12,0,0,0,-12,0,j,abs,resp,freq_top,,,,,0,153,153,177,,,0.7098846370789101,,,,,,,,,,805.1441692708504,None,805.1441692708504,None,j,1,0.9366681381625312,None,None,010,001,1,33,m,2021_Nov_09_1137,eye_tracking_exp,2021.2.3,84.87751076007592,
180,180,0,270,180,180,180,-12,0,12,j,present,resp,freq_top,,,,,0,154,154,686,,,0.8715389858246724,,,,,,,,,,807.3219395225815,None,807.3219395225815,None,j,1,1.9269365976788322,None,None,010,001,1,33,m,2021_Nov_09_1137,eye_tracking_exp,2021.2.3,84.87751076007592,
180,180,0,0,270,168,180,180,168,180,f,present,resp,freq_top,,,,,0,155,155,750,,,0.7424846353644861,,,,,,,,,,810.3573820707234,None,810.3573820707234,None,f,1,0.9875827490259326,None,None,010,001,1,33,m,2021_Nov_09_1137,eye_tracking_exp,2021.2.3,84.87751076007592,
168,0,0,180,12,0,180,0,180,180,None,abs,inhibit,freq_top,,,,,0,156,156,485,,,0.8825879852515942,,,,,,,,,,812.5706799913914,None,812.5706799913914,None,None,1,,None,None,010,001,1,33,m,2021_Nov_09_1137,eye_tracking_exp,2021.2.3,84.87751076007592,
12,180,0,180,12,0,180,0,180,180,j,abs,resp,freq_top,,,,,0,157,157,13,,,0.7425698113751215,,,,,,,,,,816.6176434277841,None,816.6176434277841,None,j,1,0.6793377134254115,817.3238462887484,None,010,001,1,33,m,2021_Nov_09_1137,eye_tracking_exp,2021.2.3,84.87751076007592,
-168,0,0,180,168,180,180,0,180,0,f,abs,resp,freq_top,,,,,0,158,158,415,,,0.9275391184782079,,,,,,,,,,818.7827107592384,None,818.7827107592384,None,f,1,1.1559764320973045,None,None,010,001,1,33,m,2021_Nov_09_1137,eye_tracking_exp,2021.2.3,84.87751076007592,
270,180,180,180,180,0,-12,0,0,12,j,present,resp,freq_top,,,,,0,159,159,666,,,0.7217887095605084,,,,,,,,,,820.9833528477284,None,820.9833528477284,None,j,1,1.7687187735655243,None,None,010,001,1,33,m,2021_Nov_09_1137,eye_tracking_exp,2021.2.3,84.87751076007592,
90,180,0,180,0,180,180,-168,0,168,f,present,resp,freq_top,,,,,0,160,160,896,,,0.875924901840943,,,,,,,,,,823.9020760720314,None,823.9020760720314,None,f,1,2.130053829840108,None,None,010,001,1,33,m,2021_Nov_09_1137,eye_tracking_exp,2021.2.3,84.87751076007592,
0,-168,0,12,180,0,180,180,0,0,None,abs,inhibit,freq_top,,,,,0,161,161,476,,,0.8667606078153066,,,,,,,,,,827.1387873425983,None,827.1387873425983,None,None,1,,None,None,010,001,1,33,m,2021_Nov_09_1137,eye_tracking_exp,2021.2.3,84.87751076007592,
90,0,0,12,0,180,180,180,0,12,j,present,resp,freq_top,,,,,0,162,162,508,,,1.0911159451893886,,,,,,,,,,831.24515120864,None,831.24515120864,None,j,1,0.9794950661562325,None,None,010,001,1,33,m,2021_Nov_09_1137,eye_tracking_exp,2021.2.3,84.87751076007592,
0,0,180,0,-12,0,0,0,-12,0,j,abs,resp,freq_top,,,,,0,163,163,107,,,0.9315855287075048,,,,,,,,,,833.5396374638958,None,833.5396374638958,None,j,1,0.7335189102414006,None,None,010,001,1,33,m,2021_Nov_09_1137,eye_tracking_exp,2021.2.3,84.87751076007592,
168,0,270,180,180,180,0,0,168,180,f,present,resp,freq_top,,,,,0,164,164,783,,,1.042842060283046,,,,,,,,,,835.5869513444104,None,835.5869513444104,None,f,1,0.9252679886276383,None,None,010,001,1,33,m,2021_Nov_09_1137,eye_tracking_exp,2021.2.3,84.87751076007592,
0,0,0,0,0,168,0,0,0,-168,f,abs,resp,freq_top,,,,,0,165,165,366,,,0.7783726277279835,,,,,,,,,,837.6815486189153,None,837.6815486189153,None,f,1,1.085720082674925,None,None,010,001,1,33,m,2021_Nov_09_1137,eye_tracking_exp,2021.2.3,84.87751076007592,
12,0,90,180,180,180,0,0,168,0,None,present,inhibit,freq_top,,,,,0,166,166,965,,,0.9631165054253292,,,,,,,,,,839.9992505144228,None,839.9992505144228,None,None,1,,None,None,010,001,1,33,m,2021_Nov_09_1137,eye_tracking_exp,2021.2.3,84.87751076007592,
180,90,0,12,180,180,180,180,-12,0,j,present,resp,freq_top,,,,,0,167,167,682,,,0.8812106136462657,,,,,,,,,,847.1655146683961,None,847.1655146683961,None,j,1,1.7938067694494748,None,None,010,001,1,33,m,2021_Nov_09_1137,eye_tracking_exp,2021.2.3,84.87751076007592,
180,270,180,180,-12,180,-12,180,180,180,j,present,resp,freq_top,,,,,0,168,168,597,,,0.9551548741156757,,,,,,,,,,850.189716442108,None,850.189716442108,None,j,1,1.041705085718604,None,None,010,001,1,33,m,2021_Nov_09_1137,eye_tracking_exp,2021.2.3,84.87751076007592,
0,180,168,180,90,168,180,180,180,180,f,present,resp,freq_top,,,,,0,169,169,764,,,0.9517120568585079,,,,,,,,,,852.4723069154006,None,852.4723069154006,None,f,1,0.9340668225331683,None,None,010,001,1,33,m,2021_Nov_09_1137,eye_tracking_exp,2021.2.3,84.87751076007592,
0,180,180,0,0,0,-168,0,0,-168,f,abs,resp,freq_top,,,,,0,170,170,302,,,0.914199245936831,,,,,,,,,,854.578671083289,None,854.578671083289,None,f,1,0.9396902282160227,None,None,010,001,1,33,m,2021_Nov_09_1137,eye_tracking_exp,2021.2.3,84.87751076007592,
0,168,0,0,168,180,180,270,0,0,f,present,resp,freq_top,,,,,0,171,171,726,,,0.8622158801647848,,,,,,,,,,856.438322589097,None,856.438322589097,None,f,1,1.3681472568541722,None,None,010,001,1,33,m,2021_Nov_09_1137,eye_tracking_exp,2021.2.3,84.87751076007592,
180,12,0,180,180,180,180,180,168,180,None,abs,inhibit,freq_top,,,,,0,172,172,460,,,0.9229884569278045,,,,,,,,,,859.0627817173818,None,859.0627817173818,None,None,1,,None,None,010,001,1,33,m,2021_Nov_09_1137,eye_tracking_exp,2021.2.3,84.87751076007592,
168,180,0,90,0,168,0,180,180,180,f,present,resp,freq_top,,,,,0,173,173,780,,,1.0005636565172547,,,,,,,,,,863.3704103818391,None,863.3704103818391,None,f,1,1.764075162559493,None,None,010,001,1,33,m,2021_Nov_09_1137,eye_tracking_exp,2021.2.3,84.87751076007592,
180,-12,180,180,270,180,-12,0,180,180,j,present,resp,freq_top,,,,,0,174,174,633,,,1.0370186102090666,,,,,,,,,,866.4783842986544,None,866.4783842986544,None,j,1,1.6964225435413027,None,None,010,001,1,33,m,2021_Nov_09_1137,eye_tracking_exp,2021.2.3,84.87751076007592,
0,168,0,270,180,180,180,180,0,-168,f,present,resp,freq_top,,,,,0,175,175,916,,,0.7142481114439437,,,,,,,,,,869.2304044837529,None,869.2304044837529,None,f,1,2.4151734773795397,None,None,010,001,1,33,m,2021_Nov_09_1137,eye_tracking_exp,2021.2.3,84.87751076007592,
0,-12,180,270,180,180,0,12,0,0,j,present,resp,freq_top,,,,,0,176,176,677,,,0.9644284079477525,,,,,,,,,,872.8909457735263,None,872.8909457735263,None,j,1,1.6347374355445936,None,None,010,001,1,33,m,2021_Nov_09_1137,eye_tracking_exp,2021.2.3,84.87751076007592,
0,0,180,180,180,180,-12,0,0,12,j,abs,resp,freq_top,,,,,0,177,177,162,,,1.0947583090777462,,,,,,,,,,875.9140364492077,None,875.9140364492077,None,j,1,1.795662221663406,None,None,010,001,1,33,m,2021_Nov_09_1137,eye_tracking_exp,2021.2.3,84.87751076007592,
180,-168,0,180,0,180,0,180,-168,180,f,abs,resp,freq_top,,,,,0,178,178,341,,,1.0153888807921982,,,,,,,,,,879.1027462322736,None,879.1027462322736,None,f,1,0.8309236617324132,None,None,010,001,1,33,m,2021_Nov_09_1137,eye_tracking_exp,2021.2.3,84.87751076007592,
270,0,168,0,0,0,168,0,0,0,f,present,resp,freq_top,,,,,0,179,179,765,,,0.7610362565023872,,,,,,,,,,881.055892064418,None,881.055892064418,None,f,1,1.2777746300116632,None,None,010,001,1,33,m,2021_Nov_09_1137,eye_tracking_exp,2021.2.3,84.87751076007592,
-168,0,90,0,180,180,180,0,-168,0,f,present,resp,freq_top,,,,,0,180,180,825,,,0.9271099090443258,,,,,,,,,,883.3035579586585,None,883.3035579586585,None,f,1,1.2373111623774093,None,None,010,001,1,33,m,2021_Nov_09_1137,eye_tracking_exp,2021.2.3,84.87751076007592,
180,0,180,-12,180,180,-12,180,180,180,j,abs,resp,freq_top,,,,,0,181,181,71,,,0.8101332974435832,,,,,,,,,,885.6941534389862,None,885.6941534389862,None,j,1,0.8625792400571299,None,None,010,001,1,33,m,2021_Nov_09_1137,eye_tracking_exp,2021.2.3,84.87751076007592,
168,0,90,180,180,0,-168,180,180,180,f,present,resp,freq_top,,,,,0,182,182,881,,,0.7065611908234342,,,,,,,,,,887.5050968339592,None,887.5050968339592,None,f,1,2.603731129663174,None,None,010,001,1,33,m,2021_Nov_09_1137,eye_tracking_exp,2021.2.3,84.87751076007592,
180,180,0,-12,180,0,180,180,-12,180,j,abs,resp,freq_top,,,,,0,183,183,108,,,0.9796460607038147,,,,,,,,,,891.3648503639824,None,891.3648503639824,None,j,1,0.77594166538438,None,None,010,001,1,33,m,2021_Nov_09_1137,eye_tracking_exp,2021.2.3,84.87751076007592,
180,12,0,180,0,180,0,180,12,180,j,abs,resp,freq_top,,,,,0,184,184,40,,,0.8688940972446616,,,,,,,,,,893.306634682981,None,893.306634682981,None,j,1,1.4103608321720458,None,None,010,001,1,33,m,2021_Nov_09_1137,eye_tracking_exp,2021.2.3,84.87751076007592,
180,180,90,180,168,180,168,180,0,0,f,present,resp,freq_top,,,,,0,185,185,721,,,0.9150173975421474,,,,,,,,,,895.9424634742745,None,895.9424634742745,None,f,1,1.8455188595307845,None,None,010,001,1,33,m,2021_Nov_09_1137,eye_tracking_exp,2021.2.3,84.87751076007592,
0,0,180,-12,180,0,180,-12,0,0,j,abs,resp,freq_top,,,,,0,186,186,101,,,0.8377508851173601,,,,,,,,,,898.9197172057802,None,898.9197172057802,None,j,1,0.8203415169964501,None,None,010,001,1,33,m,2021_Nov_09_1137,eye_tracking_exp,2021.2.3,84.87751076007592,
0,0,168,0,0,270,0,0,-168,0,f,present,resp,freq_top,,,,,0,187,187,893,,,0.8855284628674085,,,,,,,,,,900.979468381398,None,900.979468381398,None,f,1,1.2084482705467963,None,None,010,001,1,33,m,2021_Nov_09_1137,eye_tracking_exp,2021.2.3,84.87751076007592,
0,12,0,90,180,180,168,0,0,0,None,present,inhibit,freq_top,,,,,0,188,188,950,,,0.7381947791497008,,,,,,,,,,903.2510447671993,None,903.2510447671993,None,None,1,,None,None,010,001,1,33,m,2021_Nov_09_1137,eye_tracking_exp,2021.2.3,84.87751076007592,
180,0,168,0,0,0,168,0,0,0,f,abs,resp,freq_top,,,,,0,189,189,261,,,1.0108432273213679,,,,,,,,,,907.2763307745781,None,907.2763307745781,None,f,1,1.1678233148804793,None,None,010,001,1,33,m,2021_Nov_09_1137,eye_tracking_exp,2021.2.3,84.87751076007592,
0,0,0,-168,0,0,0,12,0,0,None,abs,inhibit,freq_top,,,,,0,190,190,422,,,0.9445207991467395,,,,,,,,,,909.757373136059,None,909.757373136059,None,None,1,,None,None,010,001,1,33,m,2021_Nov_09_1137,eye_tracking_exp,2021.2.3,84.87751076007592,
180,90,0,0,-168,0,0,-168,180,180,f,present,resp,freq_top,,,,,0,191,191,814,,,0.9070017942188525,,,,,,,,,,913.983471473517,None,913.983471473517,None,f,1,1.1635962524433126,None,None,010,001,1,33,m,2021_Nov_09_1137,eye_tracking_exp,2021.2.3,84.87751076007592,
180,180,90,180,180,12,180,180,12,180,j,present,resp,freq_top,,,,,0,192,192,519,,,0.773512346382307,,,,,,,,,,916.2553886443429,None,916.2553886443429,None,j,1,1.5317787031326588,None,None,010,001,1,33,m,2021_Nov_09_1137,eye_tracking_exp,2021.2.3,84.87751076007592,
270,180,-12,180,0,180,0,180,0,12,j,present,resp,freq_top,,,,,0,193,193,698,,,0.7345387663768997,,,,,,,,,,918.7144961014983,None,918.7144961014983,None,j,1,1.7447294999929,None,None,010,001,1,33,m,2021_Nov_09_1137,eye_tracking_exp,2021.2.3,84.87751076007592,
0,270,180,180,12,0,0,0,12,0,j,present,resp,freq_top,,,,,0,194,194,541,,,0.8639150658538759,,,,,,,,,,921.6809135332705,None,921.6809135332705,None,j,1,1.3382442009879014,None,None,010,001,1,33,m,2021_Nov_09_1137,eye_tracking_exp,2021.2.3,84.87751076007592,
0,0,-168,0,168,0,0,0,0,0,f,abs,resp,freq_top,,,,,0,195,195,399,,,0.9019347275503282,,,,,,,,,,924.2088595654795,None,924.2088595654795,None,f,1,0.986300805711835,None,None,010,001,1,33,m,2021_Nov_09_1137,eye_tracking_exp,2021.2.3,84.87751076007592,
0,180,-168,0,180,168,0,180,0,180,f,abs,resp,freq_top,,,,,0,196,196,400,,,0.746325276305323,,,,,,,,,,925.9975577576288,None,925.9975577576288,None,f,1,1.3097106240029461,None,None,010,001,1,33,m,2021_Nov_09_1137,eye_tracking_exp,2021.2.3,84.87751076007592,
0,90,0,-12,0,0,-12,180,180,180,j,present,resp,freq_top,,,,,0,197,197,598,,,1.008225392972145,,,,,,,,,,928.6920682813661,None,928.6920682813661,None,j,1,0.8716289086441975,None,None,010,001,1,33,m,2021_Nov_09_1137,eye_tracking_exp,2021.2.3,84.87751076007592,
270,180,12,180,180,180,180,12,180,180,j,present,resp,freq_top,,,,,0,198,198,556,,,1.0600406571685328,,,,,,,,,,930.9750345539114,None,930.9750345539114,None,j,1,1.0832545981011208,None,None,010,001,1,33,m,2021_Nov_09_1137,eye_tracking_exp,2021.2.3,84.87751076007592,
180,0,168,0,0,180,180,0,168,0,f,abs,resp,freq_top,,,,,0,199,199,263,,,0.7093431051307916,,,,,,,,,,933.1169952118044,None,933.1169952118044,None,f,1,1.4532740883478255,None,None,010,001,1,33,m,2021_Nov_09_1137,eye_tracking_exp,2021.2.3,84.87751076007592,
180,180,180,168,180,180,168,180,0,180,f,abs,resp,freq_top,,,,,0,200,200,211,,,1.085049455761463,,,,,,,,,,936.0235887228837,None,936.0235887228837,None,f,1,1.170730703153822,None,None,010,001,1,33,m,2021_Nov_09_1137,eye_tracking_exp,2021.2.3,84.87751076007592,
0,0,0,-168,0,12,0,0,0,0,None,abs,inhibit,freq_top,,,,,0,201,201,420,,,1.0543758600617088,,,,,,,,,,938.3179421655514,None,938.3179421655514,None,None,1,,None,None,010,001,1,33,m,2021_Nov_09_1137,eye_tracking_exp,2021.2.3,84.87751076007592,
180,180,-168,0,180,0,-168,180,0,180,f,abs,resp,freq_top,,,,,0,202,202,305,,,0.9238737794828763,,,,,,,,,,942.2606422877088,None,942.2606422877088,None,f,1,1.1090890610948918,None,None,010,001,1,33,m,2021_Nov_09_1137,eye_tracking_exp,2021.2.3,84.87751076007592,
0,180,180,180,12,0,180,12,0,0,j,abs,resp,freq_top,,,,,0,203,203,8,,,1.0703872319373935,,,,,,,,,,944.5084216763426,None,944.5084216763426,None,j,1,1.3260209152585958,None,None,010,001,1,33,m,2021_Nov_09_1137,eye_tracking_exp,2021.2.3,84.87751076007592,
270,180,168,180,-168,180,180,180,0,180,f,present,resp,freq_top,,,,,0,204,204,865,,,0.7514234108764382,,,,,,,,,,946.6517952790564,None,946.6517952790564,None,f,1,1.8536557434281349,None,None,010,001,1,33,m,2021_Nov_09_1137,eye_tracking_exp,2021.2.3,84.87751076007592,
-12,0,-12,180,0,180,0,180,0,180,j,abs,resp,freq_top,,,,,0,205,205,133,,,0.7060020183165776,,,,,,,,,,949.3215453106741,None,949.3215453106741,None,j,1,1.7919108697669799,None,None,010,001,1,33,m,2021_Nov_09_1137,eye_tracking_exp,2021.2.3,84.87751076007592,
168,0,180,180,0,180,-168,180,180,180,f,abs,resp,freq_top,,,,,0,206,206,377,,,0.9684715095619459,,,,,,,,,,952.2629474916384,None,952.2629474916384,None,f,1,1.6185590513359784,None,None,010,001,1,33,m,2021_Nov_09_1137,eye_tracking_exp,2021.2.3,84.87751076007592,
0,0,0,168,0,0,-168,0,0,0,f,abs,resp,freq_top,,,,,0,207,207,374,,,0.8533156181086263,,,,,,,,,,955.017101733537,None,955.017101733537,None,f,1,1.488439541137268,None,None,010,001,1,33,m,2021_Nov_09_1137,eye_tracking_exp,2021.2.3,84.87751076007592,
0,90,0,-168,180,180,180,-168,0,0,f,present,resp,freq_top,,,,,0,208,208,786,,,1.0021912595293232,,,,,,,,,,957.7824043847477,None,957.7824043847477,None,f,1,0.8671516152198819,None,None,010,001,1,33,m,2021_Nov_09_1137,eye_tracking_exp,2021.2.3,84.87751076007592,
270,180,0,12,0,180,0,180,168,180,None,present,inhibit,freq_top,,,,,0,209,209,962,,,0.7416613948404318,,,,,,,,,,965.7242517897257,None,965.7242517897257,None,None,1,,None,None,010,001,1,33,m,2021_Nov_09_1137,eye_tracking_exp,2021.2.3,84.87751076007592,
0,0,0,0,-12,0,0,-12,0,0,j,abs,resp,freq_top,,,,,0,210,210,78,,,0.8742916037240402,,,,,,,,,,969.9256952814403,None,969.9256952814403,None,j,1,1.171040096112847,None,None,010,001,1,33,m,2021_Nov_09_1137,eye_tracking_exp,2021.2.3,84.87751076007592,
180,168,180,180,90,180,0,180,168,180,f,present,resp,freq_top,,,,,0,211,211,775,,,1.0039208343490753,,,,,,,,,,972.4083766709864,None,972.4083766709864,None,f,1,0.8643504770161599,None,None,010,001,1,33,m,2021_Nov_09_1137,eye_tracking_exp,2021.2.3,84.87751076007592,
180,0,180,0,180,-168,180,0,-168,180,f,abs,resp,freq_top,,,,,0,212,212,295,,,0.7048395735571158,,,,,,,,,,974.0331949969504,None,974.0331949969504,None,f,1,1.3515767736671478,None,None,010,001,1,33,m,2021_Nov_09_1137,eye_tracking_exp,2021.2.3,84.87751076007592,
-168,0,0,180,180,180,-168,180,0,0,f,abs,resp,freq_top,,,,,0,213,213,347,,,1.0262388142159122,,,,,,,,,,976.6929270354813,None,976.6929270354813,None,f,1,1.6669484119620392,None,None,010,001,1,33,m,2021_Nov_09_1137,eye_tracking_exp,2021.2.3,84.87751076007592,
0,270,0,0,0,168,180,180,180,-168,f,present,resp,freq_top,,,,,0,214,214,870,,,0.9198419131996887,,,,,,,,,,979.5415215915536,None,979.5415215915536,None,f,1,1.538268107253316,None,None,010,001,1,33,m,2021_Nov_09_1137,eye_tracking_exp,2021.2.3,84.87751076007592,
168,180,180,12,180,180,180,0,270,0,None,present,inhibit,freq_top,,,,,0,215,215,988,,,0.90501535606668,,,,,,,,,,982.2584258267361,None,982.2584258267361,None,None,1,,None,None,010,001,1,33,m,2021_Nov_09_1137,eye_tracking_exp,2021.2.3,84.87751076007592,
0,0,180,270,180,180,12,0,12,0,j,present,resp,freq_top,,,,,0,216,216,539,,,0.7428334912885787,,,,,,,,,,986.0256799174394,None,986.0256799174394,None,j,1,1.230202368645223,None,None,010,001,1,33,m,2021_Nov_09_1137,eye_tracking_exp,2021.2.3,84.87751076007592,
0,0,168,0,0,168,0,180,180,180,f,abs,resp,freq_top,,,,,0,217,217,228,,,1.0176449787126916,,,,,,,,,,988.5665169204749,None,988.5665169204749,None,f,1,1.0254246772965416,None,None,010,001,1,33,m,2021_Nov_09_1137,eye_tracking_exp,2021.2.3,84.87751076007592,
180,-12,180,90,180,12,0,180,0,180,j,present,resp,freq_top,,,,,0,218,218,663,,,0.8444495475156447,,,,,,,,,,990.7905352317084,None,990.7905352317084,None,j,1,1.0734512180806632,None,None,010,001,1,33,m,2021_Nov_09_1137,eye_tracking_exp,2021.2.3,84.87751076007592,
180,0,12,180,180,0,180,0,0,12,j,abs,resp,freq_top,,,,,0,219,219,54,,,0.9327690646254778,,,,,,,,,,993.1558942075299,None,993.1558942075299,None,j,1,1.0270920789598676,None,None,010,001,1,33,m,2021_Nov_09_1137,eye_tracking_exp,2021.2.3,84.87751076007592,
180,0,-12,0,0,0,0,12,180,180,j,abs,resp,freq_top,,,,,0,220,220,172,,,0.9148817619550181,,,,,,,,,,995.5580446847953,None,995.5580446847953,None,j,1,1.153023163112266,None,None,010,001,1,33,m,2021_Nov_09_1137,eye_tracking_exp,2021.2.3,84.87751076007592,
12,180,180,180,168,180,0,180,0,0,None,abs,inhibit,freq_top,,,,,0,221,221,503,,,1.0365002591531913,,,,,,,,,,998.1097979769629,None,998.1097979769629,None,None,1,,None,None,010,001,1,33,m,2021_Nov_09_1137,eye_tracking_exp,2021.2.3,84.87751076007592,
0,0,180,0,168,0,0,0,168,0,f,abs,resp,freq_top,,,,,0,222,222,247,,,0.9962257646240035,,,,,,,,,,1002.4993783465379,None,1002.4993783465379,None,f,1,1.0917026860370243,None,None,010,001,1,33,m,2021_Nov_09_1137,eye_tracking_exp,2021.2.3,84.87751076007592,
90,0,12,0,0,180,180,0,168,0,None,present,inhibit,freq_top,,,,,0,223,223,963,,,0.8614932931726139,,,,,,,,,,1004.7938193247746,None,1004.7938193247746,None,None,1,,None,None,010,001,1,33,m,2021_Nov_09_1137,eye_tracking_exp,2021.2.3,84.87751076007592,
180,12,180,270,180,0,180,0,0,-168,None,present,inhibit,freq_top,,,,,0,224,224,972,,,0.8900832534349556,,,,,,,,,,1008.9957490916677,None,1008.9957490916677,None,None,1,,None,None,010,001,1,33,m,2021_Nov_09_1137,eye_tracking_exp,2021.2.3,84.87751076007592,
90,0,0,12,0,0,0,12,0,0,j,present,resp,freq_top,,,,,0,225,225,506,,,1.062778877122009,,,,,,,,,,1013.3972871217975,None,1013.3972871217975,None,j,1,0.8649131194315487,None,None,010,001,1,33,m,2021_Nov_09_1137,eye_tracking_exp,2021.2.3,84.87751076007592,
-12,0,0,90,0,0,0,0,-12,180,j,present,resp,freq_top,,,,,0,226,226,643,,,1.0677193812562327,,,,,,,,,,1015.8801076627133,None,1015.8801076627133,None,j,1,1.3901672819747546,None,None,010,001,1,33,m,2021_Nov_09_1137,eye_tracking_exp,2021.2.3,84.87751076007592,
180,168,180,0,180,180,-168,0,180,180,f,abs,resp,freq_top,,,,,0,227,227,409,,,0.8522307018516369,,,,,,,,,,1018.4567255841421,None,1018.4567255841421,None,f,1,1.0695368689175666,None,None,010,001,1,33,m,2021_Nov_09_1137,eye_tracking_exp,2021.2.3,84.87751076007592,
168,0,90,180,180,180,0,0,168,0,f,present,resp,freq_top,,,,,0,228,228,755,,,0.910870079385075,,,,,,,,,,1020.9292902767002,None,1020.9292902767002,None,f,1,1.6050625758507522,None,None,010,001,1,33,m,2021_Nov_09_1137,eye_tracking_exp,2021.2.3,84.87751076007592,
180,180,0,0,180,180,180,-168,0,12,None,abs,inhibit,freq_top,,,,,0,229,229,448,,,0.7115151122441999,,,,,,,,,,1023.5756402396783,None,1023.5756402396783,None,None,1,,None,None,010,001,1,33,m,2021_Nov_09_1137,eye_tracking_exp,2021.2.3,84.87751076007592,
0,168,0,0,-168,0,0,0,0,0,f,abs,resp,freq_top,,,,,0,230,230,362,,,1.0980326954716535,,,,,,,,,,1027.9536568587591,None,1027.9536568587591,None,f,1,1.2528354445930745,None,None,010,001,1,33,m,2021_Nov_09_1137,eye_tracking_exp,2021.2.3,84.87751076007592,
0,168,0,-168,180,0,0,180,0,0,f,abs,resp,freq_top,,,,,0,231,231,406,,,0.9867534015331545,,,,,,,,,,1030.5195643505667,None,1030.5195643505667,None,f,1,1.6619905784491493,None,None,010,001,1,33,m,2021_Nov_09_1137,eye_tracking_exp,2021.2.3,84.87751076007592,
168,0,90,180,0,180,168,180,0,180,f,present,resp,freq_top,,,,,0,232,232,741,,,0.8204023604824413,,,,,,,,,,1033.3670176239284,None,1033.3670176239284,None,f,1,2.3341393865011923,None,None,010,001,1,33,m,2021_Nov_09_1137,eye_tracking_exp,2021.2.3,84.87751076007592,
-168,0,-168,0,270,0,0,0,180,180,f,present,resp,freq_top,,,,,0,233,233,839,,,0.9768842773221889,,,,,,,,,,1037.040349973241,None,1037.040349973241,None,f,1,1.2690811406355351,None,None,010,001,1,33,m,2021_Nov_09_1137,eye_tracking_exp,2021.2.3,84.87751076007592,
0,12,180,180,180,180,0,180,0,12,j,abs,resp,freq_top,,,,,0,234,234,48,,,0.934267940267157,,,,,,,,,,1039.5690648092223,None,1039.5690648092223,None,j,1,0.9005413033492005,None,None,010,001,1,33,m,2021_Nov_09_1137,eye_tracking_exp,2021.2.3,84.87751076007592,
0,90,0,0,-168,180,180,168,0,0,f,present,resp,freq_top,,,,,0,235,235,862,,,1.0588239528907315,,,,,,,,,,1041.8515746894227,None,1041.8515746894227,None,f,1,1.705020951178085,None,None,010,001,1,33,m,2021_Nov_09_1137,eye_tracking_exp,2021.2.3,84.87751076007592,
270,180,180,-12,180,-12,180,0,180,180,j,present,resp,freq_top,,,,,0,236,236,591,,,0.8772391598612772,,,,,,,,,,1044.4760395527965,None,1044.4760395527965,None,j,1,1.2405104364961517,None,None,010,001,1,33,m,2021_Nov_09_1137,eye_tracking_exp,2021.2.3,84.87751076007592,
0,168,0,0,0,180,180,180,180,-168,f,abs,resp,freq_top,,,,,0,237,237,412,,,0.7058347469625468,,,,,,,,,,1046.758929458104,None,1046.758929458104,None,f,1,1.053660633346226,None,None,010,001,1,33,m,2021_Nov_09_1137,eye_tracking_exp,2021.2.3,84.87751076007592,
0,0,0,180,0,0,-168,0,180,168,f,abs,resp,freq_top,,,,,0,238,238,393,,,0.9624059620770911,,,,,,,,,,1049.1375304525682,None,1049.1375304525682,None,f,1,1.3006688034329272,None,None,010,001,1,33,m,2021_Nov_09_1137,eye_tracking_exp,2021.2.3,84.87751076007592,
0,270,180,180,-12,180,180,180,-12,0,j,present,resp,freq_top,,,,,0,239,239,611,,,1.044113129424459,,,,,,,,,,1051.8209061500984,None,1051.8209061500984,None,j,1,1.063733562548805,None,None,010,001,1,33,m,2021_Nov_09_1137,eye_tracking_exp,2021.2.3,84.87751076007592,
180,270,0,180,0,180,-168,180,168,180,f,present,resp,freq_top,,,,,0,240,240,875,,,0.8749462517603127,,,,,,,,,,1054.054413015151,None,1054.054413015151,None,f,1,0.7824398230623046,None,None,010,001,1,33,m,2021_Nov_09_1137,eye_tracking_exp,2021.2.3,84.87751076007592,
90,180,180,168,0,168,180,180,180,180,f,present,resp,freq_top,,,,,0,241,241,731,,,0.8903803723772097,,,,,,,,,,1056.0432947905174,None,1056.0432947905174,None,f,1,1.1124012259133451,None,None,010,001,1,33,m,2021_Nov_09_1137,eye_tracking_exp,2021.2.3,84.87751076007592,
90,180,0,0,168,180,180,180,168,180,f,present,resp,freq_top,,,,,0,242,242,723,,,0.8633811061147403,,,,,,,,,,1058.3377297318184,None,1058.3377297318184,None,f,1,1.1544451633353674,None,None,010,001,1,33,m,2021_Nov_09_1137,eye_tracking_exp,2021.2.3,84.87751076007592,
180,-168,180,270,0,180,12,0,180,180,None,present,inhibit,freq_top,,,,,0,243,243,983,,,1.0926583137599142,,,,,,,,,,1060.8928350325805,None,1060.8928350325805,None,None,1,,None,None,010,001,1,33,m,2021_Nov_09_1137,eye_tracking_exp,2021.2.3,84.87751076007592,
0,270,0,12,0,0,0,-12,0,0,j,present,resp,freq_top,,,,,0,244,244,646,,,0.7292752801442707,,,,,,,,,,1064.9162574378825,None,1064.9162574378825,None,j,1,1.296616510288004,None,None,010,001,1,33,m,2021_Nov_09_1137,eye_tracking_exp,2021.2.3,84.87751076007592,
0,90,0,-168,0,0,180,180,180,-168,f,present,resp,freq_top,,,,,0,245,245,788,,,0.8704241874348666,,,,,,,,,,1067.3523705084826,None,1067.3523705084826,None,f,1,2.07501176597998,None,None,010,001,1,33,m,2021_Nov_09_1137,eye_tracking_exp,2021.2.3,84.87751076007592,
0,0,-168,0,-168,0,0,0,0,0,f,abs,resp,freq_top,,,,,0,246,246,329,,,0.7662281164381343,,,,,,,,,,1070.5548384682006,None,1070.5548384682006,None,f,1,1.896040767721388,None,None,010,001,1,33,m,2021_Nov_09_1137,eye_tracking_exp,2021.2.3,84.87751076007592,
180,0,180,12,0,12,180,0,180,180,j,abs,resp,freq_top,,,,,0,247,247,17,,,0.7120520978304641,,,,,,,,,,1073.530813878553,None,1073.530813878553,None,j,1,2.008118593483232,None,None,010,001,1,33,m,2021_Nov_09_1137,eye_tracking_exp,2021.2.3,84.87751076007592,
0,12,0,90,180,180,180,-12,0,0,j,present,resp,freq_top,,,,,0,248,248,704,,,0.8454538675629418,,,,,,,,,,1076.7098576218887,None,1076.7098576218887,None,j,1,2.2367916840530597,None,None,010,001,1,33,m,2021_Nov_09_1137,eye_tracking_exp,2021.2.3,84.87751076007592,
180,180,90,0,0,12,0,180,12,0,j,present,resp,freq_top,,,,,0,249,249,540,,,0.7995723454618933,,,,,,,,,,1080.074312264729,None,1080.074312264729,None,j,1,1.032641834025526,None,None,010,001,1,33,m,2021_Nov_09_1137,eye_tracking_exp,2021.2.3,84.87751076007592,
180,168,0,180,0,180,90,180,-168,180,f,present,resp,freq_top,,,,,0,250,250,894,,,1.0918704548654286,,,,,,,,,,1082.8393517055401,None,1082.8393517055401,None,f,1,1.2917105944225113,None,None,010,001,1,33,m,2021_Nov_09_1137,eye_tracking_exp,2021.2.3,84.87751076007592,
12,0,270,180,180,0,0,-168,180,0,None,present,inhibit,freq_top,,,,,0,251,251,958,,,0.8960256016095316,,,,,,,,,,1089.546154637921,None,1089.546154637921,None,None,1,,None,None,010,001,1,33,m,2021_Nov_09_1137,eye_tracking_exp,2021.2.3,84.87751076007592,
180,0,0,-12,0,180,0,180,0,-12,j,abs,resp,freq_top,,,,,0,252,252,116,,,0.8333976998364099,,,,,,,,,,1093.6884089927407,None,1093.6884089927407,None,j,1,0.8257986050975887,None,None,010,001,1,33,m,2021_Nov_09_1137,eye_tracking_exp,2021.2.3,84.87751076007592,
180,270,0,168,180,180,180,180,168,180,f,present,resp,freq_top,,,,,0,253,253,752,,,0.8935934341099678,,,,,,,,,,1095.783678178198,None,1095.783678178198,None,f,1,1.2425285841291043,None,None,010,001,1,33,m,2021_Nov_09_1137,eye_tracking_exp,2021.2.3,84.87751076007592,
0,12,0,0,-12,180,180,180,270,0,j,present,resp,freq_top,,,,,0,254,254,656,,,0.960682172410537,,,,,,,,,,1098.0421689019931,None,1098.0421689019931,None,j,1,1.384004777924929,None,None,010,001,1,33,m,2021_Nov_09_1137,eye_tracking_exp,2021.2.3,84.87751076007592,
0,270,0,0,-12,180,180,180,0,12,j,present,resp,freq_top,,,,,0,255,255,654,,,1.054722859983872,,,,,,,,,,1100.8562427500174,None,1100.8562427500174,None,j,1,1.6410046804294325,None,None,010,001,1,33,m,2021_Nov_09_1137,eye_tracking_exp,2021.2.3,84.87751076007592,
-168,0,270,180,168,180,0,180,0,180,f,present,resp,freq_top,,,,,0,256,256,919,,,0.7128253789774074,,,,,,,,,,1103.5380452220825,None,1103.5380452220825,None,f,1,1.5352306230142858,None,None,010,001,1,33,m,2021_Nov_09_1137,eye_tracking_exp,2021.2.3,84.87751076007592,
0,12,0,0,-12,0,0,180,180,180,j,abs,resp,freq_top,,,,,0,257,257,152,,,0.9621219403396575,,,,,,,,,,1106.3153972952723,None,1106.3153972952723,None,j,1,1.2698873734098015,None,None,010,001,1,33,m,2021_Nov_09_1137,eye_tracking_exp,2021.2.3,84.87751076007592,
180,0,0,0,0,-12,180,180,-12,180,j,abs,resp,freq_top,,,,,0,258,258,106,,,0.7532425344640838,,,,,,,,,,1108.5858508110177,None,1108.5858508110177,None,j,1,1.1274328941690328,None,None,010,001,1,33,m,2021_Nov_09_1137,eye_tracking_exp,2021.2.3,84.87751076007592,
90,180,168,180,180,0,180,0,0,168,f,present,resp,freq_top,,,,,0,259,259,768,,,1.008729783268413,,,,,,,,,,1111.080571359751,None,1111.080571359751,None,f,1,1.0815201864497794,None,None,010,001,1,33,m,2021_Nov_09_1137,eye_tracking_exp,2021.2.3,84.87751076007592,
-12,0,0,-168,0,0,0,0,0,0,None,abs,inhibit,freq_top,,,,,0,260,260,496,,,0.851039648078528,,,,,,,,,,1113.3637033461828,None,1113.3637033461828,None,None,1,,None,None,010,001,1,33,m,2021_Nov_09_1137,eye_tracking_exp,2021.2.3,84.87751076007592,
180,0,180,180,168,180,-168,180,180,180,f,abs,resp,freq_top,,,,,0,261,261,373,,,0.9673808136186732,,,,,,,,,,1117.6357980029215,None,1117.6357980029215,None,None,0,,1120.6256945871928,None,010,001,1,33,m,2021_Nov_09_1137,eye_tracking_exp,2021.2.3,84.87751076007592,
90,0,-168,0,0,180,180,180,168,0,f,present,resp,freq_top,,,,,0,262,262,907,,,0.8034530812300555,,,,,,,,,,1121.955191749682,None,1121.955191749682,None,f,1,1.3413734466512324,None,None,010,001,1,33,m,2021_Nov_09_1137,eye_tracking_exp,2021.2.3,84.87751076007592,
0,90,0,168,0,168,0,0,0,0,f,present,resp,freq_top,,,,,0,263,263,714,,,0.8263614203934562,,,,,,,,,,1124.2622067596176,None,1124.2622067596176,None,f,1,1.1462753781388528,None,None,010,001,1,33,m,2021_Nov_09_1137,eye_tracking_exp,2021.2.3,84.87751076007592,
180,-168,180,270,180,168,180,0,180,180,f,present,resp,freq_top,,,,,0,264,264,873,,,1.0583572597665272,,,,,,,,,,1126.769313591346,None,1126.769313591346,None,f,1,1.1032703605396819,None,None,010,001,1,33,m,2021_Nov_09_1137,eye_tracking_exp,2021.2.3,84.87751076007592,
270,0,168,0,180,180,180,180,12,0,None,present,inhibit,freq_top,,,,,0,265,265,977,,,0.9463070071583899,,,,,,,,,,1128.8862520559542,None,1128.8862520559542,None,None,1,,None,None,010,001,1,33,m,2021_Nov_09_1137,eye_tracking_exp,2021.2.3,84.87751076007592,
-12,0,0,-12,0,270,0,0,0,0,j,present,resp,freq_top,,,,,0,266,266,580,,,0.9515528070949182,,,,,,,,,,1133.1234133800835,None,1133.1234133800835,None,j,1,1.1162422263059852,None,None,010,001,1,33,m,2021_Nov_09_1137,eye_tracking_exp,2021.2.3,84.87751076007592,
0,270,0,0,0,-168,0,0,0,12,None,present,inhibit,freq_top,,,,,0,267,267,940,,,1.0981630632265942,,,,,,,,,,1135.7226414371053,None,1135.7226414371053,None,j,0,1.284905156712739,1137.0299951191373,None,010,001,1,33,m,2021_Nov_09_1137,eye_tracking_exp,2021.2.3,84.87751076007592,
-168,0,0,180,0,0,0,168,180,180,f,abs,resp,freq_top,,,,,0,268,268,384,,,0.792477944543239,,,,,,,,,,1138.3706147321154,None,1138.3706147321154,None,f,1,2.0131123467635916,None,None,010,001,1,33,m,2021_Nov_09_1137,eye_tracking_exp,2021.2.3,84.87751076007592,
12,180,0,180,0,180,12,180,180,180,j,abs,resp,freq_top,,,,,0,269,269,27,,,0.7429389040201513,,,,,,,,,,1141.4552670604562,None,1141.4552670604562,None,j,1,1.6643745643896182,None,None,010,001,1,33,m,2021_Nov_09_1137,eye_tracking_exp,2021.2.3,84.87751076007592,
180,180,270,0,-12,0,0,12,180,0,j,present,resp,freq_top,,,,,0,270,270,674,,,0.8302827467934455,,,,,,,,,,1144.2197906451038,None,1144.2197906451038,None,j,1,1.347911448105151,None,None,010,001,1,33,m,2021_Nov_09_1137,eye_tracking_exp,2021.2.3,84.87751076007592,
0,90,180,0,-12,0,0,0,180,-12,j,present,resp,freq_top,,,,,0,271,271,619,,,0.8103813718989951,,,,,,,,,,1146.597315555765,None,1146.597315555765,None,j,1,1.0178827334211746,None,None,010,001,1,33,m,2021_Nov_09_1137,eye_tracking_exp,2021.2.3,84.87751076007592,
0,12,0,90,0,-12,180,180,0,0,j,present,resp,freq_top,,,,,0,272,272,702,,,0.9213489716216563,,,,,,,,,,1148.891711558831,None,1148.891711558831,None,j,1,1.4430689502514724,None,None,010,001,1,33,m,2021_Nov_09_1137,eye_tracking_exp,2021.2.3,84.87751076007592,
168,0,0,168,0,0,0,0,0,0,f,abs,resp,freq_top,,,,,0,273,273,216,,,0.997601983384574,,,,,,,,,,1151.5985528257543,None,1151.5985528257543,None,f,1,1.312253079509901,None,None,010,001,1,33,m,2021_Nov_09_1137,eye_tracking_exp,2021.2.3,84.87751076007592,
180,180,0,180,180,-12,180,0,-12,180,j,abs,resp,freq_top,,,,,0,274,274,85,,,0.8171232518585676,,,,,,,,,,1154.0583986001557,None,1154.0583986001557,None,j,1,1.2043878275380848,None,None,010,001,1,33,m,2021_Nov_09_1137,eye_tracking_exp,2021.2.3,84.87751076007592,
90,0,180,0,180,12,0,180,-12,0,j,present,resp,freq_top,,,,,0,275,275,659,,,0.9500592787912674,,,,,,,,,,1156.3999569566477,None,1156.3999569566477,None,j,1,0.9431029080151347,None,None,010,001,1,33,m,2021_Nov_09_1137,eye_tracking_exp,2021.2.3,84.87751076007592,
0,12,0,90,180,180,180,180,0,12,j,present,resp,freq_top,,,,,0,276,276,566,,,0.9818972246847545,,,,,,,,,,1158.6124432113002,None,1158.6124432113002,None,j,1,1.7704106248193057,None,None,010,001,1,33,m,2021_Nov_09_1137,eye_tracking_exp,2021.2.3,84.87751076007592,
180,180,90,180,-12,180,-12,180,180,180,j,present,resp,freq_top,,,,,0,277,277,581,,,0.8826102849138137,,,,,,,,,,1161.5899338925346,None,1161.5899338925346,None,j,1,1.2089589953138784,None,None,010,001,1,33,m,2021_Nov_09_1137,eye_tracking_exp,2021.2.3,84.87751076007592,
180,180,0,0,-168,0,0,-168,180,180,f,abs,resp,freq_top,,,,,0,278,278,310,,,0.8979488083961891,,,,,,,,,,1163.9904948446083,None,1163.9904948446083,None,f,1,0.7914291222914471,None,None,010,001,1,33,m,2021_Nov_09_1137,eye_tracking_exp,2021.2.3,84.87751076007592,
0,0,180,90,0,0,-12,0,180,-12,j,present,resp,freq_top,,,,,0,279,279,617,,,1.0334375780185192,,,,,,,,,,1166.2023719724393,None,1166.2023719724393,None,j,1,0.8845739100470382,None,None,010,001,1,33,m,2021_Nov_09_1137,eye_tracking_exp,2021.2.3,84.87751076007592,
0,0,0,168,0,168,0,0,0,0,f,abs,resp,freq_top,,,,,0,280,280,210,,,0.8538404754496266,,,,,,,,,,1168.755594956623,None,1168.755594956623,None,f,1,1.0664565224342368,None,None,010,001,1,33,m,2021_Nov_09_1137,eye_tracking_exp,2021.2.3,84.87751076007592,
180,0,0,180,180,-168,180,0,12,180,None,abs,inhibit,freq_top,,,,,0,281,281,435,,,0.8853491784467364,,,,,,,,,,1171.0391051570832,None,1171.0391051570832,None,None,1,,None,None,010,001,1,33,m,2021_Nov_09_1137,eye_tracking_exp,2021.2.3,84.87751076007592,
0,180,-12,0,270,-12,180,0,180,0,j,present,resp,freq_top,,,,,0,282,282,624,,,0.741779513927215,,,,,,,,,,1175.0645701596077,None,1175.0645701596077,None,j,1,1.8456552942798226,None,None,010,001,1,33,m,2021_Nov_09_1137,eye_tracking_exp,2021.2.3,84.87751076007592,
0,-168,180,180,180,180,180,0,0,-168,f,abs,resp,freq_top,,,,,0,283,283,328,,,0.8193220707686694,,,,,,,,,,1178.0886964716228,None,1178.0886964716228,None,f,1,0.9174474401661428,None,None,010,001,1,33,m,2021_Nov_09_1137,eye_tracking_exp,2021.2.3,84.87751076007592,
0,180,0,-168,180,0,180,0,12,180,None,abs,inhibit,freq_top,,,,,0,284,284,423,,,1.041013438621016,,,,,,,,,,1180.4301917421362,None,1180.4301917421362,None,None,1,,None,None,010,001,1,33,m,2021_Nov_09_1137,eye_tracking_exp,2021.2.3,84.87751076007592,
12,180,180,12,0,0,180,180,180,90,j,present,resp,freq_top,,,,,0,285,285,568,,,0.829733313145334,,,,,,,,,,1184.2669542059184,None,1184.2669542059184,None,j,1,1.1542731106655992,None,None,010,001,1,33,m,2021_Nov_09_1137,eye_tracking_exp,2021.2.3,84.87751076007592,
0,12,0,0,180,180,180,12,0,0,j,abs,resp,freq_top,,,,,0,286,286,60,,,0.8368164186561089,,,,,,,,,,1186.4563214112914,None,1186.4563214112914,None,j,1,0.7893192132351032,None,None,010,001,1,33,m,2021_Nov_09_1137,eye_tracking_exp,2021.2.3,84.87751076007592,
180,180,0,12,180,0,180,0,12,180,j,abs,resp,freq_top,,,,,0,287,287,38,,,0.9726623155919053,,,,,,,,,,1188.5740914638036,None,1188.5740914638036,None,j,1,0.8311023550313621,None,None,010,001,1,33,m,2021_Nov_09_1137,eye_tracking_exp,2021.2.3,84.87751076007592,
0,270,0,0,0,0,-168,0,0,-168,f,present,resp,freq_top,,,,,0,288,288,806,,,0.9687611573586291,,,,,,,,,,1190.6335890881182,None,1190.6335890881182,None,f,1,1.1556851499453842,None,None,010,001,1,33,m,2021_Nov_09_1137,eye_tracking_exp,2021.2.3,84.87751076007592,
-168,0,90,180,180,168,0,0,0,0,f,present,resp,freq_top,,,,,0,289,289,874,,,0.7382036786597628,,,,,,,,,,1192.7993847758744,None,1192.7993847758744,None,f,1,1.6298770985449664,None,None,010,001,1,33,m,2021_Nov_09_1137,eye_tracking_exp,2021.2.3,84.87751076007592,
-12,0,0,-168,0,0,270,0,0,0,None,present,inhibit,freq_top,,,,,0,290,290,1000,,,0.8497934666570256,,,,,,,,,,1195.5513847372376,None,1195.5513847372376,None,None,1,,None,None,010,001,1,33,m,2021_Nov_09_1137,eye_tracking_exp,2021.2.3,84.87751076007592,
0,180,-168,0,180,0,180,-168,180,180,f,abs,resp,freq_top,,,,,0,291,291,332,,,0.9657840109239644,,,,,,,,,,1199.529379502611,None,1199.529379502611,None,f,1,0.9309602153780361,None,None,010,001,1,33,m,2021_Nov_09_1137,eye_tracking_exp,2021.2.3,84.87751076007592,
180,0,180,168,180,168,180,0,180,180,f,abs,resp,freq_top,,,,,0,292,292,227,,,1.0872137221908684,,,,,,,,,,1201.8711135339345,None,1201.8711135339345,None,f,1,1.3253013125131474,None,None,010,001,1,33,m,2021_Nov_09_1137,eye_tracking_exp,2021.2.3,84.87751076007592,
-12,180,180,12,0,0,180,180,180,180,j,abs,resp,freq_top,,,,,0,293,293,204,,,0.9339619928241797,,,,,,,,,,1209.7075204221992,None,1209.7075204221992,None,j,1,0.7041317105376947,None,None,010,001,1,33,m,2021_Nov_09_1137,eye_tracking_exp,2021.2.3,84.87751076007592,
-168,0,0,0,0,0,0,-168,180,180,f,abs,resp,freq_top,,,,,0,294,294,314,,,0.8445614657871131,,,,,,,,,,1211.5314661694647,None,1211.5314661694647,None,f,1,0.7040354214113904,None,None,010,001,1,33,m,2021_Nov_09_1137,eye_tracking_exp,2021.2.3,84.87751076007592,
168,0,180,180,180,180,0,168,180,180,f,abs,resp,freq_top,,,,,0,295,295,244,,,0.8471003538044561,,,,,,,,,,1213.4258056064418,None,1213.4258056064418,None,f,1,0.697709316403234,None,None,010,001,1,33,m,2021_Nov_09_1137,eye_tracking_exp,2021.2.3,84.87751076007592,
180,-12,180,180,0,180,0,180,0,-12,j,abs,resp,freq_top,,,,,0,296,296,118,,,0.9567417281445474,,,,,,,,,,1215.4734255596013,None,1215.4734255596013,None,j,1,0.7781421284771568,None,None,010,001,1,33,m,2021_Nov_09_1137,eye_tracking_exp,2021.2.3,84.87751076007592,
0,168,0,270,180,180,168,0,0,0,f,present,resp,freq_top,,,,,0,297,297,740,,,1.0389722837708397,,,,,,,,,,1217.6622672497142,None,1217.6622672497142,None,f,1,1.533245678527237,None,None,010,001,1,33,m,2021_Nov_09_1137,eye_tracking_exp,2021.2.3,84.87751076007592,
0,180,-168,180,90,0,180,-168,0,180,f,present,resp,freq_top,,,,,0,298,298,836,,,0.8044618746699705,,,,,,,,,,1220.451547402473,None,1220.451547402473,None,f,1,0.9518455984180036,None,None,010,001,1,33,m,2021_Nov_09_1137,eye_tracking_exp,2021.2.3,84.87751076007592,
180,180,0,180,-12,0,180,180,-12,180,j,abs,resp,freq_top,,,,,0,299,299,79,,,0.9354094389813287,,,,,,,,,,1222.6400769830052,None,1222.6400769830052,None,j,1,1.323502003802787,None,None,010,001,1,33,m,2021_Nov_09_1137,eye_tracking_exp,2021.2.3,84.87751076007592,
0,-12,0,90,0,0,-12,0,0,0,j,present,resp,freq_top,,,,,0,300,300,600,,,0.9425031943581312,,,,,,,,,,1225.1815889154614,None,1225.1815889154614,None,j,1,1.4370431827983339,None,None,010,001,1,33,m,2021_Nov_09_1137,eye_tracking_exp,2021.2.3,84.87751076007592,
12,0,168,0,0,90,0,0,180,180,None,present,inhibit,freq_top,,,,,0,301,301,979,,,0.9237652635165432,,,,,,,,,,1227.8172788572328,None,1227.8172788572328,None,None,1,,None,None,010,001,1,33,m,2021_Nov_09_1137,eye_tracking_exp,2021.2.3,84.87751076007592,
0,0,12,0,0,0,0,0,-12,0,j,abs,resp,freq_top,,,,,0,302,302,179,,,0.8771056762133291,,,,,,,,,,1231.714283903205,None,1231.714283903205,None,j,1,0.9043998108554661,None,None,010,001,1,33,m,2021_Nov_09_1137,eye_tracking_exp,2021.2.3,84.87751076007592,
180,270,0,0,0,0,0,168,0,168,f,present,resp,freq_top,,,,,0,303,303,742,,,0.720844204591196,,,,,,,,,,1233.631310748553,None,1233.631310748553,None,f,1,2.091431023926816,None,None,010,001,1,33,m,2021_Nov_09_1137,eye_tracking_exp,2021.2.3,84.87751076007592,
0,0,0,0,-168,0,0,0,0,168,f,abs,resp,freq_top,,,,,0,304,304,360,,,0.9239157138439139,,,,,,,,,,1236.9730314986182,None,1236.9730314986182,None,f,1,2.8457401132272935,None,None,010,001,1,33,m,2021_Nov_09_1137,eye_tracking_exp,2021.2.3,84.87751076007592,
-12,0,0,0,0,0,0,0,-12,180,j,abs,resp,freq_top,,,,,0,305,305,139,,,0.8974542342529884,,,,,,,,,,1241.0092129677005,None,1241.0092129677005,None,j,1,0.7285785838430456,None,None,010,001,1,33,m,2021_Nov_09_1137,eye_tracking_exp,2021.2.3,84.87751076007592,
0,-168,0,0,180,180,180,180,0,-168,f,abs,resp,freq_top,,,,,0,306,306,342,,,0.7235250677126263,,,,,,,,,,1242.750797705602,None,1242.750797705602,None,f,1,0.8750156296191562,None,None,010,001,1,33,m,2021_Nov_09_1137,eye_tracking_exp,2021.2.3,84.87751076007592,
180,0,180,0,180,180,-168,180,168,180,f,abs,resp,freq_top,,,,,0,307,307,371,,,0.7822640591098622,,,,,,,,,,1244.7881880710756,None,1244.7881880710756,None,f,1,1.5416626762453234,None,None,010,001,1,33,m,2021_Nov_09_1137,eye_tracking_exp,2021.2.3,84.87751076007592,
180,12,180,180,0,180,0,180,-12,180,j,abs,resp,freq_top,,,,,0,308,308,201,,,1.0631703203347016,,,,,,,,,,1248.0458499235874,None,1248.0458499235874,None,j,1,1.6603784147473561,None,None,010,001,1,33,m,2021_Nov_09_1137,eye_tracking_exp,2021.2.3,84.87751076007592,
0,180,168,180,0,12,180,180,180,180,None,abs,inhibit,freq_top,,,,,0,309,309,470,,,0.9390917517119078,,,,,,,,,,1250.9522261049788,None,1250.9522261049788,None,None,1,,None,None,010,001,1,33,m,2021_Nov_09_1137,eye_tracking_exp,2021.2.3,84.87751076007592,
0,270,0,-12,0,180,180,180,180,-12,j,present,resp,freq_top,,,,,0,310,310,578,,,0.9940173499609113,,,,,,,,,,1255.2372648575783,None,1255.2372648575783,None,j,1,1.2367026392503249,None,None,010,001,1,33,m,2021_Nov_09_1137,eye_tracking_exp,2021.2.3,84.87751076007592,
180,270,0,12,180,0,180,180,0,12,j,present,resp,freq_top,,,,,0,311,311,550,,,0.790831197712653,,,,,,,,,,1257.5311350435368,None,1257.5311350435368,None,j,1,0.8779858020252505,None,None,010,001,1,33,m,2021_Nov_09_1137,eye_tracking_exp,2021.2.3,84.87751076007592,
0,270,0,0,-12,0,0,-12,0,0,j,present,resp,freq_top,,,,,0,312,312,582,,,0.9867667815653448,,,,,,,,,,1259.6615192733707,None,1259.6615192733707,None,j,1,1.131940070426026,None,None,010,001,1,33,m,2021_Nov_09_1137,eye_tracking_exp,2021.2.3,84.87751076007592,
0,168,0,0,0,168,0,180,0,0,f,abs,resp,freq_top,,,,,0,313,313,268,,,0.9323088714016078,,,,,,,,,,1262.0609676181784,None,1262.0609676181784,None,f,1,0.7321627126175372,None,None,010,001,1,33,m,2021_Nov_09_1137,eye_tracking_exp,2021.2.3,84.87751076007592,
0,180,0,12,0,12,0,180,180,180,j,abs,resp,freq_top,,,,,0,314,314,0,,,0.7357800452873808,,,,,,,,,,1263.8264169669292,None,1263.8264169669292,None,j,1,0.8383409428834057,None,None,010,001,1,33,m,2021_Nov_09_1137,eye_tracking_exp,2021.2.3,84.87751076007592,
180,-12,180,-12,180,0,180,0,180,180,j,abs,resp,freq_top,,,,,0,315,315,75,,,0.9932933299201876,,,,,,,,,,1265.9109618378125,None,1265.9109618378125,None,j,1,0.9785517949403584,None,None,010,001,1,33,m,2021_Nov_09_1137,eye_tracking_exp,2021.2.3,84.87751076007592,
0,-12,0,-12,180,270,180,0,0,0,j,present,resp,freq_top,,,,,0,316,316,630,,,0.7460121467811484,,,,,,,,,,1267.9921160637132,None,1267.9921160637132,None,j,1,1.6809984744595567,None,None,010,001,1,33,m,2021_Nov_09_1137,eye_tracking_exp,2021.2.3,84.87751076007592,
0,0,168,0,0,0,0,0,-168,0,f,abs,resp,freq_top,,,,,0,317,317,389,,,0.7149532364088138,,,,,,,,,,1270.7808713049053,None,1270.7808713049053,None,f,1,1.9962529961994733,None,None,010,001,1,33,m,2021_Nov_09_1137,eye_tracking_exp,2021.2.3,84.87751076007592,
0,12,0,0,12,0,180,180,180,180,j,abs,resp,freq_top,,,,,0,318,318,12,,,0.7700536933533875,,,,,,,,,,1273.8290686909722,None,1273.8290686909722,None,j,1,1.587074318294981,None,None,010,001,1,33,m,2021_Nov_09_1137,eye_tracking_exp,2021.2.3,84.87751076007592,
180,90,180,180,168,0,0,180,-12,180,None,present,inhibit,freq_top,,,,,0,319,319,1003,,,0.8684134529126231,,,,,,,,,,1276.631738465453,None,1276.631738465453,None,None,1,,None,None,010,001,1,33,m,2021_Nov_09_1137,eye_tracking_exp,2021.2.3,84.87751076007592,
0,180,-168,180,90,-168,180,0,0,180,f,present,resp,freq_top,,,,,0,320,320,834,,,0.7999114678854393,,,,,,,,,,1280.4432312215831,None,1280.4432312215831,None,f,1,0.9570023489641244,None,None,010,001,1,33,m,2021_Nov_09_1137,eye_tracking_exp,2021.2.3,84.87751076007592,
180,168,0,0,90,180,168,0,180,180,f,present,resp,freq_top,,,,,0,321,321,773,,,0.8358116451121207,,,,,,,,,,1282.5853117126517,None,1282.5853117126517,None,f,1,1.0549700447172654,None,None,010,001,1,33,m,2021_Nov_09_1137,eye_tracking_exp,2021.2.3,84.87751076007592,
0,168,0,180,180,180,-168,0,0,0,f,abs,resp,freq_top,,,,,0,322,322,376,,,0.8764670855952844,,,,,,,,,,1284.573168416322,None,1284.573168416322,None,f,1,1.627503073547814,None,None,010,001,1,33,m,2021_Nov_09_1137,eye_tracking_exp,2021.2.3,84.87751076007592,
0,0,-12,0,0,12,0,0,0,0,j,abs,resp,freq_top,,,,,0,323,323,158,,,0.9633165672639131,,,,,,,,,,1287.5619937463389,None,1287.5619937463389,None,j,1,1.1653644709349464,None,None,010,001,1,33,m,2021_Nov_09_1137,eye_tracking_exp,2021.2.3,84.87751076007592,
0,180,168,0,180,168,180,0,180,180,f,abs,resp,freq_top,,,,,0,324,324,260,,,0.8834357242092022,,,,,,,,,,1289.8691566612006,None,1289.8691566612006,None,f,1,1.0821933047891434,None,None,010,001,1,33,m,2021_Nov_09_1137,eye_tracking_exp,2021.2.3,84.87751076007592,
0,180,0,180,168,180,168,180,180,180,f,abs,resp,freq_top,,,,,0,325,325,233,,,1.0888068953604007,,,,,,,,,,1292.374494368897,None,1292.374494368897,None,f,1,1.0568855644414725,None,None,010,001,1,33,m,2021_Nov_09_1137,eye_tracking_exp,2021.2.3,84.87751076007592,
0,-168,0,0,0,0,0,12,0,0,None,abs,inhibit,freq_top,,,,,0,326,326,480,,,1.006261970054922,,,,,,,,,,1294.7634716485882,None,1294.7634716485882,None,None,1,,None,None,010,001,1,33,m,2021_Nov_09_1137,eye_tracking_exp,2021.2.3,84.87751076007592,
180,270,180,168,180,180,0,0,180,180,f,present,resp,freq_top,,,,,0,327,327,719,,,1.0607966287600423,,,,,,,,,,1299.1533433003142,None,1299.1533433003142,None,None,0,,1302.1199213145792,None,010,001,1,33,m,2021_Nov_09_1137,eye_tracking_exp,2021.2.3,84.87751076007592,
0,0,0,0,-12,0,0,12,0,0,j,abs,resp,freq_top,,,,,0,328,328,148,,,0.9078497645889685,,,,,,,,,,1303.566458965891,None,1303.566458965891,None,j,1,1.1760691654681068,None,None,010,001,1,33,m,2021_Nov_09_1137,eye_tracking_exp,2021.2.3,84.87751076007592,
168,180,90,180,168,180,0,0,180,180,f,present,resp,freq_top,,,,,0,329,329,727,,,0.8130478962703597,,,,,,,,,,1305.8024750833029,None,1305.8024750833029,None,f,1,1.9000698186646332,None,None,010,001,1,33,m,2021_Nov_09_1137,eye_tracking_exp,2021.2.3,84.87751076007592,
0,0,180,0,12,0,0,0,180,-168,None,abs,inhibit,freq_top,,,,,0,330,330,465,,,0.9817461452163161,,,,,,,,,,1308.9794279339285,None,1308.9794279339285,None,None,1,,None,None,010,001,1,33,m,2021_Nov_09_1137,eye_tracking_exp,2021.2.3,84.87751076007592,
0,270,180,180,180,180,168,0,-168,0,f,present,resp,freq_top,,,,,0,331,331,889,,,0.9251818347263079,,,,,,,,,,1312.921956305263,None,1312.921956305263,None,f,1,1.3726568478850822,None,None,010,001,1,33,m,2021_Nov_09_1137,eye_tracking_exp,2021.2.3,84.87751076007592,
0,12,180,0,270,0,180,180,12,180,j,present,resp,freq_top,,,,,0,332,332,565,,,0.9108742390302542,,,,,,,,,,1315.5106435705584,None,1315.5106435705584,None,j,1,0.8960537471339194,None,None,010,001,1,33,m,2021_Nov_09_1137,eye_tracking_exp,2021.2.3,84.87751076007592,
180,180,180,-12,180,12,0,180,0,180,j,abs,resp,freq_top,,,,,0,333,333,157,,,0.7755896686516024,,,,,,,,,,1317.5816352187594,None,1317.5816352187594,None,j,1,1.0650022246036315,None,None,010,001,1,33,m,2021_Nov_09_1137,eye_tracking_exp,2021.2.3,84.87751076007592,
0,0,-168,0,0,-168,0,0,0,0,f,abs,resp,freq_top,,,,,0,334,334,298,,,0.9758153403771077,,,,,,,,,,1320.0652363354711,None,1320.0652363354711,None,f,1,0.8044996919588812,None,None,010,001,1,33,m,2021_Nov_09_1137,eye_tracking_exp,2021.2.3,84.87751076007592,
-12,0,0,0,0,0,0,-12,180,180,j,abs,resp,freq_top,,,,,0,335,335,104,,,0.8867400615622314,,,,,,,,,,1326.9959380477576,None,1326.9959380477576,None,j,1,0.9299475194011393,None,None,010,001,1,33,m,2021_Nov_09_1137,eye_tracking_exp,2021.2.3,84.87751076007592,
-168,180,0,180,270,180,0,-168,0,0,f,present,resp,freq_top,,,,,0,336,336,852,,,0.9282741344767004,,,,,,,,,,1329.1720753083591,None,1329.1720753083591,None,f,1,0.7377498966852727,None,None,010,001,1,33,m,2021_Nov_09_1137,eye_tracking_exp,2021.2.3,84.87751076007592,
12,180,180,90,0,12,0,0,180,180,j,present,resp,freq_top,,,,,0,337,337,570,,,0.8382676370859585,,,,,,,,,,1331.0196514333647,None,1331.0196514333647,None,j,1,1.0022712174823027,None,None,010,001,1,33,m,2021_Nov_09_1137,eye_tracking_exp,2021.2.3,84.87751076007592,
12,0,0,-168,0,0,180,180,180,180,None,abs,inhibit,freq_top,,,,,0,338,338,426,,,0.750616845185949,,,,,,,,,,1332.820071543726,None,1332.820071543726,None,None,1,,None,None,010,001,1,33,m,2021_Nov_09_1137,eye_tracking_exp,2021.2.3,84.87751076007592,
270,180,180,168,0,180,0,180,168,180,f,present,resp,freq_top,,,,,0,339,339,717,,,1.0641754892515192,,,,,,,,,,1336.9042964570135,None,1336.9042964570135,None,f,1,1.4205481613080337,None,None,010,001,1,33,m,2021_Nov_09_1137,eye_tracking_exp,2021.2.3,84.87751076007592,
