ori10,ori11,ori12,ori13,ori14,ori16,ori17,ori18,ori19,ori20,corrAns,distractor,respon,dist_freq,practice_trials.thisRepN,practice_trials.thisTrialN,practice_trials.thisN,practice_trials.thisIndex,trials.thisRepN,trials.thisTrialN,trials.thisN,trials.thisIndex,key_resp.keys,key_resp.rt,fixdur,int14_2.started,int14_2.stopped,per15_2.started,per15_2.stopped,response_pract.keys,response_pract.corr,response_pract.rt,key_resp_2.keys,key_resp_2.rt,int14.started,int14.stopped,per15.started,per15.stopped,response.keys,response.corr,response.rt,text_7.started,text_7.stopped,participant,session,1=top 2=bottom,age,gender,date,expName,psychopyVersion,frameRate,
,,,,,,,,,,,,,,,,,,,,,,space,138.7662798051715,,,,,,,,,,,,,,,,,,,,011,001,1,24,f,2021_Nov_09_1400,eye_tracking_exp,2021.2.3,84.96850490682301,
0,0,0,-168,0,0,0,12,0,0,None,abs,inhibit,pract,0,0,0,23,,,,,,,1.0280642383879124,422.766789246647,None,422.766789246647,None,None,1,,,,,,,,,,,,,011,001,1,24,f,2021_Nov_09_1400,eye_tracking_exp,2021.2.3,84.96850490682301,
180,180,180,-168,180,180,12,180,0,180,None,abs,inhibit,pract,0,1,1,22,,,,,,,0.8387995729335254,426.8852269842573,None,426.8852269842573,None,None,1,,,,,,,,,,,,,011,001,1,24,f,2021_Nov_09_1400,eye_tracking_exp,2021.2.3,84.96850490682301,
180,180,0,168,180,180,180,180,168,180,f,abs,resp,pract,0,2,2,10,,,,,,,0.7625842900523927,430.65098934812886,None,430.65098934812886,None,f,1,0.9305732014599926,,,,,,,,,,,,011,001,1,24,f,2021_Nov_09_1400,eye_tracking_exp,2021.2.3,84.96850490682301,
0,0,180,0,168,0,0,0,180,168,f,abs,resp,pract,0,3,3,17,,,,,,,0.9254770539711745,432.75834055501764,None,432.75834055501764,None,f,1,1.176002410991714,,,,,,,,,,,,011,001,1,24,f,2021_Nov_09_1400,eye_tracking_exp,2021.2.3,84.96850490682301,
180,0,180,0,168,180,0,180,12,180,None,abs,inhibit,pract,0,4,4,30,,,,,,,0.8801989364031667,435.2870324506421,None,435.2870324506421,None,None,1,,,,,,,,,,,,,011,001,1,24,f,2021_Nov_09_1400,eye_tracking_exp,2021.2.3,84.96850490682301,
168,0,180,0,0,180,180,0,168,0,f,abs,resp,pract,0,5,5,13,,,,,,,0.8535796805148181,439.4408852683373,None,439.4408852683373,None,f,1,0.9408824766960606,,,,,,,,,,,,011,001,1,24,f,2021_Nov_09_1400,eye_tracking_exp,2021.2.3,84.96850490682301,
90,0,0,12,0,0,0,12,0,0,j,present,resp,pract,0,6,6,34,,,,,,,0.7684800653542956,441.39397948468104,None,441.39397948468104,None,j,1,1.2916740246237168,,,,,,,,,,,,011,001,1,24,f,2021_Nov_09_1400,eye_tracking_exp,2021.2.3,84.96850490682301,
0,180,0,0,180,168,180,0,0,168,f,abs,resp,pract,0,7,7,16,,,,,,,1.0523525449609883,444.019849143011,None,444.019849143011,None,f,1,0.921221384234741,,,,,,,,,,,,011,001,1,24,f,2021_Nov_09_1400,eye_tracking_exp,2021.2.3,84.96850490682301,
180,270,0,0,168,0,0,168,180,0,f,present,resp,pract,0,8,8,45,,,,,,,1.076030659444449,446.31311442800506,None,446.31311442800506,None,f,1,0.883982545850813,,,,,,,,,,,,011,001,1,24,f,2021_Nov_09_1400,eye_tracking_exp,2021.2.3,84.96850490682301,
180,0,180,12,180,180,12,180,180,180,j,abs,resp,pract,0,9,9,1,,,,,,,1.0953031626302026,448.37116862097355,None,448.37116862097355,None,j,1,1.0033037890134437,,,,,,,,,,,,011,001,1,24,f,2021_Nov_09_1400,eye_tracking_exp,2021.2.3,84.96850490682301,
180,0,180,0,12,180,180,180,12,180,j,abs,resp,pract,0,10,10,9,,,,,,,0.7072200451273672,450.34781081088295,None,450.34781081088295,None,j,1,0.6890254397894751,,,,,,,,,,,,011,001,1,24,f,2021_Nov_09_1400,eye_tracking_exp,2021.2.3,84.96850490682301,
180,270,180,12,180,0,12,180,0,180,j,present,resp,pract,0,11,11,33,,,,,,,1.0591731654700585,452.3735405330426,None,452.3735405330426,None,j,1,0.711844755205675,,,,,,,,,,,,011,001,1,24,f,2021_Nov_09_1400,eye_tracking_exp,2021.2.3,84.96850490682301,
180,270,180,12,180,180,180,180,12,180,j,present,resp,pract,0,12,12,35,,,,,,,0.7588551992623531,453.92462432903267,None,453.92462432903267,None,j,1,0.6644089285891823,,,,,,,,,,,,011,001,1,24,f,2021_Nov_09_1400,eye_tracking_exp,2021.2.3,84.96850490682301,
0,0,0,0,168,0,0,12,0,0,None,abs,inhibit,pract,0,13,13,29,,,,,,,0.9772348040543566,455.8307282446185,None,455.8307282446185,None,None,1,,,,,,,,,,,,,011,001,1,24,f,2021_Nov_09_1400,eye_tracking_exp,2021.2.3,84.96850490682301,
0,168,180,90,0,180,0,168,0,0,f,present,resp,pract,0,14,14,48,,,,,,,1.021433442429553,459.973484570648,None,459.973484570648,None,f,1,1.2388710602481297,,,,,,,,,,,,011,001,1,24,f,2021_Nov_09_1400,eye_tracking_exp,2021.2.3,84.96850490682301,
90,0,0,12,0,180,180,180,0,12,j,present,resp,pract,0,15,15,36,,,,,,,1.056913695495343,462.53935855746204,None,462.53935855746204,None,j,1,0.816563858092195,,,,,,,,,,,,011,001,1,24,f,2021_Nov_09_1400,eye_tracking_exp,2021.2.3,84.96850490682301,
12,0,0,12,0,0,90,180,180,0,j,present,resp,pract,0,16,16,38,,,,,,,0.9633842646477154,464.5760154352374,None,464.5760154352374,None,j,1,1.020005877398944,,,,,,,,,,,,011,001,1,24,f,2021_Nov_09_1400,eye_tracking_exp,2021.2.3,84.96850490682301,
0,180,0,12,0,180,180,180,0,12,j,abs,resp,pract,0,17,17,4,,,,,,,0.7197905184248506,466.50466911705917,None,466.50466911705917,None,j,1,0.7393650325193448,,,,,,,,,,,,011,001,1,24,f,2021_Nov_09_1400,eye_tracking_exp,2021.2.3,84.96850490682301,
0,0,168,0,0,0,0,0,168,0,f,abs,resp,pract,0,18,18,11,,,,,,,1.0662231646584412,468.54009144146585,None,468.54009144146585,None,f,1,0.6398914231340314,,,,,,,,,,,,011,001,1,24,f,2021_Nov_09_1400,eye_tracking_exp,2021.2.3,84.96850490682301,
0,180,0,180,168,180,12,180,0,180,None,abs,inhibit,pract,0,19,19,28,,,,,,,1.072390935260942,470.45792240666015,None,470.45792240666015,None,None,1,,,,,,,,,,,,,011,001,1,24,f,2021_Nov_09_1400,eye_tracking_exp,2021.2.3,84.96850490682301,
180,180,0,168,180,180,180,0,0,168,f,abs,resp,pract,0,20,20,18,,,,,,,0.9057153965294551,474.37679836543975,None,474.37679836543975,None,f,1,0.7552759804711968,,,,,,,,,,,,011,001,1,24,f,2021_Nov_09_1400,eye_tracking_exp,2021.2.3,84.96850490682301,
0,180,0,12,0,180,180,12,0,0,j,abs,resp,pract,0,21,21,2,,,,,,,0.7196450677871489,476.01206934386573,None,476.01206934386573,None,j,1,0.7989969786558504,,,,,,,,,,,,011,001,1,24,f,2021_Nov_09_1400,eye_tracking_exp,2021.2.3,84.96850490682301,
0,270,0,0,12,0,0,12,0,0,j,present,resp,pract,0,22,22,40,,,,,,,1.0989018127778984,478.11837585901776,None,478.11837585901776,None,j,1,0.6287940259280731,,,,,,,,,,,,011,001,1,24,f,2021_Nov_09_1400,eye_tracking_exp,2021.2.3,84.96850490682301,
180,0,180,12,0,180,180,0,12,180,j,abs,resp,pract,0,23,23,3,,,,,,,1.0017013254083023,479.94220026387484,None,479.94220026387484,None,j,1,0.596957037683751,,,,,,,,,,,,011,001,1,24,f,2021_Nov_09_1400,eye_tracking_exp,2021.2.3,84.96850490682301,
180,0,90,180,12,0,180,180,12,180,j,present,resp,pract,0,24,24,41,,,,,,,0.9256917465688438,481.50707513781526,None,481.50707513781526,None,j,1,0.7299190390967851,,,,,,,,,,,,011,001,1,24,f,2021_Nov_09_1400,eye_tracking_exp,2021.2.3,84.96850490682301,
0,0,0,-168,180,180,180,180,0,12,None,abs,inhibit,pract,0,25,25,25,,,,,,,0.9053519578954698,483.4015449726048,None,483.4015449726048,None,None,1,,,,,,,,,,,,,011,001,1,24,f,2021_Nov_09_1400,eye_tracking_exp,2021.2.3,84.96850490682301,
180,168,180,0,180,0,180,0,0,168,f,abs,resp,pract,0,26,26,20,,,,,,,0.8514319008472511,487.4979970956301,None,487.4979970956301,None,f,1,0.5929451920073916,,,,,,,,,,,,011,001,1,24,f,2021_Nov_09_1400,eye_tracking_exp,2021.2.3,84.96850490682301,
0,270,0,0,12,0,180,180,180,12,j,present,resp,pract,0,27,27,42,,,,,,,0.7345236048682858,488.9675901065493,None,488.9675901065493,None,j,1,0.7076901359996555,,,,,,,,,,,,011,001,1,24,f,2021_Nov_09_1400,eye_tracking_exp,2021.2.3,84.96850490682301,
180,168,0,180,0,180,180,180,168,180,f,abs,resp,pract,0,28,28,12,,,,,,,0.7078015636525246,490.62679542243313,None,490.62679542243313,None,f,1,0.7284617227996932,,,,,,,,,,,,011,001,1,24,f,2021_Nov_09_1400,eye_tracking_exp,2021.2.3,84.96850490682301,
0,180,180,180,12,0,180,12,0,0,j,abs,resp,pract,0,29,29,8,,,,,,,1.046005898191396,492.61505750634024,None,492.61505750634024,None,j,1,0.6282096505437949,,,,,,,,,,,,011,001,1,24,f,2021_Nov_09_1400,eye_tracking_exp,2021.2.3,84.96850490682301,
0,180,0,0,180,0,180,168,0,168,f,abs,resp,pract,0,30,30,14,,,,,,,0.8751655811564208,494.4035815328916,None,494.4035815328916,None,j,0,0.5987385374337464,,,,,,,,,,,,011,001,1,24,f,2021_Nov_09_1400,eye_tracking_exp,2021.2.3,84.96850490682301,
0,0,168,0,0,0,0,0,180,168,f,abs,resp,pract,0,31,31,19,,,,,,,0.7368522175286352,523.8054494815624,None,523.8054494815624,None,f,1,1.0991872326867451,,,,,,,,,,,,011,001,1,24,f,2021_Nov_09_1400,eye_tracking_exp,2021.2.3,84.96850490682301,
180,12,180,-168,180,180,0,180,180,180,None,abs,inhibit,pract,0,32,32,26,,,,,,,1.0764024176660285,526.1576189600837,None,526.1576189600837,None,None,1,,,,,,,,,,,,,011,001,1,24,f,2021_Nov_09_1400,eye_tracking_exp,2021.2.3,84.96850490682301,
0,180,180,180,168,0,0,0,0,12,None,abs,inhibit,pract,0,33,33,31,,,,,,,1.0834611700001942,530.2530366541614,None,530.2530366541614,None,None,1,,,,,,,,,,,,,011,001,1,24,f,2021_Nov_09_1400,eye_tracking_exp,2021.2.3,84.96850490682301,
0,0,180,0,0,0,168,0,180,168,f,abs,resp,pract,0,34,34,15,,,,,,,0.8507831862633979,534.1245576812616,None,534.1245576812616,None,f,1,0.7481925418705941,,,,,,,,,,,,011,001,1,24,f,2021_Nov_09_1400,eye_tracking_exp,2021.2.3,84.96850490682301,
90,0,0,12,0,12,180,180,180,0,j,present,resp,pract,0,35,35,32,,,,,,,0.731295261427497,535.7720866577984,None,535.7720866577984,None,j,1,0.8288801126327598,,,,,,,,,,,,011,001,1,24,f,2021_Nov_09_1400,eye_tracking_exp,2021.2.3,84.96850490682301,
180,270,0,0,0,0,0,168,0,168,f,present,resp,pract,0,36,36,43,,,,,,,0.7873946779476919,537.6208451166767,None,537.6208451166767,None,f,1,1.0919371746549587,,,,,,,,,,,,011,001,1,24,f,2021_Nov_09_1400,eye_tracking_exp,2021.2.3,84.96850490682301,
180,0,180,0,12,0,12,180,180,180,j,abs,resp,pract,0,37,37,7,,,,,,,0.9584632226484731,539.9370175545027,None,539.9370175545027,None,j,1,0.6629917579120956,,,,,,,,,,,,011,001,1,24,f,2021_Nov_09_1400,eye_tracking_exp,2021.2.3,84.96850490682301,
0,180,0,12,0,12,0,180,180,180,j,abs,resp,pract,0,38,38,0,,,,,,,0.7573147597656312,541.456014734953,None,541.456014734953,None,j,1,0.6328698631241423,,,,,,,,,,,,011,001,1,24,f,2021_Nov_09_1400,eye_tracking_exp,2021.2.3,84.96850490682301,
180,12,180,12,180,90,180,180,0,180,j,present,resp,pract,0,39,39,37,,,,,,,0.9577741098624106,543.2435583631323,None,543.2435583631323,None,j,1,0.9402751609577535,,,,,,,,,,,,011,001,1,24,f,2021_Nov_09_1400,eye_tracking_exp,2021.2.3,84.96850490682301,
180,180,90,180,12,180,12,0,0,180,j,present,resp,pract,0,40,40,39,,,,,,,0.9067869406044549,545.3970405129694,None,545.3970405129694,None,j,1,0.7229726389377902,,,,,,,,,,,,011,001,1,24,f,2021_Nov_09_1400,eye_tracking_exp,2021.2.3,84.96850490682301,
0,180,0,-168,180,0,180,0,12,180,None,abs,inhibit,pract,0,41,41,24,,,,,,,0.9092634166551561,547.2325753658606,None,547.2325753658606,None,None,1,,,,,,,,,,,,,011,001,1,24,f,2021_Nov_09_1400,eye_tracking_exp,2021.2.3,84.96850490682301,
90,0,180,168,180,180,0,168,0,0,f,present,resp,pract,0,42,42,46,,,,,,,1.0877029063604222,551.339427620007,None,551.339427620007,None,f,1,0.6524977524386486,,,,,,,,,,,,011,001,1,24,f,2021_Nov_09_1400,eye_tracking_exp,2021.2.3,84.96850490682301,
12,0,0,12,0,0,180,0,180,180,j,abs,resp,pract,0,43,43,6,,,,,,,0.8320845563968566,553.010580937349,None,553.010580937349,None,j,1,0.8693324119358294,,,,,,,,,,,,011,001,1,24,f,2021_Nov_09_1400,eye_tracking_exp,2021.2.3,84.96850490682301,
180,12,180,12,0,180,0,180,180,180,j,abs,resp,pract,0,44,44,5,,,,,,,1.082638832444771,555.0831750901543,None,555.0831750901543,None,j,1,0.6519480894367007,,,,,,,,,,,,011,001,1,24,f,2021_Nov_09_1400,eye_tracking_exp,2021.2.3,84.96850490682301,
0,0,0,-168,0,12,0,0,0,0,None,abs,inhibit,pract,0,45,45,21,,,,,,,0.9784251987905039,556.8697935579257,None,556.8697935579257,None,None,1,,,,,,,,,,,,,011,001,1,24,f,2021_Nov_09_1400,eye_tracking_exp,2021.2.3,84.96850490682301,
12,0,0,-168,0,0,180,180,180,180,None,abs,inhibit,pract,0,46,46,27,,,,,,,1.0069030139751676,560.8945305059951,None,560.8945305059951,None,None,1,,,,,,,,,,,,,011,001,1,24,f,2021_Nov_09_1400,eye_tracking_exp,2021.2.3,84.96850490682301,
90,0,180,180,180,168,0,168,0,0,f,present,resp,pract,0,47,47,44,,,,,,,0.9353123582340824,564.8493404194887,None,564.8493404194887,None,f,1,0.6618613416867447,,,,,,,,,,,,011,001,1,24,f,2021_Nov_09_1400,eye_tracking_exp,2021.2.3,84.96850490682301,
180,180,168,0,270,0,0,168,0,180,f,present,resp,pract,0,48,48,47,,,,,,,1.0367055481798704,566.7661487277601,None,566.7661487277601,None,f,1,1.2089559305095463,,,,,,,,,,,,011,001,1,24,f,2021_Nov_09_1400,eye_tracking_exp,2021.2.3,84.96850490682301,
168,0,270,180,180,180,180,168,180,180,f,present,resp,pract,0,49,49,49,,,,,,,0.9762488208169506,569.1199436512416,None,569.1199436512416,None,f,1,1.047316974887508,,,,,,,,,,,,011,001,1,24,f,2021_Nov_09_1400,eye_tracking_exp,2021.2.3,84.96850490682301,
,,,,,,,,,,,,,,,,,,,,,,,,,,,,,,,,space,4.893059380648992,,,,,,,,,,011,001,1,24,f,2021_Nov_09_1400,eye_tracking_exp,2021.2.3,84.96850490682301,
180,180,-168,0,90,0,0,-168,180,180,f,present,resp,freq_top,,,,,0,0,0,816,,,0.9600627017597363,,,,,,,,,,577.2859826275089,None,577.2859826275089,None,f,1,0.9445580650499323,None,None,011,001,1,24,f,2021_Nov_09_1400,eye_tracking_exp,2021.2.3,84.96850490682301,
0,0,0,-168,0,-168,0,0,0,0,f,abs,resp,freq_top,,,,,0,1,1,280,,,1.0689889057042414,,,,,,,,,,579.6031532726684,None,579.6031532726684,None,f,1,0.5951350904633728,None,None,011,001,1,24,f,2021_Nov_09_1400,eye_tracking_exp,2021.2.3,84.96850490682301,
180,12,180,180,12,0,270,0,180,180,j,present,resp,freq_top,,,,,0,2,2,561,,,0.9581423058359901,,,,,,,,,,581.4740455529063,None,581.4740455529063,None,j,1,1.2842787782883534,None,None,011,001,1,24,f,2021_Nov_09_1400,eye_tracking_exp,2021.2.3,84.96850490682301,
90,0,12,0,0,180,180,0,168,0,None,present,inhibit,freq_top,,,,,0,3,3,963,,,0.9533845284592704,,,,,,,,,,583.9459365234306,None,583.9459365234306,None,None,1,,None,None,011,001,1,24,f,2021_Nov_09_1400,eye_tracking_exp,2021.2.3,84.96850490682301,
0,12,180,0,270,180,0,180,-12,0,j,present,resp,freq_top,,,,,0,4,4,705,,,0.9930034794788662,,,,,,,,,,587.969549394058,None,587.969549394058,None,None,0,,590.9371862868593,None,011,001,1,24,f,2021_Nov_09_1400,eye_tracking_exp,2021.2.3,84.96850490682301,
180,180,0,180,0,180,-12,180,12,180,j,abs,resp,freq_top,,,,,0,5,5,161,,,0.8131225180139054,,,,,,,,,,592.2898127614171,None,592.2898127614171,None,j,1,1.2036506713429844,None,None,011,001,1,24,f,2021_Nov_09_1400,eye_tracking_exp,2021.2.3,84.96850490682301,
180,168,0,270,180,0,180,0,168,180,f,present,resp,freq_top,,,,,0,6,6,754,,,0.9014180148436695,,,,,,,,,,594.6658528877233,None,594.6658528877233,None,f,1,0.8916077994399529,None,None,011,001,1,24,f,2021_Nov_09_1400,eye_tracking_exp,2021.2.3,84.96850490682301,
0,0,0,12,0,0,-12,0,0,0,j,abs,resp,freq_top,,,,,0,7,7,164,,,0.9681417041635585,,,,,,,,,,596.7604024704342,None,596.7604024704342,None,j,1,1.149031192988332,None,None,011,001,1,24,f,2021_Nov_09_1400,eye_tracking_exp,2021.2.3,84.96850490682301,
12,0,180,180,90,180,-12,180,180,180,j,present,resp,freq_top,,,,,0,8,8,671,,,0.7202581422180706,,,,,,,,,,598.7370259458439,None,598.7370259458439,None,j,1,0.9004724359438114,None,None,011,001,1,24,f,2021_Nov_09_1400,eye_tracking_exp,2021.2.3,84.96850490682301,
0,-168,180,270,0,180,0,-168,0,0,f,present,resp,freq_top,,,,,0,9,9,817,,,0.7107065345008559,,,,,,,,,,600.5854233959635,None,600.5854233959635,None,f,1,0.8283093203554017,None,None,011,001,1,24,f,2021_Nov_09_1400,eye_tracking_exp,2021.2.3,84.96850490682301,
180,180,180,0,0,180,168,180,12,180,None,abs,inhibit,freq_top,,,,,0,10,10,441,,,0.7161591306893452,,,,,,,,,,602.3145189211155,None,602.3145189211155,None,None,1,,None,None,011,001,1,24,f,2021_Nov_09_1400,eye_tracking_exp,2021.2.3,84.96850490682301,
180,0,0,180,180,-168,180,180,0,-168,f,abs,resp,freq_top,,,,,0,11,11,324,,,1.0573333164608831,,,,,,,,,,606.3750213933909,None,606.3750213933909,None,f,1,0.5739306553696224,None,None,011,001,1,24,f,2021_Nov_09_1400,eye_tracking_exp,2021.2.3,84.96850490682301,
0,0,0,0,-12,180,180,180,0,12,j,abs,resp,freq_top,,,,,0,12,12,150,,,0.707315180595216,,,,,,,,,,607.7031859023064,None,607.7031859023064,None,j,1,1.9974506779235526,None,None,011,001,1,24,f,2021_Nov_09_1400,eye_tracking_exp,2021.2.3,84.96850490682301,
12,0,180,180,180,0,0,0,12,180,j,abs,resp,freq_top,,,,,0,13,13,69,,,0.867946579202407,,,,,,,,,,610.880372080499,None,610.880372080499,None,j,1,0.7882793047101586,None,None,011,001,1,24,f,2021_Nov_09_1400,eye_tracking_exp,2021.2.3,84.96850490682301,
-12,0,270,0,0,12,0,0,0,0,j,present,resp,freq_top,,,,,0,14,14,664,,,0.9869723480516865,,,,,,,,,,612.7159102537044,None,612.7159102537044,None,j,1,0.7927406002545467,None,None,011,001,1,24,f,2021_Nov_09_1400,eye_tracking_exp,2021.2.3,84.96850490682301,
0,0,180,0,180,180,-12,0,-12,0,j,abs,resp,freq_top,,,,,0,15,15,105,,,1.0327202745480084,,,,,,,,,,615.047151788789,None,615.047151788789,None,j,1,0.8455544311163976,None,None,011,001,1,24,f,2021_Nov_09_1400,eye_tracking_exp,2021.2.3,84.96850490682301,
0,270,0,0,168,0,0,168,0,0,f,present,resp,freq_top,,,,,0,16,16,722,,,0.7548707952979841,,,,,,,,,,616.8460991886659,None,616.8460991886659,None,f,1,0.8376481581653934,None,None,011,001,1,24,f,2021_Nov_09_1400,eye_tracking_exp,2021.2.3,84.96850490682301,
180,180,0,180,90,168,180,180,0,168,f,present,resp,freq_top,,,,,0,17,17,758,,,0.9313950510470412,,,,,,,,,,618.9412301282937,None,618.9412301282937,None,f,1,0.8064531980417087,None,None,011,001,1,24,f,2021_Nov_09_1400,eye_tracking_exp,2021.2.3,84.96850490682301,
180,0,180,12,180,-168,180,180,180,180,None,abs,inhibit,freq_top,,,,,0,18,18,437,,,1.0544005471325724,,,,,,,,,,621.1178005390375,None,621.1178005390375,None,None,1,,None,None,011,001,1,24,f,2021_Nov_09_1400,eye_tracking_exp,2021.2.3,84.96850490682301,
0,90,0,0,-168,0,180,180,180,168,f,present,resp,freq_top,,,,,0,19,19,864,,,0.8530338761108813,,,,,,,,,,624.989497542816,None,624.989497542816,None,f,1,1.2062740217879764,None,None,011,001,1,24,f,2021_Nov_09_1400,eye_tracking_exp,2021.2.3,84.96850490682301,
90,0,180,0,0,180,168,0,180,168,f,present,resp,freq_top,,,,,0,20,20,757,,,0.7102656899085519,,,,,,,,,,627.0369309546586,None,627.0369309546586,None,f,1,0.7269087210679572,None,None,011,001,1,24,f,2021_Nov_09_1400,eye_tracking_exp,2021.2.3,84.96850490682301,
-12,0,0,0,0,12,0,0,0,0,j,abs,resp,freq_top,,,,,0,21,21,160,,,1.0672593880391565,,,,,,,,,,628.9429141315304,None,628.9429141315304,None,j,1,0.9648503191474447,None,None,011,001,1,24,f,2021_Nov_09_1400,eye_tracking_exp,2021.2.3,84.96850490682301,
-12,0,90,0,0,-12,0,0,0,0,j,present,resp,freq_top,,,,,0,22,22,594,,,0.9665616414982363,,,,,,,,,,631.1311678240982,None,631.1311678240982,None,j,1,1.0493988121925213,None,None,011,001,1,24,f,2021_Nov_09_1400,eye_tracking_exp,2021.2.3,84.96850490682301,
0,0,12,0,180,180,180,180,180,-168,None,abs,inhibit,freq_top,,,,,0,23,23,467,,,0.7363530207067456,,,,,,,,,,633.2032144268269,None,633.2032144268269,None,None,1,,None,None,011,001,1,24,f,2021_Nov_09_1400,eye_tracking_exp,2021.2.3,84.96850490682301,
0,168,0,168,0,180,0,180,90,0,f,present,resp,freq_top,,,,,0,24,24,770,,,0.9298580356858757,,,,,,,,,,637.1325031942924,None,637.1325031942924,None,f,1,0.7914112669950555,None,None,011,001,1,24,f,2021_Nov_09_1400,eye_tracking_exp,2021.2.3,84.96850490682301,
90,180,0,0,168,180,180,180,168,180,f,present,resp,freq_top,,,,,0,25,25,723,,,0.8807004000463363,,,,,,,,,,639.0035750733714,None,639.0035750733714,None,f,1,0.6954061790656851,None,None,011,001,1,24,f,2021_Nov_09_1400,eye_tracking_exp,2021.2.3,84.96850490682301,
180,180,90,180,180,180,-168,180,-168,0,f,present,resp,freq_top,,,,,0,26,26,805,,,0.7191028093687604,,,,,,,,,,640.6510681301406,None,640.6510681301406,None,f,1,0.5999453208969499,None,None,011,001,1,24,f,2021_Nov_09_1400,eye_tracking_exp,2021.2.3,84.96850490682301,
0,12,0,0,0,12,0,180,0,0,j,abs,resp,freq_top,,,,,0,27,27,58,,,0.7807648750476051,,,,,,,,,,642.3099012689327,None,642.3099012689327,None,j,1,0.7810253226725763,None,None,011,001,1,24,f,2021_Nov_09_1400,eye_tracking_exp,2021.2.3,84.96850490682301,
0,168,180,180,-168,0,0,270,0,0,f,present,resp,freq_top,,,,,0,28,28,866,,,0.9752705703886335,,,,,,,,,,644.2630353290533,None,644.2630353290533,None,j,0,0.7959727756733628,645.0877079233869,None,011,001,1,24,f,2021_Nov_09_1400,eye_tracking_exp,2021.2.3,84.96850490682301,
0,0,0,0,0,0,-168,0,180,-168,f,abs,resp,freq_top,,,,,0,29,29,323,,,0.7897742836105277,,,,,,,,,,646.4287781936218,None,646.4287781936218,None,f,1,0.7262458655186492,None,None,011,001,1,24,f,2021_Nov_09_1400,eye_tracking_exp,2021.2.3,84.96850490682301,
90,180,12,0,180,180,180,-168,180,180,None,present,inhibit,freq_top,,,,,0,30,30,956,,,0.7180273354611143,,,,,,,,,,648.0634632874317,None,648.0634632874317,None,None,1,,None,None,011,001,1,24,f,2021_Nov_09_1400,eye_tracking_exp,2021.2.3,84.96850490682301,
180,0,180,12,0,180,180,0,12,180,j,abs,resp,freq_top,,,,,0,31,31,3,,,0.8503813046621329,,,,,,,,,,651.9236701913305,None,651.9236701913305,None,j,1,0.6394247679982072,None,None,011,001,1,24,f,2021_Nov_09_1400,eye_tracking_exp,2021.2.3,84.96850490682301,
-12,0,0,-168,0,0,0,0,0,0,None,abs,inhibit,freq_top,,,,,0,32,32,496,,,1.0796145170557154,,,,,,,,,,653.7004218912571,None,653.7004218912571,None,None,1,,None,None,011,001,1,24,f,2021_Nov_09_1400,eye_tracking_exp,2021.2.3,84.96850490682301,
90,180,180,-12,0,0,180,180,-12,0,j,present,resp,freq_top,,,,,0,33,33,577,,,0.9167720688810951,,,,,,,,,,657.6324487109487,None,657.6324487109487,None,j,1,0.8830039585591294,None,None,011,001,1,24,f,2021_Nov_09_1400,eye_tracking_exp,2021.2.3,84.96850490682301,
168,0,180,0,180,180,12,180,180,180,None,abs,inhibit,freq_top,,,,,0,34,34,487,,,0.9164159466510524,,,,,,,,,,659.5030213354366,None,659.5030213354366,None,None,1,,None,None,011,001,1,24,f,2021_Nov_09_1400,eye_tracking_exp,2021.2.3,84.96850490682301,
0,0,0,0,0,-168,0,-168,0,0,f,abs,resp,freq_top,,,,,0,35,35,294,,,0.817066205305947,,,,,,,,,,663.3521824579311,None,663.3521824579311,None,f,1,0.6812124374973791,None,None,011,001,1,24,f,2021_Nov_09_1400,eye_tracking_exp,2021.2.3,84.96850490682301,
12,0,0,12,0,0,180,0,180,180,j,abs,resp,freq_top,,,,,0,36,36,6,,,0.7998694367920407,,,,,,,,,,665.1626447091239,None,665.1626447091239,None,j,1,0.6307412395672145,None,None,011,001,1,24,f,2021_Nov_09_1400,eye_tracking_exp,2021.2.3,84.96850490682301,
-12,0,0,180,12,180,180,180,180,180,j,abs,resp,freq_top,,,,,0,37,37,205,,,1.0103322153343637,,,,,,,,,,667.0216028728573,None,667.0216028728573,None,j,1,0.7077157929761597,None,None,011,001,1,24,f,2021_Nov_09_1400,eye_tracking_exp,2021.2.3,84.96850490682301,
180,90,180,180,168,0,0,180,-12,180,None,present,inhibit,freq_top,,,,,0,38,38,1003,,,0.723083937528223,,,,,,,,,,668.6335543757359,None,668.6335543757359,None,None,1,,None,None,011,001,1,24,f,2021_Nov_09_1400,eye_tracking_exp,2021.2.3,84.96850490682301,
-168,180,0,180,270,180,0,-168,0,0,f,present,resp,freq_top,,,,,0,39,39,852,,,0.9727942718055591,,,,,,,,,,672.9290158979675,None,672.9290158979675,None,f,1,0.7843006621824316,None,None,011,001,1,24,f,2021_Nov_09_1400,eye_tracking_exp,2021.2.3,84.96850490682301,
-12,180,180,180,270,180,180,-12,0,0,j,present,resp,freq_top,,,,,0,40,40,642,,,0.7351454102609111,,,,,,,,,,674.7173346687032,None,674.7173346687032,None,j,1,0.7401151217909501,None,None,011,001,1,24,f,2021_Nov_09_1400,eye_tracking_exp,2021.2.3,84.96850490682301,
180,0,0,180,180,-12,180,180,0,12,j,abs,resp,freq_top,,,,,0,41,41,184,,,1.033906180509933,,,,,,,,,,676.8706538212737,None,676.8706538212737,None,j,1,0.6028557276385982,None,None,011,001,1,24,f,2021_Nov_09_1400,eye_tracking_exp,2021.2.3,84.96850490682301,
0,12,0,0,-12,180,180,180,270,0,j,present,resp,freq_top,,,,,0,42,42,656,,,0.7606956382440662,,,,,,,,,,685.6259312350758,None,685.6259312350758,None,j,1,0.982115653643632,None,None,011,001,1,24,f,2021_Nov_09_1400,eye_tracking_exp,2021.2.3,84.96850490682301,
90,180,180,-168,0,180,-12,180,0,180,None,present,inhibit,freq_top,,,,,0,43,43,995,,,0.9281423161394842,,,,,,,,,,687.7432023348447,None,687.7432023348447,None,None,1,,None,None,011,001,1,24,f,2021_Nov_09_1400,eye_tracking_exp,2021.2.3,84.96850490682301,
0,0,0,0,0,0,12,0,0,12,j,abs,resp,freq_top,,,,,0,44,44,22,,,1.056015753596765,,,,,,,,,,691.8252536494019,None,691.8252536494019,None,j,1,0.6072681240038946,None,None,011,001,1,24,f,2021_Nov_09_1400,eye_tracking_exp,2021.2.3,84.96850490682301,
-168,0,90,180,180,168,0,0,0,0,f,present,resp,freq_top,,,,,0,45,45,874,,,0.9671586253891078,,,,,,,,,,693.472647700426,None,693.472647700426,None,f,1,0.8316610271031095,None,None,011,001,1,24,f,2021_Nov_09_1400,eye_tracking_exp,2021.2.3,84.96850490682301,
180,0,12,180,180,180,180,0,12,0,j,abs,resp,freq_top,,,,,0,46,46,53,,,0.8721187127199795,,,,,,,,,,695.4256214799007,None,695.4256214799007,None,j,1,0.6379922031355818,None,None,011,001,1,24,f,2021_Nov_09_1400,eye_tracking_exp,2021.2.3,84.96850490682301,
0,168,0,270,180,180,180,-168,0,0,f,present,resp,freq_top,,,,,0,47,47,914,,,1.0927122447286748,,,,,,,,,,697.2726693730237,None,697.2726693730237,None,f,1,1.1748810501703701,None,None,011,001,1,24,f,2021_Nov_09_1400,eye_tracking_exp,2021.2.3,84.96850490682301,
180,180,90,180,-12,180,-12,180,180,180,j,present,resp,freq_top,,,,,0,48,48,581,,,0.739578598748977,,,,,,,,,,699.3674655645627,None,699.3674655645627,None,j,1,0.680185554718264,None,None,011,001,1,24,f,2021_Nov_09_1400,eye_tracking_exp,2021.2.3,84.96850490682301,
-168,0,-168,180,180,0,180,0,180,180,f,abs,resp,freq_top,,,,,0,49,49,343,,,0.7535618943288189,,,,,,,,,,700.9327207654587,None,700.9327207654587,None,j,0,1.034883000100308,701.9806618836028,None,011,001,1,24,f,2021_Nov_09_1400,eye_tracking_exp,2021.2.3,84.96850490682301,
0,0,168,0,12,0,0,0,0,0,None,abs,inhibit,freq_top,,,,,0,50,50,469,,,0.9092962663581348,,,,,,,,,,703.5217886595547,None,703.5217886595547,None,f,0,1.4059486913192814,704.9458453657007,None,011,001,1,24,f,2021_Nov_09_1400,eye_tracking_exp,2021.2.3,84.96850490682301,
180,180,180,-12,180,12,0,180,0,180,j,abs,resp,freq_top,,,,,0,51,51,157,,,0.8112817384528435,,,,,,,,,,706.2995195504645,None,706.2995195504645,None,j,1,0.9321989482650679,None,None,011,001,1,24,f,2021_Nov_09_1400,eye_tracking_exp,2021.2.3,84.96850490682301,
180,180,0,0,0,0,0,-168,0,-168,f,abs,resp,freq_top,,,,,0,52,52,308,,,0.9198471043363848,,,,,,,,,,708.2404113085086,None,708.2404113085086,None,f,1,0.5913028436280001,None,None,011,001,1,24,f,2021_Nov_09_1400,eye_tracking_exp,2021.2.3,84.96850490682301,
0,168,0,270,180,180,180,180,0,-168,f,present,resp,freq_top,,,,,0,53,53,916,,,0.8225858449391413,,,,,,,,,,709.9000802610608,None,709.9000802610608,None,f,1,1.0917252782110154,None,None,011,001,1,24,f,2021_Nov_09_1400,eye_tracking_exp,2021.2.3,84.96850490682301,
0,270,0,0,0,12,0,-12,0,0,j,present,resp,freq_top,,,,,0,54,54,658,,,0.9612302061240339,,,,,,,,,,712.1707006980814,None,712.1707006980814,None,j,1,0.8521322763481294,None,None,011,001,1,24,f,2021_Nov_09_1400,eye_tracking_exp,2021.2.3,84.96850490682301,
180,180,0,0,180,180,180,-12,0,12,j,abs,resp,freq_top,,,,,0,55,55,182,,,0.7731772596775274,,,,,,,,,,714.1129903086039,None,714.1129903086039,None,j,1,0.7980054119525448,None,None,011,001,1,24,f,2021_Nov_09_1400,eye_tracking_exp,2021.2.3,84.96850490682301,
90,180,180,180,180,-168,180,180,-168,180,f,present,resp,freq_top,,,,,0,56,56,799,,,0.8685506059668792,,,,,,,,,,715.9837135546404,None,715.9837135546404,None,f,1,0.6079841045866488,None,None,011,001,1,24,f,2021_Nov_09_1400,eye_tracking_exp,2021.2.3,84.96850490682301,
0,0,180,-168,180,180,180,-168,0,0,f,abs,resp,freq_top,,,,,0,57,57,311,,,0.7868912830032395,,,,,,,,,,717.4187888759789,None,717.4187888759789,None,f,1,0.6613050380547065,None,None,011,001,1,24,f,2021_Nov_09_1400,eye_tracking_exp,2021.2.3,84.96850490682301,
0,168,0,0,0,168,0,180,0,0,f,abs,resp,freq_top,,,,,0,58,58,268,,,0.8412477379689243,,,,,,,,,,719.1498741751657,None,719.1498741751657,None,f,1,0.5770125110866502,None,None,011,001,1,24,f,2021_Nov_09_1400,eye_tracking_exp,2021.2.3,84.96850490682301,
180,180,0,-168,180,180,0,180,-168,180,f,abs,resp,freq_top,,,,,0,59,59,318,,,0.9571346505690979,,,,,,,,,,720.948236294118,None,720.948236294118,None,f,1,0.5226191159763403,None,None,011,001,1,24,f,2021_Nov_09_1400,eye_tracking_exp,2021.2.3,84.96850490682301,
180,168,180,0,180,168,180,0,180,180,f,abs,resp,freq_top,,,,,0,60,60,229,,,1.0389218388160972,,,,,,,,,,722.6553353381987,None,722.6553353381987,None,f,1,0.5595826700900943,None,None,011,001,1,24,f,2021_Nov_09_1400,eye_tracking_exp,2021.2.3,84.96850490682301,
180,180,270,180,168,180,180,180,12,180,None,present,inhibit,freq_top,,,,,0,61,61,933,,,1.0763040001292064,,,,,,,,,,724.4895957939461,None,724.4895957939461,None,None,1,,None,None,011,001,1,24,f,2021_Nov_09_1400,eye_tracking_exp,2021.2.3,84.96850490682301,
180,180,12,180,0,180,168,180,180,0,None,abs,inhibit,freq_top,,,,,0,62,62,445,,,1.0883074509747943,,,,,,,,,,728.5969391528179,None,728.5969391528179,None,None,1,,None,None,011,001,1,24,f,2021_Nov_09_1400,eye_tracking_exp,2021.2.3,84.96850490682301,
180,180,0,0,-168,0,0,168,0,180,f,abs,resp,freq_top,,,,,0,63,63,380,,,0.705010291479012,,,,,,,,,,732.292218782175,None,732.292218782175,None,f,1,0.7298544438854151,None,None,011,001,1,24,f,2021_Nov_09_1400,eye_tracking_exp,2021.2.3,84.96850490682301,
12,0,0,-168,0,0,90,180,180,180,None,present,inhibit,freq_top,,,,,0,64,64,930,,,0.8879258355502437,,,,,,,,,,733.9515430256943,None,733.9515430256943,None,None,1,,None,None,011,001,1,24,f,2021_Nov_09_1400,eye_tracking_exp,2021.2.3,84.96850490682301,
0,270,0,0,12,0,180,180,180,12,j,present,resp,freq_top,,,,,0,65,65,514,,,0.9753620675778105,,,,,,,,,,737.9526335981427,None,737.9526335981427,None,j,1,0.6214232291840744,None,None,011,001,1,24,f,2021_Nov_09_1400,eye_tracking_exp,2021.2.3,84.96850490682301,
180,-168,180,168,180,0,180,0,180,270,f,present,resp,freq_top,,,,,0,66,66,859,,,0.8929791571655774,,,,,,,,,,739.5294543606142,None,739.5294543606142,None,f,1,0.9486553333663323,None,None,011,001,1,24,f,2021_Nov_09_1400,eye_tracking_exp,2021.2.3,84.96850490682301,
0,0,0,0,12,180,180,180,180,12,j,abs,resp,freq_top,,,,,0,67,67,10,,,0.9628780063914211,,,,,,,,,,741.6588470237457,None,741.6588470237457,None,j,1,0.6102908177508652,None,None,011,001,1,24,f,2021_Nov_09_1400,eye_tracking_exp,2021.2.3,84.96850490682301,
180,180,-168,0,180,0,-168,180,0,180,f,abs,resp,freq_top,,,,,0,68,68,305,,,0.933187225852753,,,,,,,,,,743.2608910094623,None,743.2608910094623,None,f,1,0.6082228653976927,None,None,011,001,1,24,f,2021_Nov_09_1400,eye_tracking_exp,2021.2.3,84.96850490682301,
180,90,0,180,180,180,180,-168,0,12,None,present,inhibit,freq_top,,,,,0,69,69,952,,,0.9584175482198214,,,,,,,,,,744.9536369368707,None,744.9536369368707,None,None,1,,None,None,011,001,1,24,f,2021_Nov_09_1400,eye_tracking_exp,2021.2.3,84.96850490682301,
0,-12,0,0,0,-12,180,0,0,0,j,abs,resp,freq_top,,,,,0,70,70,128,,,0.8907504830446689,,,,,,,,,,748.861089503911,None,748.861089503911,None,j,1,1.0401001200043538,None,None,011,001,1,24,f,2021_Nov_09_1400,eye_tracking_exp,2021.2.3,84.96850490682301,
-168,180,180,-168,180,180,180,180,90,0,f,present,resp,freq_top,,,,,0,71,71,848,,,0.7337213818775011,,,,,,,,,,750.8265008803355,None,750.8265008803355,None,f,1,0.627381684802458,None,None,011,001,1,24,f,2021_Nov_09_1400,eye_tracking_exp,2021.2.3,84.96850490682301,
0,180,0,180,90,180,12,0,12,180,j,present,resp,freq_top,,,,,0,72,72,525,,,0.917440508691277,,,,,,,,,,752.5680110620815,None,752.5680110620815,None,j,1,0.8535150364878064,None,None,011,001,1,24,f,2021_Nov_09_1400,eye_tracking_exp,2021.2.3,84.96850490682301,
180,-168,180,270,0,180,12,0,180,180,None,present,inhibit,freq_top,,,,,0,73,73,983,,,1.0032046566568904,,,,,,,,,,754.4977127559541,None,754.4977127559541,None,None,1,,None,None,011,001,1,24,f,2021_Nov_09_1400,eye_tracking_exp,2021.2.3,84.96850490682301,
180,180,0,12,0,180,0,0,-12,180,j,abs,resp,freq_top,,,,,0,74,74,178,,,1.0051705290255502,,,,,,,,,,758.5118391856886,None,758.5118391856886,None,j,1,0.892464440627009,None,None,011,001,1,24,f,2021_Nov_09_1400,eye_tracking_exp,2021.2.3,84.96850490682301,
0,0,-12,0,0,12,0,0,0,0,j,abs,resp,freq_top,,,,,0,75,75,158,,,0.9006809192779108,,,,,,,,,,760.3711526230927,None,760.3711526230927,None,j,1,0.7611390525034949,None,None,011,001,1,24,f,2021_Nov_09_1400,eye_tracking_exp,2021.2.3,84.96850490682301,
270,0,180,0,180,-12,0,-12,0,0,j,present,resp,freq_top,,,,,0,76,76,603,,,0.9473775059100505,,,,,,,,,,762.4410826761377,None,762.4410826761377,None,j,1,0.8510103118314873,None,None,011,001,1,24,f,2021_Nov_09_1400,eye_tracking_exp,2021.2.3,84.96850490682301,
0,0,0,-168,0,0,0,-168,0,0,f,abs,resp,freq_top,,,,,0,77,77,282,,,0.7731371707797642,,,,,,,,,,764.441328077577,None,764.441328077577,None,f,1,0.5950789469607116,None,None,011,001,1,24,f,2021_Nov_09_1400,eye_tracking_exp,2021.2.3,84.96850490682301,
180,-12,180,0,180,0,-12,0,180,180,j,abs,resp,freq_top,,,,,0,78,78,129,,,1.0056461367751661,,,,,,,,,,766.5477266559992,None,766.5477266559992,None,j,1,0.5526637379880412,None,None,011,001,1,24,f,2021_Nov_09_1400,eye_tracking_exp,2021.2.3,84.96850490682301,
180,-168,180,90,180,180,-168,0,180,180,f,present,resp,freq_top,,,,,0,79,79,843,,,0.9240754262641094,,,,,,,,,,768.1382413017564,None,768.1382413017564,None,f,1,0.5782108428393258,None,None,011,001,1,24,f,2021_Nov_09_1400,eye_tracking_exp,2021.2.3,84.96850490682301,
90,0,-168,180,180,180,168,0,0,0,f,present,resp,freq_top,,,,,0,80,80,905,,,0.8714353875869107,,,,,,,,,,769.6424820982211,None,769.6424820982211,None,f,1,0.8978035066338634,None,None,011,001,1,24,f,2021_Nov_09_1400,eye_tracking_exp,2021.2.3,84.96850490682301,
12,0,-12,0,0,0,180,180,180,0,j,abs,resp,freq_top,,,,,0,81,81,195,,,0.8998091625863313,,,,,,,,,,771.4900684860168,None,771.4900684860168,None,j,1,0.8265085024104337,None,None,011,001,1,24,f,2021_Nov_09_1400,eye_tracking_exp,2021.2.3,84.96850490682301,
0,0,180,180,168,0,0,0,-168,0,f,abs,resp,freq_top,,,,,0,82,82,387,,,0.9721581411364499,,,,,,,,,,773.3610667144785,None,773.3610667144785,None,f,1,0.6184358515110944,None,None,011,001,1,24,f,2021_Nov_09_1400,eye_tracking_exp,2021.2.3,84.96850490682301,
180,168,0,180,0,180,180,180,168,180,f,abs,resp,freq_top,,,,,0,83,83,250,,,0.8748628279650463,,,,,,,,,,776.4436218113278,None,776.4436218113278,None,f,1,0.5758817930145597,None,None,011,001,1,24,f,2021_Nov_09_1400,eye_tracking_exp,2021.2.3,84.96850490682301,
0,270,180,180,-12,180,180,180,-12,0,j,present,resp,freq_top,,,,,0,84,84,611,,,1.095287458784544,,,,,,,,,,778.538110722835,None,778.538110722835,None,j,1,0.6094278377804585,None,None,011,001,1,24,f,2021_Nov_09_1400,eye_tracking_exp,2021.2.3,84.96850490682301,
0,180,0,0,-168,180,0,180,168,180,f,abs,resp,freq_top,,,,,0,85,85,359,,,0.7909404321150382,,,,,,,,,,780.0558461837045,None,780.0558461837045,None,f,1,0.5956560780232394,None,None,011,001,1,24,f,2021_Nov_09_1400,eye_tracking_exp,2021.2.3,84.96850490682301,
0,0,180,0,180,-12,0,-12,0,0,j,abs,resp,freq_top,,,,,0,86,86,99,,,0.9174023363548092,,,,,,,,,,781.6443118934567,None,781.6443118934567,None,j,1,0.5592720697441109,None,None,011,001,1,24,f,2021_Nov_09_1400,eye_tracking_exp,2021.2.3,84.96850490682301,
-12,180,180,180,180,180,0,0,12,180,j,abs,resp,freq_top,,,,,0,87,87,209,,,0.7161269178303025,,,,,,,,,,783.2915459656815,None,783.2915459656815,None,j,1,0.9761632349600404,None,None,011,001,1,24,f,2021_Nov_09_1400,eye_tracking_exp,2021.2.3,84.96850490682301,
0,12,0,90,0,0,180,180,180,-12,j,present,resp,freq_top,,,,,0,88,88,706,,,0.960105040280693,,,,,,,,,,785.5745653632621,None,785.5745653632621,None,j,1,1.0441457725210057,None,None,011,001,1,24,f,2021_Nov_09_1400,eye_tracking_exp,2021.2.3,84.96850490682301,
180,168,0,168,180,0,180,0,180,180,f,abs,resp,freq_top,,,,,0,89,89,215,,,1.0578285738517248,,,,,,,,,,787.8586557132494,None,787.8586557132494,None,f,1,0.6809434920087369,None,None,011,001,1,24,f,2021_Nov_09_1400,eye_tracking_exp,2021.2.3,84.96850490682301,
180,0,180,0,12,180,180,180,12,180,j,abs,resp,freq_top,,,,,0,90,90,9,,,0.7023257928301263,,,,,,,,,,789.375034976496,None,789.375034976496,None,j,1,0.5716432604003785,None,None,011,001,1,24,f,2021_Nov_09_1400,eye_tracking_exp,2021.2.3,84.96850490682301,
168,180,0,180,0,0,180,12,0,0,None,abs,inhibit,freq_top,,,,,0,91,91,488,,,1.0573568357059528,,,,,,,,,,791.0811647905375,None,791.0811647905375,None,None,1,,None,None,011,001,1,24,f,2021_Nov_09_1400,eye_tracking_exp,2021.2.3,84.96850490682301,
0,168,0,0,0,0,168,0,0,0,f,abs,resp,freq_top,,,,,0,92,92,236,,,0.7317957975589476,,,,,,,,,,794.8353000160878,None,794.8353000160878,None,f,1,0.6154964674769872,None,None,011,001,1,24,f,2021_Nov_09_1400,eye_tracking_exp,2021.2.3,84.96850490682301,
90,0,12,0,180,180,0,0,180,-168,None,present,inhibit,freq_top,,,,,0,93,93,971,,,0.7053761889076462,,,,,,,,,,796.5308404410698,None,796.5308404410698,None,None,1,,None,None,011,001,1,24,f,2021_Nov_09_1400,eye_tracking_exp,2021.2.3,84.96850490682301,
0,180,0,-168,0,180,0,180,0,-168,f,abs,resp,freq_top,,,,,0,94,94,326,,,0.901996630194339,,,,,,,,,,800.4487719212448,None,800.4487719212448,None,f,1,0.5699882344561047,None,None,011,001,1,24,f,2021_Nov_09_1400,eye_tracking_exp,2021.2.3,84.96850490682301,
0,0,0,-168,0,0,-168,0,0,0,f,abs,resp,freq_top,,,,,0,95,95,304,,,0.8702106691615352,,,,,,,,,,801.9441130669766,None,801.9441130669766,None,f,1,0.6587016094981664,None,None,011,001,1,24,f,2021_Nov_09_1400,eye_tracking_exp,2021.2.3,84.96850490682301,
168,0,-168,180,180,180,90,0,180,180,f,present,resp,freq_top,,,,,0,96,96,909,,,0.9673964554569889,,,,,,,,,,803.9548479461882,None,803.9548479461882,None,f,1,1.078999719424246,None,None,011,001,1,24,f,2021_Nov_09_1400,eye_tracking_exp,2021.2.3,84.96850490682301,
0,12,0,-12,180,180,180,180,270,0,j,present,resp,freq_top,,,,,0,97,97,700,,,0.7389477960921217,,,,,,,,,,806.0025397388836,None,806.0025397388836,None,j,1,0.6474300466943532,None,None,011,001,1,24,f,2021_Nov_09_1400,eye_tracking_exp,2021.2.3,84.96850490682301,
0,12,180,0,270,0,180,180,12,180,j,present,resp,freq_top,,,,,0,98,98,565,,,0.8220821195807136,,,,,,,,,,807.6735668842684,None,807.6735668842684,None,j,1,0.6082823292144894,None,None,011,001,1,24,f,2021_Nov_09_1400,eye_tracking_exp,2021.2.3,84.96850490682301,
-12,180,180,-12,0,270,0,180,180,180,j,present,resp,freq_top,,,,,0,99,99,638,,,0.8692760901519756,,,,,,,,,,809.4507592805057,None,809.4507592805057,None,j,1,0.7830633921912522,None,None,011,001,1,24,f,2021_Nov_09_1400,eye_tracking_exp,2021.2.3,84.96850490682301,
168,180,90,180,168,180,0,0,180,180,f,present,resp,freq_top,,,,,0,100,100,727,,,0.9275338168114865,,,,,,,,,,811.3333777048101,None,811.3333777048101,None,f,1,0.821590814521187,None,None,011,001,1,24,f,2021_Nov_09_1400,eye_tracking_exp,2021.2.3,84.96850490682301,
-12,180,180,12,0,0,180,180,180,180,j,abs,resp,freq_top,,,,,0,101,101,204,,,0.8717796237655443,,,,,,,,,,813.180637192534,None,813.180637192534,None,j,1,0.781266498255718,None,None,011,001,1,24,f,2021_Nov_09_1400,eye_tracking_exp,2021.2.3,84.96850490682301,
12,0,270,0,0,12,0,0,0,0,j,present,resp,freq_top,,,,,0,102,102,524,,,0.8184503429579313,,,,,,,,,,814.8402228353734,None,814.8402228353734,None,j,1,0.6097046312861494,None,None,011,001,1,24,f,2021_Nov_09_1400,eye_tracking_exp,2021.2.3,84.96850490682301,
12,180,90,180,-12,180,0,180,180,180,j,present,resp,freq_top,,,,,0,103,103,657,,,1.062408976611684,,,,,,,,,,816.712483990801,None,816.712483990801,None,j,1,0.6252192544034187,None,None,011,001,1,24,f,2021_Nov_09_1400,eye_tracking_exp,2021.2.3,84.96850490682301,
180,180,0,12,0,180,0,180,0,-168,None,abs,inhibit,freq_top,,,,,0,104,104,466,,,1.0729945962009568,,,,,,,,,,818.4759477913722,None,818.4759477913722,None,None,1,,None,None,011,001,1,24,f,2021_Nov_09_1400,eye_tracking_exp,2021.2.3,84.96850490682301,
90,0,-168,0,168,0,180,180,180,180,f,present,resp,freq_top,,,,,0,105,105,903,,,0.8304395097292719,,,,,,,,,,822.3241593038692,None,822.3241593038692,None,f,1,0.8688219890154869,None,None,011,001,1,24,f,2021_Nov_09_1400,eye_tracking_exp,2021.2.3,84.96850490682301,
0,0,180,0,180,0,12,0,-12,0,j,abs,resp,freq_top,,,,,0,106,106,175,,,0.8964223163043792,,,,,,,,,,824.2065676428083,None,824.2065676428083,None,j,1,0.5865523788597784,None,None,011,001,1,24,f,2021_Nov_09_1400,eye_tracking_exp,2021.2.3,84.96850490682301,
0,270,0,-168,0,-12,0,0,0,0,None,present,inhibit,freq_top,,,,,0,107,107,994,,,0.9075881388783645,,,,,,,,,,826.2889416315847,None,826.2889416315847,None,None,1,,None,None,011,001,1,24,f,2021_Nov_09_1400,eye_tracking_exp,2021.2.3,84.96850490682301,
-12,0,180,0,180,0,-12,180,0,180,j,abs,resp,freq_top,,,,,0,108,108,97,,,0.9945259869146761,,,,,,,,,,830.3029663389516,None,830.3029663389516,None,f,0,0.5701177267274034,830.8937272916883,None,011,001,1,24,f,2021_Nov_09_1400,eye_tracking_exp,2021.2.3,84.96850490682301,
-168,0,90,0,180,180,180,0,-168,0,f,present,resp,freq_top,,,,,0,109,109,825,,,0.7237984502480245,,,,,,,,,,832.1979146009016,None,832.1979146009016,None,f,1,0.6432346781712113,None,None,011,001,1,24,f,2021_Nov_09_1400,eye_tracking_exp,2021.2.3,84.96850490682301,
270,180,12,180,180,180,0,0,0,12,j,present,resp,freq_top,,,,,0,110,110,558,,,0.8853158456158335,,,,,,,,,,834.3973565465585,None,834.3973565465585,None,j,1,0.8278046325231116,None,None,011,001,1,24,f,2021_Nov_09_1400,eye_tracking_exp,2021.2.3,84.96850490682301,
168,0,168,0,0,0,0,0,180,180,f,abs,resp,freq_top,,,,,0,111,111,265,,,1.059632513224684,,,,,,,,,,836.3496409079671,None,836.3496409079671,None,f,1,0.8425685626771156,None,None,011,001,1,24,f,2021_Nov_09_1400,eye_tracking_exp,2021.2.3,84.96850490682301,
180,180,0,12,180,0,180,0,168,0,None,abs,inhibit,freq_top,,,,,0,112,112,458,,,1.046983993812574,,,,,,,,,,838.3143311724125,None,838.3143311724125,None,f,0,1.310905890954018,839.6561192343106,None,011,001,1,24,f,2021_Nov_09_1400,eye_tracking_exp,2021.2.3,84.96850490682301,
0,90,0,0,-168,180,180,168,0,0,f,present,resp,freq_top,,,,,0,113,113,862,,,0.9809191786028179,,,,,,,,,,841.2799149033526,None,841.2799149033526,None,f,1,0.5850060177581327,None,None,011,001,1,24,f,2021_Nov_09_1400,eye_tracking_exp,2021.2.3,84.96850490682301,
0,0,180,0,180,168,0,168,0,0,f,abs,resp,freq_top,,,,,0,114,114,239,,,1.0299631229694866,,,,,,,,,,843.7862085598317,None,843.7862085598317,None,f,1,0.5900305594113888,None,None,011,001,1,24,f,2021_Nov_09_1400,eye_tracking_exp,2021.2.3,84.96850490682301,
180,168,0,180,0,180,90,180,-168,180,f,present,resp,freq_top,,,,,0,115,115,894,,,0.9165455173540061,,,,,,,,,,845.8803213702395,None,845.8803213702395,None,f,1,0.8315327422169503,None,None,011,001,1,24,f,2021_Nov_09_1400,eye_tracking_exp,2021.2.3,84.96850490682301,
90,0,180,0,180,180,12,0,180,-168,None,present,inhibit,freq_top,,,,,0,116,116,967,,,0.9879469489242074,,,,,,,,,,847.9511956000388,None,847.9511956000388,None,f,0,0.6483461517000251,848.6233344471475,None,011,001,1,24,f,2021_Nov_09_1400,eye_tracking_exp,2021.2.3,84.96850490682301,
180,-168,180,90,180,180,180,0,0,168,f,present,resp,freq_top,,,,,0,117,117,902,,,0.9172018426287771,,,,,,,,,,850.1281626374639,None,850.1281626374639,None,f,1,0.9831772488014394,None,None,011,001,1,24,f,2021_Nov_09_1400,eye_tracking_exp,2021.2.3,84.96850490682301,
180,270,0,180,0,180,0,-168,0,-168,f,present,resp,freq_top,,,,,0,118,118,826,,,0.903207823754819,,,,,,,,,,852.2811992614406,None,852.2811992614406,None,f,1,0.590339046832014,None,None,011,001,1,24,f,2021_Nov_09_1400,eye_tracking_exp,2021.2.3,84.96850490682301,
12,0,180,0,90,0,0,0,-12,0,j,present,resp,freq_top,,,,,0,119,119,685,,,0.7128719799156157,,,,,,,,,,853.9883420733058,None,853.9883420733058,None,j,1,1.011086908472862,None,None,011,001,1,24,f,2021_Nov_09_1400,eye_tracking_exp,2021.2.3,84.96850490682301,
0,90,180,180,180,180,12,0,168,0,None,present,inhibit,freq_top,,,,,0,120,120,959,,,0.8389412207693929,,,,,,,,,,856.2463573884088,None,856.2463573884088,None,None,1,,None,None,011,001,1,24,f,2021_Nov_09_1400,eye_tracking_exp,2021.2.3,84.96850490682301,
168,0,0,180,12,0,180,0,180,180,None,abs,inhibit,freq_top,,,,,0,121,121,485,,,0.9445240512064285,,,,,,,,,,860.2945940145582,None,860.2945940145582,None,None,1,,None,None,011,001,1,24,f,2021_Nov_09_1400,eye_tracking_exp,2021.2.3,84.96850490682301,
-12,0,270,0,180,180,180,180,12,180,j,present,resp,freq_top,,,,,0,122,122,713,,,0.8560618870676382,,,,,,,,,,864.4719821282542,None,864.4719821282542,None,j,1,1.0225649344793055,None,None,011,001,1,24,f,2021_Nov_09_1400,eye_tracking_exp,2021.2.3,84.96850490682301,
-12,0,180,180,180,180,180,12,180,180,j,abs,resp,freq_top,,,,,0,123,123,174,,,0.7840148783612464,,,,,,,,,,866.4843490930562,None,866.4843490930562,None,j,1,0.8022034970963432,None,None,011,001,1,24,f,2021_Nov_09_1400,eye_tracking_exp,2021.2.3,84.96850490682301,
0,-12,180,270,180,180,0,12,0,0,j,present,resp,freq_top,,,,,0,124,124,677,,,1.0096006619587392,,,,,,,,,,868.5791271737871,None,868.5791271737871,None,j,1,0.8354253584093385,None,None,011,001,1,24,f,2021_Nov_09_1400,eye_tracking_exp,2021.2.3,84.96850490682301,
0,168,0,270,180,180,168,0,0,0,f,present,resp,freq_top,,,,,0,125,125,740,,,0.8768509838004321,,,,,,,,,,871.908653011722,None,871.908653011722,None,f,1,0.6739813958156446,None,None,011,001,1,24,f,2021_Nov_09_1400,eye_tracking_exp,2021.2.3,84.96850490682301,
90,0,180,0,0,0,-168,0,180,-168,f,present,resp,freq_top,,,,,0,126,126,827,,,0.8262928801689055,,,,,,,,,,873.4740401196632,None,873.4740401196632,None,f,1,0.7566548166050779,None,None,011,001,1,24,f,2021_Nov_09_1400,eye_tracking_exp,2021.2.3,84.96850490682301,
-12,0,0,90,0,0,0,0,-12,180,j,present,resp,freq_top,,,,,0,127,127,643,,,1.0608499367130881,,,,,,,,,,875.3464087325483,None,875.3464087325483,None,j,1,0.6602727220342786,None,None,011,001,1,24,f,2021_Nov_09_1400,eye_tracking_exp,2021.2.3,84.96850490682301,
0,180,0,0,180,168,180,0,0,168,f,abs,resp,freq_top,,,,,0,128,128,254,,,0.7952956786132587,,,,,,,,,,877.0040027902705,None,877.0040027902705,None,f,1,0.7474949739389558,None,None,011,001,1,24,f,2021_Nov_09_1400,eye_tracking_exp,2021.2.3,84.96850490682301,
0,0,0,168,0,0,-168,0,0,0,f,abs,resp,freq_top,,,,,0,129,129,374,,,0.7574775733632607,,,,,,,,,,879.0867100179021,None,879.0867100179021,None,f,1,0.9687507833587006,None,None,011,001,1,24,f,2021_Nov_09_1400,eye_tracking_exp,2021.2.3,84.96850490682301,
180,-12,0,180,0,180,0,180,0,12,j,abs,resp,freq_top,,,,,0,130,130,188,,,0.8290203116133446,,,,,,,,,,881.1460814702587,None,881.1460814702587,None,j,1,0.6996598040186655,None,None,011,001,1,24,f,2021_Nov_09_1400,eye_tracking_exp,2021.2.3,84.96850490682301,
-12,180,0,0,0,12,0,0,0,0,j,abs,resp,freq_top,,,,,0,131,131,206,,,0.9881076827288151,,,,,,,,,,882.8877425753981,None,882.8877425753981,None,j,1,0.7019553488516976,None,None,011,001,1,24,f,2021_Nov_09_1400,eye_tracking_exp,2021.2.3,84.96850490682301,
0,180,0,180,168,180,0,180,-12,180,None,abs,inhibit,freq_top,,,,,0,132,132,499,,,1.025964433243195,,,,,,,,,,885.1015077548964,None,885.1015077548964,None,None,1,,None,None,011,001,1,24,f,2021_Nov_09_1400,eye_tracking_exp,2021.2.3,84.96850490682301,
0,0,0,-168,0,0,0,-12,0,0,None,abs,inhibit,freq_top,,,,,0,133,133,492,,,0.7680317509754777,,,,,,,,,,889.1367284456483,None,889.1367284456483,None,None,1,,None,None,011,001,1,24,f,2021_Nov_09_1400,eye_tracking_exp,2021.2.3,84.96850490682301,
12,180,0,180,0,180,12,180,180,180,j,abs,resp,freq_top,,,,,0,134,134,27,,,0.7690028701680856,,,,,,,,,,892.9259575862998,None,892.9259575862998,None,j,1,0.5838994474288484,None,None,011,001,1,24,f,2021_Nov_09_1400,eye_tracking_exp,2021.2.3,84.96850490682301,
90,0,12,0,12,180,180,180,180,180,j,present,resp,freq_top,,,,,0,135,135,515,,,0.8726962978228092,,,,,,,,,,894.5495301905648,None,894.5495301905648,None,j,1,0.673545529050898,None,None,011,001,1,24,f,2021_Nov_09_1400,eye_tracking_exp,2021.2.3,84.96850490682301,
12,180,90,180,12,180,180,180,0,180,j,present,resp,freq_top,,,,,0,136,136,517,,,0.9389520927726394,,,,,,,,,,896.596812679014,None,896.596812679014,None,j,1,0.5930426885206543,None,None,011,001,1,24,f,2021_Nov_09_1400,eye_tracking_exp,2021.2.3,84.96850490682301,
-168,0,0,-168,0,0,0,270,0,0,f,present,resp,freq_top,,,,,0,137,137,790,,,0.7831547716385678,,,,,,,,,,898.0908878793125,None,898.0908878793125,None,f,1,0.7300572849271703,None,None,011,001,1,24,f,2021_Nov_09_1400,eye_tracking_exp,2021.2.3,84.96850490682301,
0,180,168,0,180,168,180,0,180,180,f,abs,resp,freq_top,,,,,0,138,138,260,,,0.7146622429950383,,,,,,,,,,899.6562749872537,None,899.6562749872537,None,f,1,0.637656851353313,None,None,011,001,1,24,f,2021_Nov_09_1400,eye_tracking_exp,2021.2.3,84.96850490682301,
0,168,0,0,0,0,0,0,0,168,f,abs,resp,freq_top,,,,,0,139,139,272,,,1.0169424793255601,,,,,,,,,,901.915076009549,None,901.915076009549,None,f,1,0.58583277611433,None,None,011,001,1,24,f,2021_Nov_09_1400,eye_tracking_exp,2021.2.3,84.96850490682301,
180,180,90,180,168,180,168,180,0,0,f,present,resp,freq_top,,,,,0,140,140,721,,,0.9522169907343601,,,,,,,,,,904.4329062503111,None,904.4329062503111,None,f,1,0.6760581017242657,None,None,011,001,1,24,f,2021_Nov_09_1400,eye_tracking_exp,2021.2.3,84.96850490682301,
180,-168,0,270,180,180,180,0,-168,180,f,present,resp,freq_top,,,,,0,141,141,824,,,1.020529366068266,,,,,,,,,,906.7040509952039,None,906.7040509952039,None,f,1,0.5825130651264772,None,None,011,001,1,24,f,2021_Nov_09_1400,eye_tracking_exp,2021.2.3,84.96850490682301,
180,180,12,180,168,180,0,180,0,180,None,abs,inhibit,freq_top,,,,,0,142,142,431,,,0.8638400574717713,,,,,,,,,,908.2340598483697,None,908.2340598483697,None,None,1,,None,None,011,001,1,24,f,2021_Nov_09_1400,eye_tracking_exp,2021.2.3,84.96850490682301,
168,0,180,0,0,0,0,270,-168,0,f,present,resp,freq_top,,,,,0,143,143,895,,,0.873558364804043,,,,,,,,,,912.1298197763372,None,912.1298197763372,None,f,1,0.754276263905922,None,None,011,001,1,24,f,2021_Nov_09_1400,eye_tracking_exp,2021.2.3,84.96850490682301,
0,0,90,0,0,0,12,0,180,12,j,present,resp,freq_top,,,,,0,144,144,547,,,0.9360798700149018,,,,,,,,,,914.0713514495728,None,914.0713514495728,None,j,1,0.6207464886811067,None,None,011,001,1,24,f,2021_Nov_09_1400,eye_tracking_exp,2021.2.3,84.96850490682301,
0,0,180,180,12,0,0,0,168,0,None,abs,inhibit,freq_top,,,,,0,145,145,457,,,0.9858147951016945,,,,,,,,,,916.0130307258896,None,916.0130307258896,None,None,1,,None,None,011,001,1,24,f,2021_Nov_09_1400,eye_tracking_exp,2021.2.3,84.96850490682301,
90,0,180,180,180,180,-12,0,0,-12,j,present,resp,freq_top,,,,,0,146,146,596,,,0.908987099238298,,,,,,,,,,919.9436889722383,None,919.9436889722383,None,j,1,0.5885007998840592,None,None,011,001,1,24,f,2021_Nov_09_1400,eye_tracking_exp,2021.2.3,84.96850490682301,
0,0,-168,0,90,168,0,180,180,180,f,present,resp,freq_top,,,,,0,147,147,872,,,0.7310296328831289,,,,,,,,,,921.3093401357528,None,921.3093401357528,None,f,1,1.0308352346564789,None,None,011,001,1,24,f,2021_Nov_09_1400,eye_tracking_exp,2021.2.3,84.96850490682301,
0,-168,0,90,0,12,180,0,0,0,None,present,inhibit,freq_top,,,,,0,148,148,982,,,0.7817258010908332,,,,,,,,,,923.3088749898507,None,923.3088749898507,None,None,1,,None,None,011,001,1,24,f,2021_Nov_09_1400,eye_tracking_exp,2021.2.3,84.96850490682301,
180,0,-12,0,0,0,-12,0,0,0,j,abs,resp,freq_top,,,,,0,149,149,121,,,1.005930115148709,,,,,,,,,,927.628207461712,None,927.628207461712,None,j,1,0.61506784503581,None,None,011,001,1,24,f,2021_Nov_09_1400,eye_tracking_exp,2021.2.3,84.96850490682301,
0,0,168,0,0,0,0,0,-168,0,f,abs,resp,freq_top,,,,,0,150,150,389,,,0.9889976624993477,,,,,,,,,,929.794288696532,None,929.794288696532,None,f,1,0.7050731243361952,None,None,011,001,1,24,f,2021_Nov_09_1400,eye_tracking_exp,2021.2.3,84.96850490682301,
12,0,0,90,0,180,12,180,0,180,j,present,resp,freq_top,,,,,0,151,151,531,,,0.8519779818946976,,,,,,,,,,931.886799606029,None,931.886799606029,None,j,1,0.5324901096792019,None,None,011,001,1,24,f,2021_Nov_09_1400,eye_tracking_exp,2021.2.3,84.96850490682301,
-12,0,90,180,180,180,0,-12,180,180,j,present,resp,freq_top,,,,,0,152,152,608,,,0.9067375696485209,,,,,,,,,,933.7459041654547,None,933.7459041654547,None,j,1,0.5933876994004095,None,None,011,001,1,24,f,2021_Nov_09_1400,eye_tracking_exp,2021.2.3,84.96850490682301,
180,0,-168,0,0,0,0,0,168,0,f,abs,resp,freq_top,,,,,0,153,153,403,,,0.8299591321312987,,,,,,,,,,936.0049880181905,None,936.0049880181905,None,f,1,0.7663706610546797,None,None,011,001,1,24,f,2021_Nov_09_1400,eye_tracking_exp,2021.2.3,84.96850490682301,
90,180,0,168,180,0,180,0,-168,180,f,present,resp,freq_top,,,,,0,154,154,857,,,0.7427656180131628,,,,,,,,,,937.7464761651208,None,937.7464761651208,None,f,1,1.009838771999057,None,None,011,001,1,24,f,2021_Nov_09_1400,eye_tracking_exp,2021.2.3,84.96850490682301,
0,-12,0,-12,180,270,180,0,0,0,j,present,resp,freq_top,,,,,0,155,155,630,,,0.8705001660542522,,,,,,,,,,939.864667293903,None,939.864667293903,None,j,1,0.8907276142017508,None,None,011,001,1,24,f,2021_Nov_09_1400,eye_tracking_exp,2021.2.3,84.96850490682301,
0,0,0,12,0,0,0,-12,0,0,j,abs,resp,freq_top,,,,,0,156,156,142,,,0.8654511971927984,,,,,,,,,,941.7724802660105,None,941.7724802660105,None,j,1,0.8229264865622099,None,None,011,001,1,24,f,2021_Nov_09_1400,eye_tracking_exp,2021.2.3,84.96850490682301,
0,180,180,180,180,-168,0,0,0,12,None,abs,inhibit,freq_top,,,,,0,157,157,436,,,0.7373978795123344,,,,,,,,,,943.7499347256307,None,943.7499347256307,None,None,1,,None,None,011,001,1,24,f,2021_Nov_09_1400,eye_tracking_exp,2021.2.3,84.96850490682301,
180,0,12,0,180,180,180,12,180,180,j,abs,resp,freq_top,,,,,0,158,158,32,,,0.8927920384047987,,,,,,,,,,947.6550005901099,None,947.6550005901099,None,j,1,0.5874153588301851,None,None,011,001,1,24,f,2021_Nov_09_1400,eye_tracking_exp,2021.2.3,84.96850490682301,
168,180,180,168,0,0,0,0,0,0,f,abs,resp,freq_top,,,,,0,159,159,274,,,0.9923927827579344,,,,,,,,,,949.3375779028829,None,949.3375779028829,None,f,1,0.5849528927246865,None,None,011,001,1,24,f,2021_Nov_09_1400,eye_tracking_exp,2021.2.3,84.96850490682301,
0,0,270,180,12,180,180,180,-12,0,j,present,resp,freq_top,,,,,0,160,160,681,,,0.993349063558602,,,,,,,,,,950.9966833074795,None,950.9966833074795,None,j,1,0.9418414439478511,None,None,011,001,1,24,f,2021_Nov_09_1400,eye_tracking_exp,2021.2.3,84.96850490682301,
90,0,168,0,12,0,0,180,180,180,None,present,inhibit,freq_top,,,,,0,161,161,973,,,1.0508097344128329,,,,,,,,,,953.3028172266368,None,953.3028172266368,None,None,1,,None,None,011,001,1,24,f,2021_Nov_09_1400,eye_tracking_exp,2021.2.3,84.96850490682301,
180,0,12,0,90,0,12,0,0,0,j,present,resp,freq_top,,,,,0,162,162,555,,,1.097254446149972,,,,,,,,,,957.7407066655924,None,957.7407066655924,None,j,1,0.7258386742014409,None,None,011,001,1,24,f,2021_Nov_09_1400,eye_tracking_exp,2021.2.3,84.96850490682301,
0,0,180,180,0,180,168,0,-168,0,f,abs,resp,freq_top,,,,,0,163,163,385,,,0.8008760473654476,,,,,,,,,,959.9537628069811,None,959.9537628069811,None,f,1,0.5918328865900548,None,None,011,001,1,24,f,2021_Nov_09_1400,eye_tracking_exp,2021.2.3,84.96850490682301,
168,0,180,0,180,180,180,0,12,180,None,abs,inhibit,freq_top,,,,,0,164,164,489,,,1.0217988955709116,,,,,,,,,,962.2696898433678,None,962.2696898433678,None,None,1,,None,None,011,001,1,24,f,2021_Nov_09_1400,eye_tracking_exp,2021.2.3,84.96850490682301,
168,0,0,180,180,0,168,180,0,180,f,abs,resp,freq_top,,,,,0,165,165,277,,,0.8781515759870564,,,,,,,,,,966.1643842521698,None,966.1643842521698,None,f,1,0.6373483639345068,None,None,011,001,1,24,f,2021_Nov_09_1400,eye_tracking_exp,2021.2.3,84.96850490682301,
180,180,0,180,180,-12,180,0,-12,180,j,abs,resp,freq_top,,,,,0,166,166,85,,,0.7550756698811145,,,,,,,,,,968.1531941880003,None,968.1531941880003,None,j,1,0.6165906620881287,None,None,011,001,1,24,f,2021_Nov_09_1400,eye_tracking_exp,2021.2.3,84.96850490682301,
0,-12,0,0,0,0,-12,0,0,0,j,abs,resp,freq_top,,,,,0,167,167,96,,,0.8104849624313047,,,,,,,,,,971.6595651172556,None,971.6595651172556,None,j,1,0.6310599897769862,None,None,011,001,1,24,f,2021_Nov_09_1400,eye_tracking_exp,2021.2.3,84.96850490682301,
180,0,180,-12,180,180,-12,180,180,180,j,abs,resp,freq_top,,,,,0,168,168,71,,,0.7019701403510199,,,,,,,,,,973.2238661804513,None,973.2238661804513,None,j,1,0.5858536035430006,None,None,011,001,1,24,f,2021_Nov_09_1400,eye_tracking_exp,2021.2.3,84.96850490682301,
0,12,0,0,0,180,180,180,0,12,j,abs,resp,freq_top,,,,,0,169,169,62,,,0.9348920703568835,,,,,,,,,,975.553416166129,None,975.553416166129,None,j,1,0.5594130321951525,None,None,011,001,1,24,f,2021_Nov_09_1400,eye_tracking_exp,2021.2.3,84.96850490682301,
168,0,0,180,168,180,0,180,0,180,f,abs,resp,freq_top,,,,,0,170,170,275,,,0.7439270953983136,,,,,,,,,,976.9418123907508,None,976.9418123907508,None,f,1,0.5949844689148449,None,None,011,001,1,24,f,2021_Nov_09_1400,eye_tracking_exp,2021.2.3,84.96850490682301,
180,12,180,180,0,180,0,180,-12,180,j,abs,resp,freq_top,,,,,0,171,171,201,,,0.87625495887231,,,,,,,,,,978.4950691817739,None,978.4950691817739,None,j,1,0.7537462209438672,None,None,011,001,1,24,f,2021_Nov_09_1400,eye_tracking_exp,2021.2.3,84.96850490682301,
180,180,0,0,0,12,180,180,12,180,j,abs,resp,freq_top,,,,,0,172,172,36,,,0.9994991897909569,,,,,,,,,,980.6721859352074,None,980.6721859352074,None,j,1,0.5767236437095562,None,None,011,001,1,24,f,2021_Nov_09_1400,eye_tracking_exp,2021.2.3,84.96850490682301,
0,0,180,0,0,0,12,0,180,-168,None,abs,inhibit,freq_top,,,,,0,173,173,463,,,0.752882706886015,,,,,,,,,,982.7076707419001,None,982.7076707419001,None,None,1,,None,None,011,001,1,24,f,2021_Nov_09_1400,eye_tracking_exp,2021.2.3,84.96850490682301,
180,0,12,0,90,180,180,180,12,0,j,present,resp,freq_top,,,,,0,174,174,557,,,0.7796129087956613,,,,,,,,,,986.8265706069433,None,986.8265706069433,None,j,1,0.5824623548669479,None,None,011,001,1,24,f,2021_Nov_09_1400,eye_tracking_exp,2021.2.3,84.96850490682301,
-168,180,180,180,180,180,180,-168,0,0,f,abs,resp,freq_top,,,,,0,175,175,348,,,1.0703525302508294,,,,,,,,,,988.5561098468752,None,988.5561098468752,None,f,1,0.548810663723998,None,None,011,001,1,24,f,2021_Nov_09_1400,eye_tracking_exp,2021.2.3,84.96850490682301,
270,180,180,180,180,-12,180,180,-12,180,j,present,resp,freq_top,,,,,0,176,176,589,,,0.7616577019482799,,,,,,,,,,990.5574222767154,None,990.5574222767154,None,j,1,0.6745546028669196,None,None,011,001,1,24,f,2021_Nov_09_1400,eye_tracking_exp,2021.2.3,84.96850490682301,
270,0,168,0,180,180,180,180,12,0,None,present,inhibit,freq_top,,,,,0,177,177,977,,,0.9947672396048508,,,,,,,,,,992.7918084214652,None,992.7918084214652,None,None,1,,None,None,011,001,1,24,f,2021_Nov_09_1400,eye_tracking_exp,2021.2.3,84.96850490682301,
0,0,0,0,270,-168,0,0,0,-168,f,present,resp,freq_top,,,,,0,178,178,800,,,0.8004221747084987,,,,,,,,,,996.5815093486472,None,996.5815093486472,None,f,1,0.6033718856488122,None,None,011,001,1,24,f,2021_Nov_09_1400,eye_tracking_exp,2021.2.3,84.96850490682301,
0,0,-168,0,0,168,0,0,0,0,f,abs,resp,freq_top,,,,,0,179,179,368,,,0.8270033905890687,,,,,,,,,,998.0755437996286,None,998.0755437996286,None,f,1,0.7721739674252603,None,None,011,001,1,24,f,2021_Nov_09_1400,eye_tracking_exp,2021.2.3,84.96850490682301,
180,180,-168,0,0,90,0,168,180,180,f,present,resp,freq_top,,,,,0,180,180,886,,,0.8629993461526521,,,,,,,,,,999.7700066315738,None,999.7700066315738,None,f,1,0.6779983728847583,None,None,011,001,1,24,f,2021_Nov_09_1400,eye_tracking_exp,2021.2.3,84.96850490682301,
180,180,12,180,168,0,180,0,180,180,None,abs,inhibit,freq_top,,,,,0,181,181,501,,,1.0843128364351107,,,,,,,,,,1001.5939970521631,None,1001.5939970521631,None,None,1,,None,None,011,001,1,24,f,2021_Nov_09_1400,eye_tracking_exp,2021.2.3,84.96850490682301,
12,180,180,180,180,0,0,-168,180,180,None,abs,inhibit,freq_top,,,,,0,182,182,454,,,0.9424046956848378,,,,,,,,,,1005.8539094743373,None,1005.8539094743373,None,None,1,,None,None,011,001,1,24,f,2021_Nov_09_1400,eye_tracking_exp,2021.2.3,84.96850490682301,
168,0,270,180,180,180,0,0,168,180,f,present,resp,freq_top,,,,,0,183,183,783,,,1.0769511825290872,,,,,,,,,,1009.949487750906,None,1009.949487750906,None,f,1,0.7696728649298166,None,None,011,001,1,24,f,2021_Nov_09_1400,eye_tracking_exp,2021.2.3,84.96850490682301,
12,180,180,180,168,180,0,180,0,0,None,abs,inhibit,freq_top,,,,,0,184,184,503,,,0.865040586540463,,,,,,,,,,1011.9725105110592,None,1011.9725105110592,None,None,1,,None,None,011,001,1,24,f,2021_Nov_09_1400,eye_tracking_exp,2021.2.3,84.96850490682301,
0,270,0,168,0,180,180,180,180,-168,f,present,resp,freq_top,,,,,0,185,185,858,,,0.7794795298720624,,,,,,,,,,1015.8556761835935,None,1015.8556761835935,None,f,1,0.7203435534029268,None,None,011,001,1,24,f,2021_Nov_09_1400,eye_tracking_exp,2021.2.3,84.96850490682301,
168,180,180,0,0,168,0,0,0,0,f,abs,resp,freq_top,,,,,0,186,186,276,,,0.7892704858217028,,,,,,,,,,1018.05629140772,None,1018.05629140772,None,f,1,0.5989211547403102,None,None,011,001,1,24,f,2021_Nov_09_1400,eye_tracking_exp,2021.2.3,84.96850490682301,
0,0,180,-168,0,-12,0,0,0,0,None,abs,inhibit,freq_top,,,,,0,187,187,490,,,0.8052869111782947,,,,,,,,,,1020.4457277963756,None,1020.4457277963756,None,None,1,,None,None,011,001,1,24,f,2021_Nov_09_1400,eye_tracking_exp,2021.2.3,84.96850490682301,
0,270,0,168,180,180,180,-168,0,0,f,present,resp,freq_top,,,,,0,188,188,856,,,0.86538613736411,,,,,,,,,,1024.3885972545831,None,1024.3885972545831,None,f,1,1.0977395754853205,None,None,011,001,1,24,f,2021_Nov_09_1400,eye_tracking_exp,2021.2.3,84.96850490682301,
180,270,0,12,180,0,180,180,0,12,j,present,resp,freq_top,,,,,0,189,189,550,,,1.0263333472473202,,,,,,,,,,1026.7167632727305,None,1026.7167632727305,None,j,1,0.641617986768324,None,None,011,001,1,24,f,2021_Nov_09_1400,eye_tracking_exp,2021.2.3,84.96850490682301,
90,180,0,0,-168,0,180,0,-168,180,f,present,resp,freq_top,,,,,0,190,190,793,,,1.097053365534723,,,,,,,,,,1028.6111543255101,None,1028.6111543255101,None,f,1,0.5872076882405963,None,None,011,001,1,24,f,2021_Nov_09_1400,eye_tracking_exp,2021.2.3,84.96850490682301,
0,180,0,180,-168,0,-168,0,180,180,f,abs,resp,freq_top,,,,,0,191,191,303,,,0.8042772318872544,,,,,,,,,,1030.4112206714344,None,1030.4112206714344,None,f,1,0.5792235388180416,None,None,011,001,1,24,f,2021_Nov_09_1400,eye_tracking_exp,2021.2.3,84.96850490682301,
-168,0,90,180,-168,0,180,0,180,180,f,present,resp,freq_top,,,,,0,192,192,849,,,0.7169508974335719,,,,,,,,,,1032.39965963756,None,1032.39965963756,None,f,1,0.734743154482203,None,None,011,001,1,24,f,2021_Nov_09_1400,eye_tracking_exp,2021.2.3,84.96850490682301,
180,0,168,0,0,0,12,0,0,0,None,abs,inhibit,freq_top,,,,,0,193,193,471,,,0.7539929856123322,,,,,,,,,,1034.0352726084002,None,1034.0352726084002,None,None,1,,None,None,011,001,1,24,f,2021_Nov_09_1400,eye_tracking_exp,2021.2.3,84.96850490682301,
0,0,0,-168,0,0,0,0,0,-168,f,abs,resp,freq_top,,,,,0,194,194,284,,,0.8191194764234728,,,,,,,,,,1038.0376544814135,None,1038.0376544814135,None,f,1,0.5518774271022266,None,None,011,001,1,24,f,2021_Nov_09_1400,eye_tracking_exp,2021.2.3,84.96850490682301,
90,180,180,-168,0,180,0,180,-12,180,None,present,inhibit,freq_top,,,,,0,195,195,997,,,0.8391689044508075,,,,,,,,,,1039.4836877467405,None,1039.4836877467405,None,None,1,,None,None,011,001,1,24,f,2021_Nov_09_1400,eye_tracking_exp,2021.2.3,84.96850490682301,
180,180,0,168,180,180,0,0,-168,180,f,abs,resp,freq_top,,,,,0,196,196,388,,,1.0136858840320428,,,,,,,,,,1043.8374799535995,None,1043.8374799535995,None,f,1,0.5760933876135823,None,None,011,001,1,24,f,2021_Nov_09_1400,eye_tracking_exp,2021.2.3,84.96850490682301,
0,90,180,12,180,180,180,12,0,180,j,present,resp,freq_top,,,,,0,197,197,535,,,0.9217792083972374,,,,,,,,,,1046.2273033098409,None,1046.2273033098409,None,j,1,0.6016884861055587,None,None,011,001,1,24,f,2021_Nov_09_1400,eye_tracking_exp,2021.2.3,84.96850490682301,
180,168,180,180,168,0,0,0,180,180,f,abs,resp,freq_top,,,,,0,198,198,267,,,0.8529302753564718,,,,,,,,,,1047.7438380241838,None,1047.7438380241838,None,f,1,0.6378032470456674,None,None,011,001,1,24,f,2021_Nov_09_1400,eye_tracking_exp,2021.2.3,84.96850490682301,
0,0,0,0,168,0,0,168,0,0,f,abs,resp,freq_top,,,,,0,199,199,218,,,0.7176543640907239,,,,,,,,,,1049.2153649674801,None,1049.2153649674801,None,f,1,0.6061992845225177,None,None,011,001,1,24,f,2021_Nov_09_1400,eye_tracking_exp,2021.2.3,84.96850490682301,
270,0,180,-12,0,180,0,-12,0,0,j,present,resp,freq_top,,,,,0,200,200,605,,,1.0957438447187844,,,,,,,,,,1051.9557552976366,None,1051.9557552976366,None,j,1,0.8738362678777776,None,None,011,001,1,24,f,2021_Nov_09_1400,eye_tracking_exp,2021.2.3,84.96850490682301,
12,0,90,180,180,180,0,0,168,0,None,present,inhibit,freq_top,,,,,0,201,201,965,,,0.7464495718405272,,,,,,,,,,1054.5332709114173,None,1054.5332709114173,None,None,1,,None,None,011,001,1,24,f,2021_Nov_09_1400,eye_tracking_exp,2021.2.3,84.96850490682301,
270,180,0,12,0,180,0,180,168,180,None,present,inhibit,freq_top,,,,,0,202,202,962,,,0.955106623094057,,,,,,,,,,1058.6517892421198,None,1058.6517892421198,None,None,1,,None,None,011,001,1,24,f,2021_Nov_09_1400,eye_tracking_exp,2021.2.3,84.96850490682301,
180,-12,180,-168,0,180,0,90,180,180,None,present,inhibit,freq_top,,,,,0,203,203,999,,,0.7207416798211687,,,,,,,,,,1062.5231246334442,None,1062.5231246334442,None,None,1,,None,None,011,001,1,24,f,2021_Nov_09_1400,eye_tracking_exp,2021.2.3,84.96850490682301,
0,0,0,-168,0,0,0,12,0,0,None,abs,inhibit,freq_top,,,,,0,204,204,422,,,0.749903280128621,,,,,,,,,,1066.5267407579795,None,1066.5267407579795,None,None,1,,None,None,011,001,1,24,f,2021_Nov_09_1400,eye_tracking_exp,2021.2.3,84.96850490682301,
180,90,0,0,12,0,0,-168,180,180,None,present,inhibit,freq_top,,,,,0,205,205,954,,,0.7614887659173317,,,,,,,,,,1070.3140794321898,None,1070.3140794321898,None,None,1,,None,None,011,001,1,24,f,2021_Nov_09_1400,eye_tracking_exp,2021.2.3,84.96850490682301,
270,180,-12,180,180,180,180,12,180,180,j,present,resp,freq_top,,,,,0,206,206,676,,,0.8362991819703868,,,,,,,,,,1074.1499297149749,None,1074.1499297149749,None,j,1,1.0459819065381453,None,None,011,001,1,24,f,2021_Nov_09_1400,eye_tracking_exp,2021.2.3,84.96850490682301,
-168,180,0,180,-168,180,180,180,180,180,f,abs,resp,freq_top,,,,,0,207,207,293,,,1.0422830768713545,,,,,,,,,,1076.279981611493,None,1076.279981611493,None,f,1,0.5639383192592504,None,None,011,001,1,24,f,2021_Nov_09_1400,eye_tracking_exp,2021.2.3,84.96850490682301,
90,180,180,0,168,0,-12,180,180,180,None,present,inhibit,freq_top,,,,,0,208,208,1001,,,0.9479875945619103,,,,,,,,,,1077.8461511063142,None,1077.8461511063142,None,None,1,,None,None,011,001,1,24,f,2021_Nov_09_1400,eye_tracking_exp,2021.2.3,84.96850490682301,
0,0,0,0,-168,0,0,0,0,-168,f,abs,resp,freq_top,,,,,0,209,209,290,,,0.7978594657416568,,,,,,,,,,1083.0472891290774,None,1083.0472891290774,None,f,1,0.6766838301173266,None,None,011,001,1,24,f,2021_Nov_09_1400,eye_tracking_exp,2021.2.3,84.96850490682301,
168,180,270,180,180,0,180,12,0,0,None,present,inhibit,freq_top,,,,,0,210,210,992,,,1.0198850831381359,,,,,,,,,,1084.8111045811584,None,1084.8111045811584,None,None,1,,None,None,011,001,1,24,f,2021_Nov_09_1400,eye_tracking_exp,2021.2.3,84.96850490682301,
0,180,0,-168,180,0,180,0,-168,180,f,abs,resp,freq_top,,,,,0,211,211,283,,,0.9194246509592421,,,,,,,,,,1088.7296590731057,None,1088.7296590731057,None,f,1,0.5934393152019766,None,None,011,001,1,24,f,2021_Nov_09_1400,eye_tracking_exp,2021.2.3,84.96850490682301,
0,0,270,0,-168,180,180,0,180,-168,f,present,resp,freq_top,,,,,0,212,212,829,,,0.8969492685342779,,,,,,,,,,1090.3063361565055,None,1090.3063361565055,None,f,1,0.5687802436041238,None,None,011,001,1,24,f,2021_Nov_09_1400,eye_tracking_exp,2021.2.3,84.96850490682301,
0,0,90,180,168,180,180,180,168,0,f,present,resp,freq_top,,,,,0,213,213,751,,,0.8912269975737714,,,,,,,,,,1091.8734093806124,None,1091.8734093806124,None,f,1,1.273699953866526,None,None,011,001,1,24,f,2021_Nov_09_1400,eye_tracking_exp,2021.2.3,84.96850490682301,
270,0,180,180,-168,0,0,0,180,168,f,present,resp,freq_top,,,,,0,214,214,899,,,0.9476026456022785,,,,,,,,,,1094.3552401659072,None,1094.3552401659072,None,f,1,0.8078670484028407,None,None,011,001,1,24,f,2021_Nov_09_1400,eye_tracking_exp,2021.2.3,84.96850490682301,
180,-168,180,90,180,180,0,180,0,-168,f,present,resp,freq_top,,,,,0,215,215,832,,,0.8033521749085187,,,,,,,,,,1096.0251716074454,None,1096.0251716074454,None,f,1,0.8020042782154633,None,None,011,001,1,24,f,2021_Nov_09_1400,eye_tracking_exp,2021.2.3,84.96850490682301,
180,12,180,12,0,180,0,180,180,180,j,abs,resp,freq_top,,,,,0,216,216,5,,,0.9740431277028283,,,,,,,,,,1097.9785691798133,None,1097.9785691798133,None,j,1,0.6246430288847478,None,None,011,001,1,24,f,2021_Nov_09_1400,eye_tracking_exp,2021.2.3,84.96850490682301,
180,168,180,0,90,180,0,180,0,168,f,present,resp,freq_top,,,,,0,217,217,762,,,0.9350738446465405,,,,,,,,,,1099.6257679359624,None,1099.6257679359624,None,f,1,0.640457989557035,None,None,011,001,1,24,f,2021_Nov_09_1400,eye_tracking_exp,2021.2.3,84.96850490682301,
168,180,180,12,180,180,180,0,0,0,None,abs,inhibit,freq_top,,,,,0,218,218,484,,,0.863808201495666,,,,,,,,,,1101.226033742245,None,1101.226033742245,None,None,1,,None,None,011,001,1,24,f,2021_Nov_09_1400,eye_tracking_exp,2021.2.3,84.96850490682301,
0,-168,180,180,180,180,180,168,0,270,f,present,resp,freq_top,,,,,0,219,219,887,,,1.073172916788398,,,,,,,,,,1105.3093008956694,None,1105.3093008956694,None,f,1,0.7971442430625757,None,None,011,001,1,24,f,2021_Nov_09_1400,eye_tracking_exp,2021.2.3,84.96850490682301,
180,12,180,0,180,180,-12,0,180,180,j,abs,resp,freq_top,,,,,0,220,220,199,,,0.8150611300237326,,,,,,,,,,1107.2515485494896,None,1107.2515485494896,None,j,1,0.6467714170012187,None,None,011,001,1,24,f,2021_Nov_09_1400,eye_tracking_exp,2021.2.3,84.96850490682301,
0,270,180,180,0,0,-168,0,-168,0,f,present,resp,freq_top,,,,,0,221,221,819,,,0.7348013828330751,,,,,,,,,,1108.77029187679,None,1108.77029187679,None,f,1,0.616015040259299,None,None,011,001,1,24,f,2021_Nov_09_1400,eye_tracking_exp,2021.2.3,84.96850490682301,
180,180,180,-168,180,180,-168,180,180,180,f,abs,resp,freq_top,,,,,0,222,222,281,,,0.8234736261492605,,,,,,,,,,1110.2751188597194,None,1110.2751188597194,None,f,1,0.5509860735346592,None,None,011,001,1,24,f,2021_Nov_09_1400,eye_tracking_exp,2021.2.3,84.96850490682301,
0,0,180,180,168,0,0,270,-168,0,f,present,resp,freq_top,,,,,0,223,223,891,,,0.7640440959047126,,,,,,,,,,1111.8398748060245,None,1111.8398748060245,None,f,1,0.4904377205457422,None,None,011,001,1,24,f,2021_Nov_09_1400,eye_tracking_exp,2021.2.3,84.96850490682301,
180,180,180,-168,180,180,12,180,0,180,None,abs,inhibit,freq_top,,,,,0,224,224,421,,,0.7112862964828954,,,,,,,,,,1113.4405951935732,None,1113.4405951935732,None,None,1,,None,None,011,001,1,24,f,2021_Nov_09_1400,eye_tracking_exp,2021.2.3,84.96850490682301,
180,0,0,180,180,12,0,180,0,12,j,abs,resp,freq_top,,,,,0,225,225,16,,,0.8345745714638368,,,,,,,,,,1117.2774714535935,None,1117.2774714535935,None,j,1,0.5563504946712783,None,None,011,001,1,24,f,2021_Nov_09_1400,eye_tracking_exp,2021.2.3,84.96850490682301,
12,0,-12,0,270,0,0,0,180,180,j,present,resp,freq_top,,,,,0,226,226,699,,,0.9078057421244815,,,,,,,,,,1119.3718112527877,None,1119.3718112527877,None,j,1,0.8775990899521275,None,None,011,001,1,24,f,2021_Nov_09_1400,eye_tracking_exp,2021.2.3,84.96850490682301,
180,0,180,0,180,168,180,180,-168,180,f,abs,resp,freq_top,,,,,0,227,227,365,,,1.0088453978601843,,,,,,,,,,1121.6075864964605,None,1121.6075864964605,None,f,1,0.5618072809265868,None,None,011,001,1,24,f,2021_Nov_09_1400,eye_tracking_exp,2021.2.3,84.96850490682301,
0,0,12,0,0,0,0,0,-12,0,j,abs,resp,freq_top,,,,,0,228,228,179,,,0.9880823714247831,,,,,,,,,,1123.2325243537525,None,1123.2325243537525,None,j,1,0.6169402006707969,None,None,011,001,1,24,f,2021_Nov_09_1400,eye_tracking_exp,2021.2.3,84.96850490682301,
-168,180,90,0,0,168,180,180,0,0,f,present,resp,freq_top,,,,,0,229,229,920,,,0.9003925281088958,,,,,,,,,,1124.9728259409549,None,1124.9728259409549,None,f,1,0.5886785876427894,None,None,011,001,1,24,f,2021_Nov_09_1400,eye_tracking_exp,2021.2.3,84.96850490682301,
-168,0,90,180,180,0,-168,180,180,180,f,present,resp,freq_top,,,,,0,230,230,811,,,1.034217757159867,,,,,,,,,,1126.644087319446,None,1126.644087319446,None,f,1,0.5174062219284679,None,None,011,001,1,24,f,2021_Nov_09_1400,eye_tracking_exp,2021.2.3,84.96850490682301,
12,180,180,12,0,0,180,180,180,0,j,abs,resp,freq_top,,,,,0,231,231,64,,,1.0061111079371865,,,,,,,,,,1128.3974591744663,None,1128.3974591744663,None,j,1,0.5725995110278745,None,None,011,001,1,24,f,2021_Nov_09_1400,eye_tracking_exp,2021.2.3,84.96850490682301,
12,180,180,12,0,0,180,180,180,90,j,present,resp,freq_top,,,,,0,232,232,568,,,1.0544620778637612,,,,,,,,,,1130.115142476212,None,1130.115142476212,None,j,1,1.0140356497558969,None,None,011,001,1,24,f,2021_Nov_09_1400,eye_tracking_exp,2021.2.3,84.96850490682301,
0,-168,0,0,270,0,180,180,180,-168,f,present,resp,freq_top,,,,,0,233,233,846,,,1.0435777976154412,,,,,,,,,,1132.4096254111519,None,1132.4096254111519,None,f,1,0.6237106241514994,None,None,011,001,1,24,f,2021_Nov_09_1400,eye_tracking_exp,2021.2.3,84.96850490682301,
180,0,180,0,180,12,180,180,12,180,j,abs,resp,freq_top,,,,,0,234,234,15,,,0.8970348164059839,,,,,,,,,,1133.9979924170038,None,1133.9979924170038,None,j,1,0.5546402307645621,None,None,011,001,1,24,f,2021_Nov_09_1400,eye_tracking_exp,2021.2.3,84.96850490682301,
0,0,180,0,0,0,168,0,180,168,f,abs,resp,freq_top,,,,,0,235,235,253,,,0.9293937179820774,,,,,,,,,,1135.8810497265422,None,1135.8810497265422,None,f,1,0.5595868959462678,None,None,011,001,1,24,f,2021_Nov_09_1400,eye_tracking_exp,2021.2.3,84.96850490682301,
0,0,180,90,180,-12,0,12,0,0,j,present,resp,freq_top,,,,,0,236,236,673,,,0.9123901756255439,,,,,,,,,,1137.8925377134929,None,1137.8925377134929,None,j,1,0.5800382233028358,None,None,011,001,1,24,f,2021_Nov_09_1400,eye_tracking_exp,2021.2.3,84.96850490682301,
0,270,0,0,0,0,-168,0,0,-168,f,present,resp,freq_top,,,,,0,237,237,806,,,0.7767223365557521,,,,,,,,,,1139.8222940416344,None,1139.8222940416344,None,f,1,0.554400866260039,None,None,011,001,1,24,f,2021_Nov_09_1400,eye_tracking_exp,2021.2.3,84.96850490682301,
180,180,0,180,-12,180,0,180,12,180,j,abs,resp,freq_top,,,,,0,238,238,149,,,0.7058176468748465,,,,,,,,,,1141.5530029378751,None,1141.5530029378751,None,j,1,0.7131508462643978,None,None,011,001,1,24,f,2021_Nov_09_1400,eye_tracking_exp,2021.2.3,84.96850490682301,
180,12,180,180,12,0,0,0,180,180,j,abs,resp,freq_top,,,,,0,239,239,57,,,0.7482479638120084,,,,,,,,,,1143.2816647091895,None,1143.2816647091895,None,j,1,0.7424239478805248,None,None,011,001,1,24,f,2021_Nov_09_1400,eye_tracking_exp,2021.2.3,84.96850490682301,
0,270,180,180,180,168,0,-168,0,0,f,present,resp,freq_top,,,,,0,240,240,868,,,0.7660351482851996,,,,,,,,,,1144.928781966706,None,1144.928781966706,None,f,1,1.463940100155014,None,None,011,001,1,24,f,2021_Nov_09_1400,eye_tracking_exp,2021.2.3,84.96850490682301,
180,180,0,0,180,180,0,168,0,-168,f,abs,resp,freq_top,,,,,0,241,241,378,,,1.0303857686743318,,,,,,,,,,1147.7528276252597,None,1147.7528276252597,None,f,1,0.6068681770084368,None,None,011,001,1,24,f,2021_Nov_09_1400,eye_tracking_exp,2021.2.3,84.96850490682301,
180,270,0,180,180,-12,180,180,0,12,j,present,resp,freq_top,,,,,0,242,242,688,,,0.8066222753729809,,,,,,,,,,1149.9311076962167,None,1149.9311076962167,None,j,1,0.5566804132122343,None,None,011,001,1,24,f,2021_Nov_09_1400,eye_tracking_exp,2021.2.3,84.96850490682301,
180,180,0,-12,0,180,0,180,-12,180,j,abs,resp,freq_top,,,,,0,243,243,73,,,1.0856894364725325,,,,,,,,,,1152.601826052336,None,1152.601826052336,None,j,1,0.5899961488794361,None,None,011,001,1,24,f,2021_Nov_09_1400,eye_tracking_exp,2021.2.3,84.96850490682301,
-12,180,180,90,180,180,0,12,0,0,j,present,resp,freq_top,,,,,0,244,244,712,,,0.8997310422044349,,,,,,,,,,1155.0829794934343,None,1155.0829794934343,None,j,1,0.8129794274700544,None,None,011,001,1,24,f,2021_Nov_09_1400,eye_tracking_exp,2021.2.3,84.96850490682301,
0,0,0,270,0,0,12,0,0,12,j,present,resp,freq_top,,,,,0,245,245,526,,,1.0315724729536602,,,,,,,,,,1157.554344345006,None,1157.554344345006,None,j,1,0.5175686154998402,None,None,011,001,1,24,f,2021_Nov_09_1400,eye_tracking_exp,2021.2.3,84.96850490682301,
168,180,270,180,180,12,0,0,0,0,None,present,inhibit,freq_top,,,,,0,246,246,990,,,0.7786953472550815,,,,,,,,,,1159.6013907892648,None,1159.6013907892648,None,None,1,,None,None,011,001,1,24,f,2021_Nov_09_1400,eye_tracking_exp,2021.2.3,84.96850490682301,
-168,0,90,0,0,0,0,168,180,180,f,present,resp,freq_top,,,,,0,247,247,888,,,0.8191661106960826,,,,,,,,,,1163.7446164870526,None,1163.7446164870526,None,f,1,0.9982955470859451,None,None,011,001,1,24,f,2021_Nov_09_1400,eye_tracking_exp,2021.2.3,84.96850490682301,
168,0,90,180,0,180,168,180,0,180,f,present,resp,freq_top,,,,,0,248,248,741,,,0.7651202862229399,,,,,,,,,,1165.6861560083053,None,1165.6861560083053,None,f,1,0.6727528793817328,None,None,011,001,1,24,f,2021_Nov_09_1400,eye_tracking_exp,2021.2.3,84.96850490682301,
0,0,0,168,0,0,180,180,0,168,f,abs,resp,freq_top,,,,,0,249,249,214,,,0.9923823756435735,,,,,,,,,,1167.5216878427273,None,1167.5216878427273,None,f,1,0.6772322857341351,None,None,011,001,1,24,f,2021_Nov_09_1400,eye_tracking_exp,2021.2.3,84.96850490682301,
180,-12,180,180,270,180,180,180,0,12,j,present,resp,freq_top,,,,,0,250,250,692,,,1.0123209063845637,,,,,,,,,,1169.33383379531,None,1169.33383379531,None,j,1,0.7058093286559597,None,None,011,001,1,24,f,2021_Nov_09_1400,eye_tracking_exp,2021.2.3,84.96850490682301,
0,0,90,0,0,0,168,0,0,168,f,present,resp,freq_top,,,,,0,251,251,736,,,1.0217250310031625,,,,,,,,,,1173.145880742144,None,1173.145880742144,None,f,1,0.8931547642350779,None,None,011,001,1,24,f,2021_Nov_09_1400,eye_tracking_exp,2021.2.3,84.96850490682301,
0,0,0,-12,0,180,180,180,180,-12,j,abs,resp,freq_top,,,,,0,252,252,74,,,0.8724774976997745,,,,,,,,,,1175.5698399517769,None,1175.5698399517769,None,j,1,0.5812066722228337,None,None,011,001,1,24,f,2021_Nov_09_1400,eye_tracking_exp,2021.2.3,84.96850490682301,
180,270,180,180,168,180,168,180,180,180,f,present,resp,freq_top,,,,,0,253,253,737,,,0.7245281043477643,,,,,,,,,,1176.9356689030483,None,1176.9356689030483,None,f,1,0.5918600528020761,None,None,011,001,1,24,f,2021_Nov_09_1400,eye_tracking_exp,2021.2.3,84.96850490682301,
270,0,-12,0,180,180,180,180,-12,0,j,present,resp,freq_top,,,,,0,254,254,613,,,0.7556533947840711,,,,,,,,,,1178.3820622715957,None,1178.3820622715957,None,j,1,0.5841001755452453,None,None,011,001,1,24,f,2021_Nov_09_1400,eye_tracking_exp,2021.2.3,84.96850490682301,
12,0,0,0,0,-168,0,0,0,0,None,abs,inhibit,freq_top,,,,,0,255,255,440,,,1.0195269930638304,,,,,,,,,,1180.137095189497,None,1180.137095189497,None,None,1,,None,None,011,001,1,24,f,2021_Nov_09_1400,eye_tracking_exp,2021.2.3,84.96850490682301,
180,180,180,90,168,0,0,0,0,12,None,present,inhibit,freq_top,,,,,0,256,256,934,,,1.0476522115985438,,,,,,,,,,1184.1853239676311,None,1184.1853239676311,None,None,1,,None,None,011,001,1,24,f,2021_Nov_09_1400,eye_tracking_exp,2021.2.3,84.96850490682301,
180,-12,0,12,180,180,90,180,0,180,j,present,resp,freq_top,,,,,0,257,257,649,,,0.7640498967370215,,,,,,,,,,1187.9612712458638,None,1187.9612712458638,None,j,1,0.6529399579849269,None,None,011,001,1,24,f,2021_Nov_09_1400,eye_tracking_exp,2021.2.3,84.96850490682301,
90,0,0,168,0,0,168,180,180,180,f,present,resp,freq_top,,,,,0,258,258,738,,,1.0289998421554525,,,,,,,,,,1189.773386410072,None,1189.773386410072,None,f,1,0.7282271878430038,None,None,011,001,1,24,f,2021_Nov_09_1400,eye_tracking_exp,2021.2.3,84.96850490682301,
180,180,90,180,12,180,12,0,0,180,j,present,resp,freq_top,,,,,0,259,259,511,,,0.7553673495290961,,,,,,,,,,1191.317032399329,None,1191.317032399329,None,j,1,0.6572304082474147,None,None,011,001,1,24,f,2021_Nov_09_1400,eye_tracking_exp,2021.2.3,84.96850490682301,
0,0,168,0,0,0,0,0,180,168,f,abs,resp,freq_top,,,,,0,260,260,257,,,0.9156017378472593,,,,,,,,,,1193.3039210803454,None,1193.3039210803454,None,f,1,0.5573061416071141,None,None,011,001,1,24,f,2021_Nov_09_1400,eye_tracking_exp,2021.2.3,84.96850490682301,
180,180,0,180,12,180,168,180,0,180,None,abs,inhibit,freq_top,,,,,0,261,261,443,,,0.7880946734204117,,,,,,,,,,1194.7159666990538,None,1194.7159666990538,None,None,1,,None,None,011,001,1,24,f,2021_Nov_09_1400,eye_tracking_exp,2021.2.3,84.96850490682301,
0,0,0,0,-168,0,0,0,0,168,f,abs,resp,freq_top,,,,,0,262,262,360,,,1.0745196990570778,,,,,,,,,,1198.8124499122987,None,1198.8124499122987,None,f,1,0.5529927509887784,None,None,011,001,1,24,f,2021_Nov_09_1400,eye_tracking_exp,2021.2.3,84.96850490682301,
90,180,0,180,180,168,180,0,-168,180,f,present,resp,freq_top,,,,,0,263,263,890,,,1.0123206080162155,,,,,,,,,,1200.423075100387,None,1200.423075100387,None,f,1,0.5102427939273184,None,None,011,001,1,24,f,2021_Nov_09_1400,eye_tracking_exp,2021.2.3,84.96850490682301,
0,0,90,0,0,0,-12,0,180,12,j,present,resp,freq_top,,,,,0,264,264,687,,,1.0120511958501837,,,,,,,,,,1202.0002055576624,None,1202.0002055576624,None,j,1,0.5811411714694259,None,None,011,001,1,24,f,2021_Nov_09_1400,eye_tracking_exp,2021.2.3,84.96850490682301,
180,0,0,0,0,0,0,-12,0,-12,j,abs,resp,freq_top,,,,,0,265,265,98,,,0.8331407454574599,,,,,,,,,,1203.752784159322,None,1203.752784159322,None,j,1,0.5405817165556073,None,None,011,001,1,24,f,2021_Nov_09_1400,eye_tracking_exp,2021.2.3,84.96850490682301,
-12,0,180,90,0,0,0,0,-12,0,j,present,resp,freq_top,,,,,0,266,266,615,,,0.9830595111504488,,,,,,,,,,1205.44714134489,None,1205.44714134489,None,j,1,0.735310928293984,None,None,011,001,1,24,f,2021_Nov_09_1400,eye_tracking_exp,2021.2.3,84.96850490682301,
180,180,0,0,180,180,0,-168,0,-168,f,abs,resp,freq_top,,,,,0,267,267,322,,,1.0367474330126394,,,,,,,,,,1207.412312149423,None,1207.412312149423,None,f,1,0.5291800577870163,None,None,011,001,1,24,f,2021_Nov_09_1400,eye_tracking_exp,2021.2.3,84.96850490682301,
0,0,180,270,180,180,12,0,12,0,j,present,resp,freq_top,,,,,0,268,268,539,,,0.742936992679878,,,,,,,,,,1208.730203604715,None,1208.730203604715,None,j,1,0.5542433022346813,None,None,011,001,1,24,f,2021_Nov_09_1400,eye_tracking_exp,2021.2.3,84.96850490682301,
-12,0,-12,180,270,180,0,180,0,180,j,present,resp,freq_top,,,,,0,269,269,637,,,0.8937024005187624,,,,,,,,,,1210.2243663405807,None,1210.2243663405807,None,j,1,1.01213431683027,None,None,011,001,1,24,f,2021_Nov_09_1400,eye_tracking_exp,2021.2.3,84.96850490682301,
12,0,12,180,270,180,180,0,180,180,j,present,resp,freq_top,,,,,0,270,270,567,,,0.9968449585967845,,,,,,,,,,1212.3071541613044,None,1212.3071541613044,None,j,1,0.5293324904159817,None,None,011,001,1,24,f,2021_Nov_09_1400,eye_tracking_exp,2021.2.3,84.96850490682301,
0,-168,0,0,270,-168,180,0,0,0,f,present,resp,freq_top,,,,,0,271,271,842,,,0.8239807244071977,,,,,,,,,,1213.8250206236808,None,1213.8250206236808,None,f,1,0.5954816105786449,None,None,011,001,1,24,f,2021_Nov_09_1400,eye_tracking_exp,2021.2.3,84.96850490682301,
-168,0,270,180,168,180,0,180,0,180,f,present,resp,freq_top,,,,,0,272,272,919,,,1.030684948526728,,,,,,,,,,1215.6257292995724,None,1215.6257292995724,None,f,1,0.5548231499196845,None,None,011,001,1,24,f,2021_Nov_09_1400,eye_tracking_exp,2021.2.3,84.96850490682301,
180,168,180,0,180,180,-168,0,180,180,f,abs,resp,freq_top,,,,,0,273,273,409,,,0.9049006672194111,,,,,,,,,,1217.131314823484,None,1217.131314823484,None,f,1,0.7612093828065554,None,None,011,001,1,24,f,2021_Nov_09_1400,eye_tracking_exp,2021.2.3,84.96850490682301,
0,270,180,180,12,0,0,0,12,0,j,present,resp,freq_top,,,,,0,274,274,541,,,0.9994413199905022,,,,,,,,,,1218.9566336717944,None,1218.9566336717944,None,j,1,0.6638985056670208,None,None,011,001,1,24,f,2021_Nov_09_1400,eye_tracking_exp,2021.2.3,84.96850490682301,
180,-168,180,180,12,180,180,0,0,180,None,abs,inhibit,freq_top,,,,,0,275,275,477,,,0.8017081495935368,,,,,,,,,,1220.779395274105,None,1220.779395274105,None,None,1,,None,None,011,001,1,24,f,2021_Nov_09_1400,eye_tracking_exp,2021.2.3,84.96850490682301,
0,0,180,180,180,180,12,0,168,0,None,abs,inhibit,freq_top,,,,,0,276,276,455,,,1.094229661884814,,,,,,,,,,1224.8974662678665,None,1224.8974662678665,None,None,1,,None,None,011,001,1,24,f,2021_Nov_09_1400,eye_tracking_exp,2021.2.3,84.96850490682301,
0,12,180,180,180,0,180,-168,0,0,None,abs,inhibit,freq_top,,,,,0,277,277,453,,,1.0787989957964943,,,,,,,,,,1228.992446284099,None,1228.992446284099,None,None,1,,None,None,011,001,1,24,f,2021_Nov_09_1400,eye_tracking_exp,2021.2.3,84.96850490682301,
90,0,0,12,0,12,180,180,180,0,j,present,resp,freq_top,,,,,0,278,278,504,,,1.0328040209279938,,,,,,,,,,1233.040845001975,None,1233.040845001975,None,j,1,0.6108782116025395,None,None,011,001,1,24,f,2021_Nov_09_1400,eye_tracking_exp,2021.2.3,84.96850490682301,
168,0,0,0,0,0,0,0,168,180,f,abs,resp,freq_top,,,,,0,279,279,279,,,1.0636329893899055,,,,,,,,,,1234.8655191055423,None,1234.8655191055423,None,f,1,0.6119322605900379,None,None,011,001,1,24,f,2021_Nov_09_1400,eye_tracking_exp,2021.2.3,84.96850490682301,
0,180,0,180,180,180,168,180,168,180,f,abs,resp,freq_top,,,,,0,280,280,231,,,0.822860822420266,,,,,,,,,,1236.3495195655578,None,1236.3495195655578,None,f,1,0.5507282963753823,None,None,011,001,1,24,f,2021_Nov_09_1400,eye_tracking_exp,2021.2.3,84.96850490682301,
180,12,0,0,270,180,-12,0,180,180,j,present,resp,freq_top,,,,,0,281,281,703,,,0.9054594741295433,,,,,,,,,,1237.8442292478067,None,1237.8442292478067,None,j,1,0.8955158098196989,None,None,011,001,1,24,f,2021_Nov_09_1400,eye_tracking_exp,2021.2.3,84.96850490682301,
0,270,0,-168,0,0,-168,0,180,0,f,present,resp,freq_top,,,,,0,282,282,808,,,1.0109389525568553,,,,,,,,,,1240.1602335569714,None,1240.1602335569714,None,f,1,0.6755232292125584,None,None,011,001,1,24,f,2021_Nov_09_1400,eye_tracking_exp,2021.2.3,84.96850490682301,
180,180,180,0,0,0,-168,0,0,168,f,abs,resp,freq_top,,,,,0,283,283,372,,,0.958358974387295,,,,,,,,,,1242.1024166155785,None,1242.1024166155785,None,f,1,0.49251352091414446,None,None,011,001,1,24,f,2021_Nov_09_1400,eye_tracking_exp,2021.2.3,84.96850490682301,
0,168,0,270,0,-168,180,180,0,0,f,present,resp,freq_top,,,,,0,284,284,912,,,1.099978213050251,,,,,,,,,,1243.748981191624,None,1243.748981191624,None,f,1,0.8459401913132751,None,None,011,001,1,24,f,2021_Nov_09_1400,eye_tracking_exp,2021.2.3,84.96850490682301,
180,0,180,0,180,-168,180,0,-168,180,f,abs,resp,freq_top,,,,,0,285,285,295,,,0.7290303972801089,,,,,,,,,,1245.4196941145,None,1245.4196941145,None,f,1,0.6471303128346335,None,None,011,001,1,24,f,2021_Nov_09_1400,eye_tracking_exp,2021.2.3,84.96850490682301,
270,180,180,180,-168,180,180,180,168,180,f,present,resp,freq_top,,,,,0,286,286,863,,,0.8246073389479993,,,,,,,,,,1246.9391676091836,None,1246.9391676091836,None,f,1,1.2714690042503207,None,None,011,001,1,24,f,2021_Nov_09_1400,eye_tracking_exp,2021.2.3,84.96850490682301,
0,90,168,0,0,168,0,0,180,180,f,present,resp,freq_top,,,,,0,287,287,732,,,0.888414848890092,,,,,,,,,,1249.3508576523745,None,1249.3508576523745,None,f,1,0.7160675917875778,None,None,011,001,1,24,f,2021_Nov_09_1400,eye_tracking_exp,2021.2.3,84.96850490682301,
180,180,180,270,180,180,168,180,168,180,f,present,resp,freq_top,,,,,0,288,288,735,,,1.0140740084809576,,,,,,,,,,1251.2450802746444,None,1251.2450802746444,None,f,1,0.661291756796345,None,None,011,001,1,24,f,2021_Nov_09_1400,eye_tracking_exp,2021.2.3,84.96850490682301,
168,0,168,180,0,0,180,180,0,180,f,abs,resp,freq_top,,,,,0,289,289,273,,,0.8941188620528201,,,,,,,,,,1253.2692467322813,None,1253.2692467322813,None,f,1,0.6217338295300578,None,None,011,001,1,24,f,2021_Nov_09_1400,eye_tracking_exp,2021.2.3,84.96850490682301,
180,180,-168,180,0,180,0,180,0,-168,f,abs,resp,freq_top,,,,,0,290,290,334,,,0.8169417992962992,,,,,,,,,,1254.834307845691,None,1254.834307845691,None,f,1,0.6077181775672216,None,None,011,001,1,24,f,2021_Nov_09_1400,eye_tracking_exp,2021.2.3,84.96850490682301,
180,0,-168,0,0,0,-168,0,0,0,f,abs,resp,freq_top,,,,,0,291,291,331,,,0.9818533172629396,,,,,,,,,,1256.6108751172287,None,1256.6108751172287,None,f,1,0.5431111926500307,None,None,011,001,1,24,f,2021_Nov_09_1400,eye_tracking_exp,2021.2.3,84.96850490682301,
0,180,0,180,168,180,12,180,0,180,None,abs,inhibit,freq_top,,,,,0,292,292,427,,,0.9518504068680027,,,,,,,,,,1258.3286743281424,None,1258.3286743281424,None,None,1,,None,None,011,001,1,24,f,2021_Nov_09_1400,eye_tracking_exp,2021.2.3,84.96850490682301,
180,0,180,180,168,180,-168,180,180,180,f,abs,resp,freq_top,,,,,0,293,293,373,,,0.7418996213749757,,,,,,,,,,1263.6593668039168,None,1263.6593668039168,None,f,1,0.6626485581127781,None,None,011,001,1,24,f,2021_Nov_09_1400,eye_tracking_exp,2021.2.3,84.96850490682301,
0,0,0,-168,0,0,0,0,0,-12,None,abs,inhibit,freq_top,,,,,0,294,294,494,,,1.008919714820519,,,,,,,,,,1265.7318317662957,None,1265.7318317662957,None,None,1,,None,None,011,001,1,24,f,2021_Nov_09_1400,eye_tracking_exp,2021.2.3,84.96850490682301,
0,270,180,180,-168,180,180,180,0,-168,f,present,resp,freq_top,,,,,0,295,295,794,,,0.8724268997681922,,,,,,,,,,1269.6254724279552,None,1269.6254724279552,None,f,1,0.5366495584330551,None,None,011,001,1,24,f,2021_Nov_09_1400,eye_tracking_exp,2021.2.3,84.96850490682301,
180,-12,180,90,180,12,0,180,0,180,j,present,resp,freq_top,,,,,0,296,296,663,,,1.0485074275760047,,,,,,,,,,1271.2729974804843,None,1271.2729974804843,None,j,1,0.6321635416370555,None,None,011,001,1,24,f,2021_Nov_09_1400,eye_tracking_exp,2021.2.3,84.96850490682301,
180,12,180,180,180,-168,180,180,180,180,None,abs,inhibit,freq_top,,,,,0,297,297,439,,,1.023198973569659,,,,,,,,,,1273.0491946878592,None,1273.0491946878592,None,f,0,0.5999625261629262,1273.6731286027298,None,011,001,1,24,f,2021_Nov_09_1400,eye_tracking_exp,2021.2.3,84.96850490682301,
180,90,180,-168,180,12,0,0,0,0,None,present,inhibit,freq_top,,,,,0,298,298,924,,,0.8896400456369158,,,,,,,,,,1275.0981678201733,None,1275.0981678201733,None,None,1,,None,None,011,001,1,24,f,2021_Nov_09_1400,eye_tracking_exp,2021.2.3,84.96850490682301,
168,0,0,90,12,0,180,0,180,180,None,present,inhibit,freq_top,,,,,0,299,299,989,,,0.9606526149046022,,,,,,,,,,1279.0740330564495,None,1279.0740330564495,None,None,1,,None,None,011,001,1,24,f,2021_Nov_09_1400,eye_tracking_exp,2021.2.3,84.96850490682301,
0,12,180,90,180,0,180,-168,0,0,None,present,inhibit,freq_top,,,,,0,300,300,957,,,0.8045000900066581,,,,,,,,,,1282.8873459487168,None,1282.8873459487168,None,None,1,,None,None,011,001,1,24,f,2021_Nov_09_1400,eye_tracking_exp,2021.2.3,84.96850490682301,
0,180,180,180,180,12,0,12,0,0,j,abs,resp,freq_top,,,,,0,301,301,14,,,0.9877353285531275,,,,,,,,,,1286.8891799698085,None,1286.8891799698085,None,j,1,0.6311918968222017,None,None,011,001,1,24,f,2021_Nov_09_1400,eye_tracking_exp,2021.2.3,84.96850490682301,
270,0,-168,180,180,0,0,0,0,168,f,present,resp,freq_top,,,,,0,302,302,908,,,0.8991992396535695,,,,,,,,,,1288.7001595863967,None,1288.7001595863967,None,f,1,0.8521691016558179,None,None,011,001,1,24,f,2021_Nov_09_1400,eye_tracking_exp,2021.2.3,84.96850490682301,
180,12,0,270,180,-168,180,180,0,180,None,present,inhibit,freq_top,,,,,0,303,303,943,,,1.0196310008690428,,,,,,,,,,1290.8068231862999,None,1290.8068231862999,None,None,1,,None,None,011,001,1,24,f,2021_Nov_09_1400,eye_tracking_exp,2021.2.3,84.96850490682301,
-168,0,0,180,0,0,0,168,180,180,f,abs,resp,freq_top,,,,,0,304,304,384,,,1.015147940915184,,,,,,,,,,1294.8544226138783,None,1294.8544226138783,None,f,1,0.6979474271829531,None,None,011,001,1,24,f,2021_Nov_09_1400,eye_tracking_exp,2021.2.3,84.96850490682301,
180,12,0,180,0,0,180,180,-12,180,j,abs,resp,freq_top,,,,,0,305,305,180,,,0.8797664567243838,,,,,,,,,,1296.4782385066555,None,1296.4782385066555,None,None,0,,1299.4680991711593,None,011,001,1,24,f,2021_Nov_09_1400,eye_tracking_exp,2021.2.3,84.96850490682301,
180,270,180,12,180,180,180,180,12,180,j,present,resp,freq_top,,,,,0,306,306,507,,,0.7035755765957277,,,,,,,,,,1300.691631509062,None,1300.691631509062,None,j,1,0.6529019252902799,None,None,011,001,1,24,f,2021_Nov_09_1400,eye_tracking_exp,2021.2.3,84.96850490682301,
0,0,0,0,0,-168,0,0,0,-168,f,abs,resp,freq_top,,,,,0,307,307,296,,,1.0204263572224679,,,,,,,,,,1302.5167773991616,None,1302.5167773991616,None,f,1,0.5398192515676783,None,None,011,001,1,24,f,2021_Nov_09_1400,eye_tracking_exp,2021.2.3,84.96850490682301,
12,180,0,0,0,12,0,180,180,180,j,abs,resp,freq_top,,,,,0,308,308,66,,,1.0196730829754195,,,,,,,,,,1304.1172581203573,None,1304.1172581203573,None,j,1,0.5862505320710625,None,None,011,001,1,24,f,2021_Nov_09_1400,eye_tracking_exp,2021.2.3,84.96850490682301,
12,0,270,0,180,180,180,180,12,0,j,present,resp,freq_top,,,,,0,309,309,573,,,0.9478830248696507,,,,,,,,,,1306.0233864855345,None,1306.0233864855345,None,j,1,0.6001689893691946,None,None,011,001,1,24,f,2021_Nov_09_1400,eye_tracking_exp,2021.2.3,84.96850490682301,
270,180,180,-168,180,0,180,180,-168,180,f,present,resp,freq_top,,,,,0,310,310,787,,,0.7820283244324926,,,,,,,,,,1307.5516286294423,None,1307.5516286294423,None,f,1,0.6733626098957757,None,None,011,001,1,24,f,2021_Nov_09_1400,eye_tracking_exp,2021.2.3,84.96850490682301,
0,270,0,12,0,-12,180,180,180,180,j,present,resp,freq_top,,,,,0,311,311,644,,,0.7988853201695412,,,,,,,,,,1309.3166952364645,None,1309.3166952364645,None,j,1,1.0509137812277913,None,None,011,001,1,24,f,2021_Nov_09_1400,eye_tracking_exp,2021.2.3,84.96850490682301,
180,12,180,0,-12,0,270,0,180,180,j,present,resp,freq_top,,,,,0,312,312,701,,,0.7603584720163857,,,,,,,,,,1311.3292034655624,None,1311.3292034655624,None,j,1,0.926398056670223,None,None,011,001,1,24,f,2021_Nov_09_1400,eye_tracking_exp,2021.2.3,84.96850490682301,
12,180,0,180,12,0,180,0,180,180,j,abs,resp,freq_top,,,,,0,313,313,13,,,0.9149277748906474,,,,,,,,,,1313.2944663333674,None,1313.2944663333674,None,j,1,0.5451368864523829,None,None,011,001,1,24,f,2021_Nov_09_1400,eye_tracking_exp,2021.2.3,84.96850490682301,
12,0,0,12,0,0,90,180,180,0,j,present,resp,freq_top,,,,,0,314,314,510,,,0.9793098464755066,,,,,,,,,,1314.965381191745,None,1314.965381191745,None,j,1,0.5542864663257205,None,None,011,001,1,24,f,2021_Nov_09_1400,eye_tracking_exp,2021.2.3,84.96850490682301,
-168,180,90,0,0,180,180,168,0,0,f,present,resp,freq_top,,,,,0,315,315,922,,,0.7094705774899253,,,,,,,,,,1316.318559140389,None,1316.318559140389,None,f,1,0.7377474355744198,None,None,011,001,1,24,f,2021_Nov_09_1400,eye_tracking_exp,2021.2.3,84.96850490682301,
90,180,180,12,0,180,0,180,-12,180,j,present,resp,freq_top,,,,,0,316,316,647,,,0.701292623072334,,,,,,,,,,1317.9072554610866,None,1317.9072554610866,None,j,1,1.3234657358516415,None,None,011,001,1,24,f,2021_Nov_09_1400,eye_tracking_exp,2021.2.3,84.96850490682301,
12,0,0,180,0,180,-12,180,0,180,j,abs,resp,freq_top,,,,,0,317,317,167,,,0.9246222943706366,,,,,,,,,,1320.4031275553207,None,1320.4031275553207,None,j,1,0.5715249364602641,None,None,011,001,1,24,f,2021_Nov_09_1400,eye_tracking_exp,2021.2.3,84.96850490682301,
180,-168,180,180,-168,0,0,0,180,180,f,abs,resp,freq_top,,,,,0,318,318,337,,,0.8282778162692321,,,,,,,,,,1322.0256910857697,None,1322.0256910857697,None,f,1,0.5969914482175227,None,None,011,001,1,24,f,2021_Nov_09_1400,eye_tracking_exp,2021.2.3,84.96850490682301,
0,0,168,0,90,0,0,0,168,0,f,present,resp,freq_top,,,,,0,319,319,753,,,0.7317867058574522,,,,,,,,,,1323.4845193346446,None,1323.4845193346446,None,f,1,0.7381860189598228,None,None,011,001,1,24,f,2021_Nov_09_1400,eye_tracking_exp,2021.2.3,84.96850490682301,
168,0,0,168,0,0,0,0,0,0,f,abs,resp,freq_top,,,,,0,320,320,216,,,0.8301364476273234,,,,,,,,,,1325.225966430411,None,1325.225966430411,None,None,0,,1328.2033738019327,None,011,001,1,24,f,2021_Nov_09_1400,eye_tracking_exp,2021.2.3,84.96850490682301,
0,12,0,12,180,90,180,180,0,0,j,present,resp,freq_top,,,,,0,321,321,560,,,1.0746784041959128,,,,,,,,,,1335.6269638529411,None,1335.6269638529411,None,j,1,1.1228619819048618,None,None,011,001,1,24,f,2021_Nov_09_1400,eye_tracking_exp,2021.2.3,84.96850490682301,
180,180,0,0,0,-168,180,180,-168,180,f,abs,resp,freq_top,,,,,0,322,322,316,,,0.9489068091872483,,,,,,,,,,1337.9688424688775,None,1337.9688424688775,None,f,1,0.7650443462625844,None,None,011,001,1,24,f,2021_Nov_09_1400,eye_tracking_exp,2021.2.3,84.96850490682301,
168,180,0,0,180,12,0,0,0,0,None,abs,inhibit,freq_top,,,,,0,323,323,486,,,1.081572394597469,,,,,,,,,,1340.2867496202016,None,1340.2867496202016,None,None,1,,None,None,011,001,1,24,f,2021_Nov_09_1400,eye_tracking_exp,2021.2.3,84.96850490682301,
270,0,12,0,0,12,180,180,180,0,j,present,resp,freq_top,,,,,0,324,324,522,,,0.9718459342305392,,,,,,,,,,1344.300141053005,None,1344.300141053005,None,j,1,0.8658850197571155,None,None,011,001,1,24,f,2021_Nov_09_1400,eye_tracking_exp,2021.2.3,84.96850490682301,
180,180,-12,0,90,0,0,-12,180,180,j,present,resp,freq_top,,,,,0,325,325,606,,,1.0783512572439315,,,,,,,,,,1346.3007867032866,None,1346.3007867032866,None,j,1,0.6412026455855084,None,None,011,001,1,24,f,2021_Nov_09_1400,eye_tracking_exp,2021.2.3,84.96850490682301,
180,180,180,180,-168,0,0,168,0,0,f,abs,resp,freq_top,,,,,0,326,326,358,,,1.0402883888032441,,,,,,,,,,1348.1708881449376,None,1348.1708881449376,None,f,1,0.8502650521095347,None,None,011,001,1,24,f,2021_Nov_09_1400,eye_tracking_exp,2021.2.3,84.96850490682301,
-168,0,0,180,168,180,180,0,180,0,f,abs,resp,freq_top,,,,,0,327,327,415,,,0.8444534949326425,,,,,,,,,,1350.1710097891937,None,1350.1710097891937,None,f,1,0.5300919369383337,None,None,011,001,1,24,f,2021_Nov_09_1400,eye_tracking_exp,2021.2.3,84.96850490682301,
0,0,180,0,-168,0,0,0,-168,0,f,abs,resp,freq_top,,,,,0,328,328,317,,,0.829744018002516,,,,,,,,,,1351.5945699573695,None,1351.5945699573695,None,f,1,0.5314629250551661,None,None,011,001,1,24,f,2021_Nov_09_1400,eye_tracking_exp,2021.2.3,84.96850490682301,
90,180,180,180,-12,0,0,180,-12,180,j,present,resp,freq_top,,,,,0,329,329,583,,,0.7657317020592158,,,,,,,,,,1353.3828371123036,None,1353.3828371123036,None,j,1,0.74227785403491,1354.149108088015,None,011,001,1,24,f,2021_Nov_09_1400,eye_tracking_exp,2021.2.3,84.96850490682301,
168,0,168,180,90,180,0,0,180,180,f,present,resp,freq_top,,,,,0,330,330,777,,,0.8270466507195936,,,,,,,,,,1355.5124555568327,None,1355.5124555568327,None,f,1,0.7726439428752201,None,None,011,001,1,24,f,2021_Nov_09_1400,eye_tracking_exp,2021.2.3,84.96850490682301,
0,0,180,168,180,0,180,168,0,0,f,abs,resp,freq_top,,,,,0,331,331,241,,,1.0550848030511488,,,,,,,,,,1357.3832609051951,None,1357.3832609051951,None,f,1,0.549868033025632,None,None,011,001,1,24,f,2021_Nov_09_1400,eye_tracking_exp,2021.2.3,84.96850490682301,
0,12,180,270,180,180,180,12,0,180,j,present,resp,freq_top,,,,,0,332,332,537,,,0.9993628265591674,,,,,,,,,,1359.008084060708,None,1359.008084060708,None,j,1,0.5571413332600059,None,None,011,001,1,24,f,2021_Nov_09_1400,eye_tracking_exp,2021.2.3,84.96850490682301,
0,270,0,0,0,12,180,180,180,-12,j,present,resp,freq_top,,,,,0,333,333,660,,,0.7018249882083903,,,,,,,,,,1360.3481141669072,None,1360.3481141669072,None,j,1,0.5770378662164148,1360.938433517791,None,011,001,1,24,f,2021_Nov_09_1400,eye_tracking_exp,2021.2.3,84.96850490682301,
180,0,0,-12,0,180,0,180,0,-12,j,abs,resp,freq_top,,,,,0,334,334,116,,,0.730991606101925,,,,,,,,,,1362.2187616493993,None,1362.2187616493993,None,j,1,0.8663987629915937,None,None,011,001,1,24,f,2021_Nov_09_1400,eye_tracking_exp,2021.2.3,84.96850490682301,
270,180,180,-168,180,180,180,180,12,180,None,present,inhibit,freq_top,,,,,0,335,335,927,,,0.7637459407713386,,,,,,,,,,1385.619412551816,None,1385.619412551816,None,None,1,,None,None,011,001,1,24,f,2021_Nov_09_1400,eye_tracking_exp,2021.2.3,84.96850490682301,
270,180,12,180,0,180,168,180,0,180,None,present,inhibit,freq_top,,,,,0,336,336,949,,,1.0954975285513886,,,,,,,,,,1389.726377696661,None,1389.726377696661,None,None,1,,None,None,011,001,1,24,f,2021_Nov_09_1400,eye_tracking_exp,2021.2.3,84.96850490682301,
180,0,180,180,-168,90,0,168,180,180,f,present,resp,freq_top,,,,,0,337,337,884,,,0.8116403514140377,,,,,,,,,,1393.5393102619746,None,1393.5393102619746,None,f,1,0.8082186999108671,None,None,011,001,1,24,f,2021_Nov_09_1400,eye_tracking_exp,2021.2.3,84.96850490682301,
0,180,-12,0,0,180,180,-12,0,180,j,abs,resp,freq_top,,,,,0,338,338,122,,,0.9347984757534703,,,,,,,,,,1395.5404276987883,None,1395.5404276987883,None,j,1,0.6781444667321921,None,None,011,001,1,24,f,2021_Nov_09_1400,eye_tracking_exp,2021.2.3,84.96850490682301,
