ori10,ori11,ori12,ori13,ori14,ori16,ori17,ori18,ori19,ori20,corrAns,distractor,respon,dist_freq,practice_trials.thisRepN,practice_trials.thisTrialN,practice_trials.thisN,practice_trials.thisIndex,trials.thisRepN,trials.thisTrialN,trials.thisN,trials.thisIndex,key_resp.keys,key_resp.rt,fixdur,int14_2.started,int14_2.stopped,per15_2.started,per15_2.stopped,response_pract.keys,response_pract.corr,response_pract.rt,key_resp_2.keys,key_resp_2.rt,int14.started,int14.stopped,per15.started,per15.stopped,response.keys,response.corr,response.rt,text_7.started,text_7.stopped,participant,session,1=top 2=bottom,age,gender,date,expName,psychopyVersion,frameRate,
,,,,,,,,,,,,,,,,,,,,,,space,231.13643161484686,,,,,,,,,,,,,,,,,,,,012,001,1,26,M,2021_Nov_10_1011,eye_tracking_exp,2021.2.3,85.01765551221452,
90,0,0,12,0,0,0,12,0,0,j,present,resp,pract,0,0,0,34,,,,,,,0.9947130160153161,457.96165915275964,None,457.96165915275964,None,None,0,,,,,,,,,,,,,012,001,1,26,M,2021_Nov_10_1011,eye_tracking_exp,2021.2.3,85.01765551221452,
180,0,180,12,0,180,180,0,12,180,j,abs,resp,pract,0,1,1,3,,,,,,,0.7768265214393513,462.2347478152521,None,462.2347478152521,None,j,1,1.0912343778074955,,,,,,,,,,,,012,001,1,26,M,2021_Nov_10_1011,eye_tracking_exp,2021.2.3,85.01765551221452,
0,0,0,0,168,0,0,12,0,0,None,abs,inhibit,pract,0,2,2,29,,,,,,,0.9059885596569904,464.5046541349025,None,464.5046541349025,None,None,1,,,,,,,,,,,,,012,001,1,26,M,2021_Nov_10_1011,eye_tracking_exp,2021.2.3,85.01765551221452,
180,0,180,12,180,180,12,180,180,180,j,abs,resp,pract,0,3,3,1,,,,,,,0.978289404674833,468.8000865085325,None,468.8000865085325,None,j,1,1.0873167426235568,,,,,,,,,,,,012,001,1,26,M,2021_Nov_10_1011,eye_tracking_exp,2021.2.3,85.01765551221452,
180,12,180,12,0,180,0,180,180,180,j,abs,resp,pract,0,4,4,5,,,,,,,0.795475257089303,471.20100586543543,None,471.20100586543543,None,j,1,1.4521132030782837,,,,,,,,,,,,012,001,1,26,M,2021_Nov_10_1011,eye_tracking_exp,2021.2.3,85.01765551221452,
0,270,0,0,12,0,0,12,0,0,j,present,resp,pract,0,5,5,40,,,,,,,0.7701749280718991,473.96593024743976,None,473.96593024743976,None,j,1,1.2485975035606316,,,,,,,,,,,,012,001,1,26,M,2021_Nov_10_1011,eye_tracking_exp,2021.2.3,85.01765551221452,
90,0,0,12,0,12,180,180,180,0,j,present,resp,pract,0,6,6,32,,,,,,,1.027685059533702,477.0374274668514,None,477.0374274668514,None,j,1,0.9115876079021064,,,,,,,,,,,,012,001,1,26,M,2021_Nov_10_1011,eye_tracking_exp,2021.2.3,85.01765551221452,
168,0,180,0,0,180,180,0,168,0,f,abs,resp,pract,0,7,7,13,,,,,,,0.9670336883270008,479.50988630134674,None,479.50988630134674,None,f,1,1.4163908538133683,,,,,,,,,,,,012,001,1,26,M,2021_Nov_10_1011,eye_tracking_exp,2021.2.3,85.01765551221452,
90,0,180,168,180,180,0,168,0,0,f,present,resp,pract,0,8,8,46,,,,,,,0.8522115075612957,482.0747939611852,None,482.0747939611852,None,f,1,1.8416768813269755,,,,,,,,,,,,012,001,1,26,M,2021_Nov_10_1011,eye_tracking_exp,2021.2.3,85.01765551221452,
0,180,0,180,168,180,12,180,0,180,None,abs,inhibit,pract,0,9,9,28,,,,,,,0.8275195849384765,485.2503489318339,None,485.2503489318339,None,None,1,,,,,,,,,,,,,012,001,1,26,M,2021_Nov_10_1011,eye_tracking_exp,2021.2.3,85.01765551221452,
180,12,180,-168,180,180,0,180,180,180,None,abs,inhibit,pract,0,10,10,26,,,,,,,0.9157971086411802,489.39341430403186,None,489.39341430403186,None,None,1,,,,,,,,,,,,,012,001,1,26,M,2021_Nov_10_1011,eye_tracking_exp,2021.2.3,85.01765551221452,
180,180,180,-168,180,180,12,180,0,180,None,abs,inhibit,pract,0,11,11,22,,,,,,,0.860725505235475,493.7478560010239,None,493.7478560010239,None,None,1,,,,,,,,,,,,,012,001,1,26,M,2021_Nov_10_1011,eye_tracking_exp,2021.2.3,85.01765551221452,
12,0,0,12,0,0,180,0,180,180,j,abs,resp,pract,0,12,12,6,,,,,,,1.0799965529976807,498.12670179730077,None,498.12670179730077,None,j,1,2.4773808784678977,,,,,,,,,,,,012,001,1,26,M,2021_Nov_10_1011,eye_tracking_exp,2021.2.3,85.01765551221452,
0,180,0,0,180,0,180,168,0,168,f,abs,resp,pract,0,13,13,14,,,,,,,0.8339701724176687,501.8671251880489,None,501.8671251880489,None,f,1,1.328749500199251,,,,,,,,,,,,012,001,1,26,M,2021_Nov_10_1011,eye_tracking_exp,2021.2.3,85.01765551221452,
180,180,90,180,12,180,12,0,0,180,j,present,resp,pract,0,14,14,39,,,,,,,0.9865843567310051,504.6563667382239,None,504.6563667382239,None,j,1,1.4187253164461708,,,,,,,,,,,,012,001,1,26,M,2021_Nov_10_1011,eye_tracking_exp,2021.2.3,85.01765551221452,
0,180,180,180,12,0,180,12,0,0,j,abs,resp,pract,0,15,15,8,,,,,,,1.087912630820311,507.5288303418566,None,507.5288303418566,None,j,1,1.7143276283309206,,,,,,,,,,,,012,001,1,26,M,2021_Nov_10_1011,eye_tracking_exp,2021.2.3,85.01765551221452,
90,0,0,12,0,180,180,180,0,12,j,present,resp,pract,0,16,16,36,,,,,,,0.7473935859818436,510.26898660053456,None,510.26898660053456,None,j,1,1.261866572262761,,,,,,,,,,,,012,001,1,26,M,2021_Nov_10_1011,eye_tracking_exp,2021.2.3,85.01765551221452,
0,180,0,12,0,180,180,180,0,12,j,abs,resp,pract,0,17,17,4,,,,,,,1.0156870130496922,513.2116437587081,None,513.2116437587081,None,j,1,0.7834665394220224,,,,,,,,,,,,012,001,1,26,M,2021_Nov_10_1011,eye_tracking_exp,2021.2.3,85.01765551221452,
180,180,0,168,180,180,180,0,0,168,f,abs,resp,pract,0,18,18,18,,,,,,,1.086905194340735,515.6352636065305,None,515.6352636065305,None,f,1,0.9838819977059643,,,,,,,,,,,,012,001,1,26,M,2021_Nov_10_1011,eye_tracking_exp,2021.2.3,85.01765551221452,
180,270,0,0,168,0,0,168,180,0,f,present,resp,pract,0,19,19,45,,,,,,,1.0912766784096506,518.1176630743189,None,518.1176630743189,None,f,1,0.9805360553365858,,,,,,,,,,,,012,001,1,26,M,2021_Nov_10_1011,eye_tracking_exp,2021.2.3,85.01765551221452,
168,0,270,180,180,180,180,168,180,180,f,present,resp,pract,0,20,20,49,,,,,,,0.8162489855571815,520.4827653028944,None,520.4827653028944,None,f,1,1.7834227720207423,,,,,,,,,,,,012,001,1,26,M,2021_Nov_10_1011,eye_tracking_exp,2021.2.3,85.01765551221452,
0,270,0,0,12,0,180,180,180,12,j,present,resp,pract,0,21,21,42,,,,,,,1.0634375288980882,523.61353837405,None,523.61353837405,None,j,1,0.972618381516611,,,,,,,,,,,,012,001,1,26,M,2021_Nov_10_1011,eye_tracking_exp,2021.2.3,85.01765551221452,
0,0,168,0,0,0,0,0,168,0,f,abs,resp,pract,0,22,22,11,,,,,,,1.0425046263259163,525.967302430932,None,525.967302430932,None,f,1,2.7789289163602575,,,,,,,,,,,,012,001,1,26,M,2021_Nov_10_1011,eye_tracking_exp,2021.2.3,85.01765551221452,
180,168,180,0,180,0,180,0,0,168,f,abs,resp,pract,0,23,23,20,,,,,,,0.9622834747031941,529.9679559235103,None,529.9679559235103,None,f,1,0.8742353002432424,,,,,,,,,,,,012,001,1,26,M,2021_Nov_10_1011,eye_tracking_exp,2021.2.3,85.01765551221452,
0,0,180,0,168,0,0,0,180,168,f,abs,resp,pract,0,24,24,17,,,,,,,0.8401291363504236,531.9816065232142,None,531.9816065232142,None,f,1,0.9887646286278482,,,,,,,,,,,,012,001,1,26,M,2021_Nov_10_1011,eye_tracking_exp,2021.2.3,85.01765551221452,
0,0,0,-168,0,12,0,0,0,0,None,abs,inhibit,pract,0,25,25,21,,,,,,,0.7291845437402105,534.3100983770444,None,534.3100983770444,None,None,1,,,,,,,,,,,,,012,001,1,26,M,2021_Nov_10_1011,eye_tracking_exp,2021.2.3,85.01765551221452,
0,0,0,-168,180,180,180,180,0,12,None,abs,inhibit,pract,0,26,26,25,,,,,,,0.9679571841943471,538.9111980556406,None,538.9111980556406,None,None,1,,,,,,,,,,,,,012,001,1,26,M,2021_Nov_10_1011,eye_tracking_exp,2021.2.3,85.01765551221452,
12,0,0,12,0,0,90,180,180,0,j,present,resp,pract,0,27,27,38,,,,,,,0.8794808688238289,543.406500757025,None,543.406500757025,None,j,1,1.6427392519867112,,,,,,,,,,,,012,001,1,26,M,2021_Nov_10_1011,eye_tracking_exp,2021.2.3,85.01765551221452,
180,270,0,0,0,0,0,168,0,168,f,present,resp,pract,0,28,28,43,,,,,,,1.0836137710180758,546.738593611529,None,546.738593611529,None,f,1,1.5746652470461981,,,,,,,,,,,,012,001,1,26,M,2021_Nov_10_1011,eye_tracking_exp,2021.2.3,85.01765551221452,
90,0,180,180,180,168,0,168,0,0,f,present,resp,pract,0,29,29,44,,,,,,,1.0724027136182523,549.9722970460325,None,549.9722970460325,None,f,1,1.9399171903187948,,,,,,,,,,,,012,001,1,26,M,2021_Nov_10_1011,eye_tracking_exp,2021.2.3,85.01765551221452,
180,270,180,12,180,0,12,180,0,180,j,present,resp,pract,0,30,30,33,,,,,,,0.7603578396314004,553.2793646059968,None,553.2793646059968,None,j,1,1.0489076786059854,,,,,,,,,,,,012,001,1,26,M,2021_Nov_10_1011,eye_tracking_exp,2021.2.3,85.01765551221452,
180,180,0,168,180,180,180,180,168,180,f,abs,resp,pract,0,31,31,10,,,,,,,0.7361495000885163,559.5974687953521,None,559.5974687953521,None,f,1,1.2589661518542812,,,,,,,,,,,,012,001,1,26,M,2021_Nov_10_1011,eye_tracking_exp,2021.2.3,85.01765551221452,
0,180,0,12,0,12,0,180,180,180,j,abs,resp,pract,0,32,32,0,,,,,,,1.0049341115137818,562.174343971931,None,562.174343971931,None,j,1,0.7779424896878595,,,,,,,,,,,,012,001,1,26,M,2021_Nov_10_1011,eye_tracking_exp,2021.2.3,85.01765551221452,
180,0,180,0,168,180,0,180,12,180,None,abs,inhibit,pract,0,33,33,30,,,,,,,1.0801050097472265,564.4920708561024,None,564.4920708561024,None,None,1,,,,,,,,,,,,,012,001,1,26,M,2021_Nov_10_1011,eye_tracking_exp,2021.2.3,85.01765551221452,
180,0,180,0,12,0,12,180,180,180,j,abs,resp,pract,0,34,34,7,,,,,,,0.9610378316295429,568.788155514934,None,568.788155514934,None,j,1,1.315149912156187,,,,,,,,,,,,012,001,1,26,M,2021_Nov_10_1011,eye_tracking_exp,2021.2.3,85.01765551221452,
0,180,180,180,168,0,0,0,0,12,None,abs,inhibit,pract,0,35,35,31,,,,,,,0.7969407367869453,571.1651836057579,None,571.1651836057579,None,None,1,,,,,,,,,,,,,012,001,1,26,M,2021_Nov_10_1011,eye_tracking_exp,2021.2.3,85.01765551221452,
0,0,168,0,0,0,0,0,180,168,f,abs,resp,pract,0,36,36,19,,,,,,,1.041534561008088,575.2865219344105,None,575.2865219344105,None,f,1,0.9444354953550942,,,,,,,,,,,,012,001,1,26,M,2021_Nov_10_1011,eye_tracking_exp,2021.2.3,85.01765551221452,
0,0,0,-168,0,0,0,12,0,0,None,abs,inhibit,pract,0,37,37,23,,,,,,,0.8477884176017285,577.3554311421058,None,577.3554311421058,None,None,1,,,,,,,,,,,,,012,001,1,26,M,2021_Nov_10_1011,eye_tracking_exp,2021.2.3,85.01765551221452,
180,0,90,180,12,0,180,180,12,180,j,present,resp,pract,0,38,38,41,,,,,,,0.8045664336454534,581.2268268211465,None,581.2268268211465,None,j,1,1.3395132624812618,,,,,,,,,,,,012,001,1,26,M,2021_Nov_10_1011,eye_tracking_exp,2021.2.3,85.01765551221452,
0,180,0,12,0,180,180,12,0,0,j,abs,resp,pract,0,39,39,2,,,,,,,1.0097500088101228,583.8512931606947,None,583.8512931606947,None,j,1,1.0669968964915029,,,,,,,,,,,,012,001,1,26,M,2021_Nov_10_1011,eye_tracking_exp,2021.2.3,85.01765551221452,
180,270,180,12,180,180,180,180,12,180,j,present,resp,pract,0,40,40,35,,,,,,,1.0124490595955762,586.511564554804,None,586.511564554804,None,None,0,,,,,,,,,,,,,012,001,1,26,M,2021_Nov_10_1011,eye_tracking_exp,2021.2.3,85.01765551221452,
180,180,168,0,270,0,0,168,0,180,f,present,resp,pract,0,41,41,47,,,,,,,0.9661625603406314,591.0064881399398,None,591.0064881399398,None,f,1,2.423863911204819,,,,,,,,,,,,012,001,1,26,M,2021_Nov_10_1011,eye_tracking_exp,2021.2.3,85.01765551221452,
0,180,0,0,180,168,180,0,0,168,f,abs,resp,pract,0,42,42,16,,,,,,,0.9466237619009658,594.701816015126,None,594.701816015126,None,f,1,1.2396312231738307,,,,,,,,,,,,012,001,1,26,M,2021_Nov_10_1011,eye_tracking_exp,2021.2.3,85.01765551221452,
180,0,180,0,12,180,180,180,12,180,j,abs,resp,pract,0,43,43,9,,,,,,,0.9388230770549353,597.1964293044787,None,597.1964293044787,None,j,1,1.8329870901789604,,,,,,,,,,,,012,001,1,26,M,2021_Nov_10_1011,eye_tracking_exp,2021.2.3,85.01765551221452,
0,0,180,0,0,0,168,0,180,168,f,abs,resp,pract,0,44,44,15,,,,,,,0.9327875060171349,600.2925078056896,None,600.2925078056896,None,f,1,2.32109956213759,,,,,,,,,,,,012,001,1,26,M,2021_Nov_10_1011,eye_tracking_exp,2021.2.3,85.01765551221452,
180,12,180,12,180,90,180,180,0,180,j,present,resp,pract,0,45,45,37,,,,,,,0.835205869368869,603.7624981587508,None,603.7624981587508,None,j,1,1.2508836711297704,,,,,,,,,,,,012,001,1,26,M,2021_Nov_10_1011,eye_tracking_exp,2021.2.3,85.01765551221452,
180,168,0,180,0,180,180,180,168,180,f,abs,resp,pract,0,46,46,12,,,,,,,0.8120601257051806,606.139391928929,None,606.139391928929,None,f,1,1.6099638071289633,,,,,,,,,,,,012,001,1,26,M,2021_Nov_10_1011,eye_tracking_exp,2021.2.3,85.01765551221452,
12,0,0,-168,0,0,180,180,180,180,None,abs,inhibit,pract,0,47,47,27,,,,,,,0.8927908570217822,608.9404536959005,None,608.9404536959005,None,None,1,,,,,,,,,,,,,012,001,1,26,M,2021_Nov_10_1011,eye_tracking_exp,2021.2.3,85.01765551221452,
0,168,180,90,0,180,0,168,0,0,f,present,resp,pract,0,48,48,48,,,,,,,0.9785797527908178,613.2121414997066,None,613.2121414997066,None,f,1,1.4653919307930323,,,,,,,,,,,,012,001,1,26,M,2021_Nov_10_1011,eye_tracking_exp,2021.2.3,85.01765551221452,
0,180,0,-168,180,0,180,0,12,180,None,abs,inhibit,pract,0,49,49,24,,,,,,,0.7671772704996515,615.743714699327,None,615.743714699327,None,None,1,,,,,,,,,,,,,012,001,1,26,M,2021_Nov_10_1011,eye_tracking_exp,2021.2.3,85.01765551221452,
,,,,,,,,,,,,,,,,,,,,,,,,,,,,,,,,space,14.450400237544102,,,,,,,,,,012,001,1,26,M,2021_Nov_10_1011,eye_tracking_exp,2021.2.3,85.01765551221452,
0,0,-168,0,0,0,0,0,-168,0,f,abs,resp,freq_top,,,,,0,0,0,319,,,0.9712532156461697,,,,,,,,,,635.4609830218706,None,635.4609830218706,None,f,1,1.6304653634372812,None,None,012,001,1,26,M,2021_Nov_10_1011,eye_tracking_exp,2021.2.3,85.01765551221452,
180,168,180,270,180,168,180,180,180,180,f,present,resp,freq_top,,,,,0,1,1,733,,,0.7892457151085335,,,,,,,,,,638.1688984016748,None,638.1688984016748,None,f,1,1.3385446446137053,None,None,012,001,1,26,M,2021_Nov_10_1011,eye_tracking_exp,2021.2.3,85.01765551221452,
180,90,180,-168,180,12,0,0,0,0,None,present,inhibit,freq_top,,,,,0,2,2,924,,,0.9436062204126521,,,,,,,,,,640.7450174586654,None,640.7450174586654,None,None,1,,None,None,012,001,1,26,M,2021_Nov_10_1011,eye_tracking_exp,2021.2.3,85.01765551221452,
90,0,12,0,12,180,180,180,180,180,j,present,resp,freq_top,,,,,0,3,3,515,,,0.9957335128343665,,,,,,,,,,645.0171257313684,None,645.0171257313684,None,j,1,1.1133372173156317,None,None,012,001,1,26,M,2021_Nov_10_1011,eye_tracking_exp,2021.2.3,85.01765551221452,
0,0,0,0,180,12,0,12,0,0,j,abs,resp,freq_top,,,,,0,4,4,29,,,0.9232897926596036,,,,,,,,,,647.5941047423337,None,647.5941047423337,None,j,1,1.144438936378549,None,None,012,001,1,26,M,2021_Nov_10_1011,eye_tracking_exp,2021.2.3,85.01765551221452,
0,168,0,0,168,0,0,0,0,0,f,abs,resp,freq_top,,,,,0,5,5,222,,,0.9104598291570181,,,,,,,,,,649.935830650945,None,649.935830650945,None,f,1,0.9466911766658654,None,None,012,001,1,26,M,2021_Nov_10_1011,eye_tracking_exp,2021.2.3,85.01765551221452,
0,0,12,0,180,180,180,0,12,0,j,abs,resp,freq_top,,,,,0,6,6,39,,,0.8672824174774836,,,,,,,,,,652.0423448098502,None,652.0423448098502,None,j,1,1.1281484077647406,None,None,012,001,1,26,M,2021_Nov_10_1011,eye_tracking_exp,2021.2.3,85.01765551221452,
180,180,0,180,-12,180,0,180,12,180,j,abs,resp,freq_top,,,,,0,7,7,149,,,0.9604485150209822,,,,,,,,,,654.1963668227402,None,654.1963668227402,None,None,0,,657.1755570835578,None,012,001,1,26,M,2021_Nov_10_1011,eye_tracking_exp,2021.2.3,85.01765551221452,
180,168,180,90,180,180,-168,0,0,180,f,present,resp,freq_top,,,,,0,8,8,913,,,0.888268464746008,,,,,,,,,,658.5986405543308,None,658.5986405543308,None,None,0,,661.5752029600044,None,012,001,1,26,M,2021_Nov_10_1011,eye_tracking_exp,2021.2.3,85.01765551221452,
180,0,-12,0,180,180,180,0,-12,0,j,abs,resp,freq_top,,,,,0,9,9,123,,,0.7782898608027284,,,,,,,,,,662.8928528739186,None,662.8928528739186,None,j,1,1.2370909028325627,None,None,012,001,1,26,M,2021_Nov_10_1011,eye_tracking_exp,2021.2.3,85.01765551221452,
0,270,180,180,12,0,0,0,12,0,j,present,resp,freq_top,,,,,0,10,10,541,,,0.9595119996921814,,,,,,,,,,665.3661843398427,None,665.3661843398427,None,j,1,1.0193236319144603,None,None,012,001,1,26,M,2021_Nov_10_1011,eye_tracking_exp,2021.2.3,85.01765551221452,
-168,180,90,0,168,0,180,180,180,180,f,present,resp,freq_top,,,,,0,11,11,918,,,0.7115996146039474,,,,,,,,,,667.5179881000963,None,667.5179881000963,None,f,1,2.2117577272632047,None,None,012,001,1,26,M,2021_Nov_10_1011,eye_tracking_exp,2021.2.3,85.01765551221452,
12,0,0,12,0,0,90,180,180,0,j,present,resp,freq_top,,,,,0,12,12,510,,,0.785004728360349,,,,,,,,,,670.7911048340943,None,670.7911048340943,None,j,1,0.9384460019462608,None,None,012,001,1,26,M,2021_Nov_10_1011,eye_tracking_exp,2021.2.3,85.01765551221452,
0,90,180,180,180,180,168,0,168,0,f,present,resp,freq_top,,,,,0,13,13,749,,,0.9188759305133369,,,,,,,,,,672.9436257760412,None,672.9436257760412,None,f,1,1.537030715109779,None,None,012,001,1,26,M,2021_Nov_10_1011,eye_tracking_exp,2021.2.3,85.01765551221452,
180,180,-12,0,0,0,0,-12,180,0,j,abs,resp,freq_top,,,,,0,14,14,102,,,0.7279312619975363,,,,,,,,,,675.4745509162781,None,675.4745509162781,None,j,1,1.1340289354366746,None,None,012,001,1,26,M,2021_Nov_10_1011,eye_tracking_exp,2021.2.3,85.01765551221452,
0,0,0,0,-12,0,0,12,0,0,j,abs,resp,freq_top,,,,,0,15,15,148,,,0.9516915101860464,,,,,,,,,,677.8862781047085,None,677.8862781047085,None,j,1,1.6182947055859245,None,None,012,001,1,26,M,2021_Nov_10_1011,eye_tracking_exp,2021.2.3,85.01765551221452,
180,180,-12,180,270,180,-12,0,0,180,j,present,resp,freq_top,,,,,0,16,16,599,,,0.7434236981449066,,,,,,,,,,680.5418703108512,None,680.5418703108512,None,j,1,1.4747008042866696,None,None,012,001,1,26,M,2021_Nov_10_1011,eye_tracking_exp,2021.2.3,85.01765551221452,
0,0,-168,0,0,-168,0,0,0,0,f,abs,resp,freq_top,,,,,0,17,17,298,,,0.9423959389550929,,,,,,,,,,683.625123152412,None,683.625123152412,None,f,1,1.1274855580182361,None,None,012,001,1,26,M,2021_Nov_10_1011,eye_tracking_exp,2021.2.3,85.01765551221452,
180,180,12,180,168,0,180,90,0,180,None,present,inhibit,freq_top,,,,,0,18,18,935,,,1.0480236483561716,,,,,,,,,,686.1316209513645,None,686.1316209513645,None,None,1,,None,None,012,001,1,26,M,2021_Nov_10_1011,eye_tracking_exp,2021.2.3,85.01765551221452,
0,0,0,0,-168,0,0,0,0,-168,f,abs,resp,freq_top,,,,,0,19,19,290,,,0.7731998054282468,,,,,,,,,,690.1332530226673,None,690.1332530226673,None,f,1,0.9547407563778165,None,None,012,001,1,26,M,2021_Nov_10_1011,eye_tracking_exp,2021.2.3,85.01765551221452,
168,0,0,0,90,168,0,0,0,0,f,present,resp,freq_top,,,,,0,20,20,734,,,0.902464447618579,,,,,,,,,,692.4986115169238,None,692.4986115169238,None,f,1,1.533033694915332,None,None,012,001,1,26,M,2021_Nov_10_1011,eye_tracking_exp,2021.2.3,85.01765551221452,
-12,0,90,180,-12,180,180,180,0,180,j,present,resp,freq_top,,,,,0,21,21,639,,,0.7969019410053029,,,,,,,,,,695.1120837871058,None,695.1120837871058,None,j,1,1.3678899325848874,None,None,012,001,1,26,M,2021_Nov_10_1011,eye_tracking_exp,2021.2.3,85.01765551221452,
180,0,0,0,-12,0,0,-12,180,0,j,abs,resp,freq_top,,,,,0,22,22,100,,,0.7290302904804302,,,,,,,,,,697.5116339789579,None,697.5116339789579,None,j,1,1.4319817076939785,None,None,012,001,1,26,M,2021_Nov_10_1011,eye_tracking_exp,2021.2.3,85.01765551221452,
180,168,0,180,0,180,90,180,-168,180,f,present,resp,freq_top,,,,,0,23,23,894,,,0.9957481790178861,,,,,,,,,,700.2183513393429,None,700.2183513393429,None,f,1,2.580596182690499,None,None,012,001,1,26,M,2021_Nov_10_1011,eye_tracking_exp,2021.2.3,85.01765551221452,
180,180,90,180,12,180,12,0,0,180,j,present,resp,freq_top,,,,,0,24,24,511,,,0.9889995975636822,,,,,,,,,,704.114768087105,None,704.114768087105,None,j,1,1.1319948077301092,None,None,012,001,1,26,M,2021_Nov_10_1011,eye_tracking_exp,2021.2.3,85.01765551221452,
-168,180,180,-168,180,180,180,180,90,0,f,present,resp,freq_top,,,,,0,25,25,848,,,0.8733770095686104,,,,,,,,,,706.4209201537715,None,706.4209201537715,None,f,1,0.9857117769250294,None,None,012,001,1,26,M,2021_Nov_10_1011,eye_tracking_exp,2021.2.3,85.01765551221452,
0,180,180,180,180,-168,0,0,0,12,None,abs,inhibit,freq_top,,,,,0,26,26,436,,,0.7309979565225944,,,,,,,,,,708.7624236032464,None,708.7624236032464,None,None,1,,None,None,012,001,1,26,M,2021_Nov_10_1011,eye_tracking_exp,2021.2.3,85.01765551221452,
-168,0,90,180,180,0,-168,180,180,180,f,present,resp,freq_top,,,,,0,27,27,811,,,0.73518879764025,,,,,,,,,,712.8105254865125,None,712.8105254865125,None,f,1,1.8133107757683433,None,None,012,001,1,26,M,2021_Nov_10_1011,eye_tracking_exp,2021.2.3,85.01765551221452,
0,168,0,180,0,180,180,168,0,0,f,abs,resp,freq_top,,,,,0,28,28,243,,,0.7234129141251835,,,,,,,,,,715.9643150794093,None,715.9643150794093,None,f,1,1.0736465230500585,None,None,012,001,1,26,M,2021_Nov_10_1011,eye_tracking_exp,2021.2.3,85.01765551221452,
12,0,0,-168,0,0,180,180,180,180,None,abs,inhibit,freq_top,,,,,0,29,29,426,,,0.7096735920323273,,,,,,,,,,718.0605469174468,None,718.0605469174468,None,None,1,,None,None,012,001,1,26,M,2021_Nov_10_1011,eye_tracking_exp,2021.2.3,85.01765551221452,
180,270,0,180,180,-12,180,180,0,12,j,present,resp,freq_top,,,,,0,30,30,688,,,1.079670780610833,,,,,,,,,,722.3533194404533,None,722.3533194404533,None,j,1,1.3083946401462185,None,None,012,001,1,26,M,2021_Nov_10_1011,eye_tracking_exp,2021.2.3,85.01765551221452,
-12,180,180,-12,0,270,0,180,180,180,j,present,resp,freq_top,,,,,0,31,31,638,,,0.826421240687256,,,,,,,,,,724.7185574988953,None,724.7185574988953,None,j,1,0.9272041185354851,None,None,012,001,1,26,M,2021_Nov_10_1011,eye_tracking_exp,2021.2.3,85.01765551221452,
180,-168,180,0,180,0,180,180,12,180,None,abs,inhibit,freq_top,,,,,0,32,32,481,,,0.7583023034252403,,,,,,,,,,726.7069968680651,None,726.7069968680651,None,None,1,,None,None,012,001,1,26,M,2021_Nov_10_1011,eye_tracking_exp,2021.2.3,85.01765551221452,
180,0,-12,0,0,0,0,12,180,180,j,abs,resp,freq_top,,,,,0,33,33,172,,,0.8652252347364173,,,,,,,,,,730.8735158323293,None,730.8735158323293,None,j,1,1.9562294517109535,None,None,012,001,1,26,M,2021_Nov_10_1011,eye_tracking_exp,2021.2.3,85.01765551221452,
-168,180,180,0,0,-168,0,0,0,0,f,abs,resp,freq_top,,,,,0,34,34,346,,,0.9541148759642273,,,,,,,,,,734.0737344882293,None,734.0737344882293,None,f,1,1.0600267114492112,None,None,012,001,1,26,M,2021_Nov_10_1011,eye_tracking_exp,2021.2.3,85.01765551221452,
0,-12,0,0,0,0,-12,0,0,0,j,abs,resp,freq_top,,,,,0,35,35,96,,,0.754637936679293,,,,,,,,,,736.1800442986471,None,736.1800442986471,None,j,1,0.9207730271394325,None,None,012,001,1,26,M,2021_Nov_10_1011,eye_tracking_exp,2021.2.3,85.01765551221452,
180,0,12,0,90,180,180,180,12,0,j,present,resp,freq_top,,,,,0,36,36,557,,,0.9239164906075797,,,,,,,,,,738.0863708915992,None,738.0863708915992,None,j,1,1.2543367681715267,None,None,012,001,1,26,M,2021_Nov_10_1011,eye_tracking_exp,2021.2.3,85.01765551221452,
0,0,90,0,12,0,0,0,180,-168,None,present,inhibit,freq_top,,,,,0,37,37,969,,,0.9306809977282388,,,,,,,,,,740.592394795241,None,740.592394795241,None,None,1,,None,None,012,001,1,26,M,2021_Nov_10_1011,eye_tracking_exp,2021.2.3,85.01765551221452,
-168,0,0,180,0,180,-168,0,180,180,f,abs,resp,freq_top,,,,,0,38,38,307,,,1.0211608245045725,,,,,,,,,,745.01783114114,None,745.01783114114,None,f,1,1.0109027839014857,None,None,012,001,1,26,M,2021_Nov_10_1011,eye_tracking_exp,2021.2.3,85.01765551221452,
180,180,270,0,0,0,0,12,0,12,j,present,resp,freq_top,,,,,0,39,39,532,,,1.00440066899912,,,,,,,,,,747.3243215750952,None,747.3243215750952,None,j,1,1.3444140040519983,None,None,012,001,1,26,M,2021_Nov_10_1011,eye_tracking_exp,2021.2.3,85.01765551221452,
0,0,168,0,0,0,0,0,180,168,f,abs,resp,freq_top,,,,,0,40,40,257,,,0.747104792871778,,,,,,,,,,749.7247447002205,None,749.7247447002205,None,f,1,1.6791419579590752,None,None,012,001,1,26,M,2021_Nov_10_1011,eye_tracking_exp,2021.2.3,85.01765551221452,
168,180,0,0,180,12,0,0,0,0,None,abs,inhibit,freq_top,,,,,0,41,41,486,,,0.9492958178152893,,,,,,,,,,752.7255663199887,None,752.7255663199887,None,None,1,,None,None,012,001,1,26,M,2021_Nov_10_1011,eye_tracking_exp,2021.2.3,85.01765551221452,
-168,0,90,0,0,0,0,168,180,180,f,present,resp,freq_top,,,,,0,42,42,888,,,0.8820025031496384,,,,,,,,,,805.2929237469243,None,805.2929237469243,None,f,1,2.2520173977459876,None,None,012,001,1,26,M,2021_Nov_10_1011,eye_tracking_exp,2021.2.3,85.01765551221452,
180,180,0,-12,0,180,0,180,0,12,j,abs,resp,freq_top,,,,,0,43,43,186,,,0.8324069388772196,,,,,,,,,,808.6717873520058,None,808.6717873520058,None,j,1,1.9291102643238105,None,None,012,001,1,26,M,2021_Nov_10_1011,eye_tracking_exp,2021.2.3,85.01765551221452,
0,0,168,0,0,270,0,0,-168,0,f,present,resp,freq_top,,,,,0,44,44,893,,,1.0940292649049896,,,,,,,,,,812.0359085871039,None,812.0359085871039,None,f,1,2.6280768707020457,None,None,012,001,1,26,M,2021_Nov_10_1011,eye_tracking_exp,2021.2.3,85.01765551221452,
180,-168,180,90,180,180,180,0,0,168,f,present,resp,freq_top,,,,,0,45,45,902,,,1.0693518660245018,,,,,,,,,,816.1549927436668,None,816.1549927436668,None,f,1,0.9409328958734591,None,None,012,001,1,26,M,2021_Nov_10_1011,eye_tracking_exp,2021.2.3,85.01765551221452,
0,180,0,180,180,180,168,180,168,180,f,abs,resp,freq_top,,,,,0,46,46,231,,,1.0804534588186694,,,,,,,,,,818.731747484431,None,818.731747484431,None,f,1,0.8761815913031228,None,None,012,001,1,26,M,2021_Nov_10_1011,eye_tracking_exp,2021.2.3,85.01765551221452,
12,0,180,0,-12,180,180,0,180,180,j,abs,resp,freq_top,,,,,0,47,47,153,,,0.9325120438817978,,,,,,,,,,821.0499781464837,None,821.0499781464837,None,j,1,0.8949991591153434,None,None,012,001,1,26,M,2021_Nov_10_1011,eye_tracking_exp,2021.2.3,85.01765551221452,
0,270,180,180,180,180,168,0,-168,0,f,present,resp,freq_top,,,,,0,48,48,889,,,0.9744732850812834,,,,,,,,,,823.5342212783221,None,823.5342212783221,None,f,1,1.1617533203387325,None,None,012,001,1,26,M,2021_Nov_10_1011,eye_tracking_exp,2021.2.3,85.01765551221452,
0,0,180,0,-168,0,0,0,180,-168,f,abs,resp,freq_top,,,,,0,49,49,325,,,1.0611910114667709,,,,,,,,,,826.0513512355085,None,826.0513512355085,None,f,1,0.7722143933099801,None,None,012,001,1,26,M,2021_Nov_10_1011,eye_tracking_exp,2021.2.3,85.01765551221452,
0,180,0,0,180,168,180,0,0,168,f,abs,resp,freq_top,,,,,0,50,50,254,,,0.9379879136720068,,,,,,,,,,828.0516657571097,None,828.0516657571097,None,f,1,0.8363085831725243,None,None,012,001,1,26,M,2021_Nov_10_1011,eye_tracking_exp,2021.2.3,85.01765551221452,
90,180,180,-168,0,180,0,180,-12,180,None,present,inhibit,freq_top,,,,,0,51,51,997,,,0.9670038841662661,,,,,,,,,,830.1582843540898,None,830.1582843540898,None,None,1,,None,None,012,001,1,26,M,2021_Nov_10_1011,eye_tracking_exp,2021.2.3,85.01765551221452,
270,180,12,180,180,180,0,0,0,12,j,present,resp,freq_top,,,,,0,52,52,558,,,0.754322480080835,,,,,,,,,,833.9246035578974,None,833.9246035578974,None,j,1,1.5704336939493828,None,None,012,001,1,26,M,2021_Nov_10_1011,eye_tracking_exp,2021.2.3,85.01765551221452,
0,168,0,270,180,180,168,0,0,0,f,present,resp,freq_top,,,,,0,53,53,740,,,0.8342567569934977,,,,,,,,,,836.6662880534916,None,836.6662880534916,None,f,1,1.9328446801103496,None,None,012,001,1,26,M,2021_Nov_10_1011,eye_tracking_exp,2021.2.3,85.01765551221452,
0,0,180,12,0,0,180,-168,0,0,None,abs,inhibit,freq_top,,,,,0,54,54,451,,,0.8677479353661092,,,,,,,,,,839.7864144778941,None,839.7864144778941,None,None,1,,None,None,012,001,1,26,M,2021_Nov_10_1011,eye_tracking_exp,2021.2.3,85.01765551221452,
0,0,0,12,0,0,0,-12,0,0,j,abs,resp,freq_top,,,,,0,55,55,142,,,0.8360133136466114,,,,,,,,,,843.892309554454,None,843.892309554454,None,j,1,0.9298247294196358,None,None,012,001,1,26,M,2021_Nov_10_1011,eye_tracking_exp,2021.2.3,85.01765551221452,
12,0,0,-168,0,0,90,180,180,180,None,present,inhibit,freq_top,,,,,0,56,56,930,,,0.738871941542566,,,,,,,,,,845.8928978486965,None,845.8928978486965,None,None,1,,None,None,012,001,1,26,M,2021_Nov_10_1011,eye_tracking_exp,2021.2.3,85.01765551221452,
12,0,0,180,0,180,-12,180,0,180,j,abs,resp,freq_top,,,,,0,57,57,167,,,0.9183765044597991,,,,,,,,,,850.1059928740633,None,850.1059928740633,None,j,1,1.27608645002789,None,None,012,001,1,26,M,2021_Nov_10_1011,eye_tracking_exp,2021.2.3,85.01765551221452,
0,-168,0,12,180,0,180,180,0,0,None,abs,inhibit,freq_top,,,,,0,58,58,476,,,0.9313143364869445,,,,,,,,,,852.9064243904559,None,852.9064243904559,None,None,1,,None,None,012,001,1,26,M,2021_Nov_10_1011,eye_tracking_exp,2021.2.3,85.01765551221452,
90,0,180,180,180,168,0,168,0,0,f,present,resp,freq_top,,,,,0,59,59,743,,,1.05651376377639,,,,,,,,,,856.9670220177195,None,856.9670220177195,None,f,1,1.1830019409110832,None,None,012,001,1,26,M,2021_Nov_10_1011,eye_tracking_exp,2021.2.3,85.01765551221452,
0,0,180,180,168,0,0,0,-168,0,f,abs,resp,freq_top,,,,,0,60,60,387,,,0.768805987312452,,,,,,,,,,859.2261455589066,None,859.2261455589066,None,f,1,1.2429548290766093,None,None,012,001,1,26,M,2021_Nov_10_1011,eye_tracking_exp,2021.2.3,85.01765551221452,
0,270,0,12,0,-12,180,180,180,180,j,present,resp,freq_top,,,,,0,61,61,644,,,0.9190016534646639,,,,,,,,,,861.6972195324556,None,861.6972195324556,None,j,1,1.2998159276442607,None,None,012,001,1,26,M,2021_Nov_10_1011,eye_tracking_exp,2021.2.3,85.01765551221452,
-168,180,0,180,270,180,0,-168,0,0,f,present,resp,freq_top,,,,,0,62,62,852,,,1.051518010492319,,,,,,,,,,864.3563333542613,None,864.3563333542613,None,f,1,1.2007373974564075,None,None,012,001,1,26,M,2021_Nov_10_1011,eye_tracking_exp,2021.2.3,85.01765551221452,
270,180,12,180,180,180,180,12,180,180,j,present,resp,freq_top,,,,,0,63,63,556,,,1.0767996542262217,,,,,,,,,,866.9218142161349,None,866.9218142161349,None,j,1,1.4524204804200167,None,None,012,001,1,26,M,2021_Nov_10_1011,eye_tracking_exp,2021.2.3,85.01765551221452,
12,0,12,180,180,0,180,180,0,180,j,abs,resp,freq_top,,,,,0,64,64,63,,,1.0519314911668467,,,,,,,,,,869.7346524325017,None,869.7346524325017,None,j,1,0.8145232837069329,None,None,012,001,1,26,M,2021_Nov_10_1011,eye_tracking_exp,2021.2.3,85.01765551221452,
0,0,0,0,0,0,-12,0,0,-12,j,abs,resp,freq_top,,,,,0,65,65,92,,,0.9972196934181693,,,,,,,,,,871.8411496881347,None,871.8411496881347,None,j,1,0.8199462156520099,None,None,012,001,1,26,M,2021_Nov_10_1011,eye_tracking_exp,2021.2.3,85.01765551221452,
0,12,0,0,180,180,180,180,0,-12,j,abs,resp,freq_top,,,,,0,66,66,202,,,0.7865061368107682,,,,,,,,,,873.7356219559017,None,873.7356219559017,None,j,1,1.6611924939136884,None,None,012,001,1,26,M,2021_Nov_10_1011,eye_tracking_exp,2021.2.3,85.01765551221452,
0,0,168,0,90,0,0,0,168,0,f,present,resp,freq_top,,,,,0,67,67,753,,,1.0374534831269988,,,,,,,,,,876.5479452261538,None,876.5479452261538,None,f,1,1.0723265585950799,None,None,012,001,1,26,M,2021_Nov_10_1011,eye_tracking_exp,2021.2.3,85.01765551221452,
0,0,0,0,168,0,0,168,0,0,f,abs,resp,freq_top,,,,,0,68,68,218,,,0.8242881313839822,,,,,,,,,,878.7482985045433,None,878.7482985045433,None,f,1,0.7277771998329285,None,None,012,001,1,26,M,2021_Nov_10_1011,eye_tracking_exp,2021.2.3,85.01765551221452,
180,180,0,12,180,0,180,0,0,12,j,abs,resp,freq_top,,,,,0,69,69,46,,,0.7693844493386175,,,,,,,,,,880.5604962076302,None,880.5604962076302,None,j,1,1.2847345866835553,None,None,012,001,1,26,M,2021_Nov_10_1011,eye_tracking_exp,2021.2.3,85.01765551221452,
0,0,90,0,0,0,-12,0,180,12,j,present,resp,freq_top,,,,,0,70,70,687,,,0.925705958137089,,,,,,,,,,883.0548960931708,None,883.0548960931708,None,j,1,1.3172610101201485,None,None,012,001,1,26,M,2021_Nov_10_1011,eye_tracking_exp,2021.2.3,85.01765551221452,
0,0,180,0,180,-168,0,168,0,0,f,abs,resp,freq_top,,,,,0,71,71,379,,,0.7105544474368163,,,,,,,,,,885.4438726845535,None,885.4438726845535,None,f,1,1.0882382728044036,None,None,012,001,1,26,M,2021_Nov_10_1011,eye_tracking_exp,2021.2.3,85.01765551221452,
0,0,180,90,180,-12,0,12,0,0,j,present,resp,freq_top,,,,,0,72,72,673,,,0.8778210245105178,,,,,,,,,,887.7153359163144,None,887.7153359163144,None,j,1,1.0409130345286144,None,None,012,001,1,26,M,2021_Nov_10_1011,eye_tracking_exp,2021.2.3,85.01765551221452,
12,0,180,0,180,0,180,12,0,0,j,abs,resp,freq_top,,,,,0,73,73,68,,,0.7484540469857567,,,,,,,,,,889.7861087097733,None,889.7861087097733,None,j,1,0.8740427236774053,None,None,012,001,1,26,M,2021_Nov_10_1011,eye_tracking_exp,2021.2.3,85.01765551221452,
0,168,0,180,180,180,0,-168,0,0,f,abs,resp,freq_top,,,,,0,74,74,410,,,0.9040634155756058,,,,,,,,,,891.8569931855666,None,891.8569931855666,None,f,1,0.89821802509897,None,None,012,001,1,26,M,2021_Nov_10_1011,eye_tracking_exp,2021.2.3,85.01765551221452,
-12,0,-12,0,0,0,0,0,180,180,j,abs,resp,freq_top,,,,,0,75,75,125,,,0.9607159671128493,,,,,,,,,,894.1159978001599,None,894.1159978001599,None,j,1,0.9271334870048236,None,None,012,001,1,26,M,2021_Nov_10_1011,eye_tracking_exp,2021.2.3,85.01765551221452,
180,0,180,12,0,12,180,0,180,180,j,abs,resp,freq_top,,,,,0,76,76,17,,,0.7895194150209531,,,,,,,,,,896.127856351163,None,896.127856351163,None,j,1,1.1873931695614033,None,None,012,001,1,26,M,2021_Nov_10_1011,eye_tracking_exp,2021.2.3,85.01765551221452,
0,0,-168,0,90,168,0,180,180,180,f,present,resp,freq_top,,,,,0,77,77,872,,,1.046558230777356,,,,,,,,,,898.670974787562,None,898.670974787562,None,f,1,1.3002098342561226,None,None,012,001,1,26,M,2021_Nov_10_1011,eye_tracking_exp,2021.2.3,85.01765551221452,
0,0,-168,0,180,180,0,0,180,168,f,abs,resp,freq_top,,,,,0,78,78,397,,,0.7325207182300292,,,,,,,,,,901.2606952436606,None,901.2606952436606,None,f,1,1.1584592951624586,None,None,012,001,1,26,M,2021_Nov_10_1011,eye_tracking_exp,2021.2.3,85.01765551221452,
180,0,-12,0,90,0,12,0,0,0,j,present,resp,freq_top,,,,,0,79,79,695,,,1.078252362391234,,,,,,,,,,903.8002606726054,None,903.8002606726054,None,j,1,1.0505729527649805,None,None,012,001,1,26,M,2021_Nov_10_1011,eye_tracking_exp,2021.2.3,85.01765551221452,
0,270,0,0,-12,180,180,180,0,-12,j,present,resp,freq_top,,,,,0,80,80,584,,,1.09922740450621,,,,,,,,,,906.4121875007547,None,906.4121875007547,None,j,1,1.6380039210085329,None,None,012,001,1,26,M,2021_Nov_10_1011,eye_tracking_exp,2021.2.3,85.01765551221452,
-12,0,0,-12,0,270,0,0,0,0,j,present,resp,freq_top,,,,,0,81,81,580,,,0.8471769047265653,,,,,,,,,,909.2244983953965,None,909.2244983953965,None,j,1,0.6816388127431878,None,None,012,001,1,26,M,2021_Nov_10_1011,eye_tracking_exp,2021.2.3,85.01765551221452,
0,270,0,168,0,-168,0,0,0,0,f,present,resp,freq_top,,,,,0,82,82,854,,,0.8059299775002279,,,,,,,,,,911.0012481255478,None,911.0012481255478,None,f,1,1.2571979488409966,None,None,012,001,1,26,M,2021_Nov_10_1011,eye_tracking_exp,2021.2.3,85.01765551221452,
180,180,180,90,168,0,0,0,0,12,None,present,inhibit,freq_top,,,,,0,83,83,934,,,0.9547456127365808,,,,,,,,,,933.5080486741797,None,933.5080486741797,None,None,1,,None,None,012,001,1,26,M,2021_Nov_10_1011,eye_tracking_exp,2021.2.3,85.01765551221452,
90,0,12,0,12,0,0,180,180,180,j,present,resp,freq_top,,,,,0,84,84,553,,,0.7249796045234091,,,,,,,,,,937.5348783930301,None,937.5348783930301,None,j,1,1.457447392844017,None,None,012,001,1,26,M,2021_Nov_10_1011,eye_tracking_exp,2021.2.3,85.01765551221452,
0,180,0,180,180,168,180,180,168,180,f,abs,resp,freq_top,,,,,0,85,85,225,,,0.7779794822656091,,,,,,,,,,942.4757413895938,None,942.4757413895938,None,f,1,1.0606705450146023,None,None,012,001,1,26,M,2021_Nov_10_1011,eye_tracking_exp,2021.2.3,85.01765551221452,
0,90,180,12,0,0,12,180,180,180,j,present,resp,freq_top,,,,,0,86,86,528,,,1.0388652553303612,,,,,,,,,,944.8426616254669,None,944.8426616254669,None,j,1,0.9496060855934161,None,None,012,001,1,26,M,2021_Nov_10_1011,eye_tracking_exp,2021.2.3,85.01765551221452,
180,-168,180,-168,0,180,0,180,0,180,f,abs,resp,freq_top,,,,,0,87,87,285,,,1.0748751484084644,,,,,,,,,,947.4182053675133,None,947.4182053675133,None,f,1,1.8780575526766938,None,None,012,001,1,26,M,2021_Nov_10_1011,eye_tracking_exp,2021.2.3,85.01765551221452,
180,180,0,180,90,168,180,180,0,168,f,present,resp,freq_top,,,,,0,88,88,758,,,0.8923011532065799,,,,,,,,,,950.8199369870158,None,950.8199369870158,None,f,1,0.9723479291606623,None,None,012,001,1,26,M,2021_Nov_10_1011,eye_tracking_exp,2021.2.3,85.01765551221452,
180,-168,180,90,180,180,-168,0,180,180,f,present,resp,freq_top,,,,,0,89,89,843,,,0.8094225938272407,,,,,,,,,,952.877391813021,None,952.877391813021,None,f,1,1.185952165603851,None,None,012,001,1,26,M,2021_Nov_10_1011,eye_tracking_exp,2021.2.3,85.01765551221452,
-168,0,0,180,0,180,168,180,180,180,f,abs,resp,freq_top,,,,,0,90,90,417,,,0.7748034344052934,,,,,,,,,,955.1252432863826,None,955.1252432863826,None,f,1,1.2260388793902735,None,None,012,001,1,26,M,2021_Nov_10_1011,eye_tracking_exp,2021.2.3,85.01765551221452,
168,0,12,180,180,0,180,0,180,90,None,present,inhibit,freq_top,,,,,0,91,91,987,,,1.0743471506111106,,,,,,,,,,957.7135019112773,None,957.7135019112773,None,None,1,,None,None,012,001,1,26,M,2021_Nov_10_1011,eye_tracking_exp,2021.2.3,85.01765551221452,
0,0,90,180,168,180,180,180,168,0,f,present,resp,freq_top,,,,,0,92,92,751,,,0.8757075851274214,,,,,,,,,,962.1862927743341,None,962.1862927743341,None,f,1,1.8131897362655423,None,None,012,001,1,26,M,2021_Nov_10_1011,eye_tracking_exp,2021.2.3,85.01765551221452,
0,168,0,0,0,0,168,0,0,0,f,abs,resp,freq_top,,,,,0,93,93,236,,,0.7322474760851343,,,,,,,,,,965.3164066178726,None,965.3164066178726,None,f,1,1.1309443900987048,None,None,012,001,1,26,M,2021_Nov_10_1011,eye_tracking_exp,2021.2.3,85.01765551221452,
0,0,168,0,168,0,0,0,0,0,f,abs,resp,freq_top,,,,,0,94,94,259,,,0.9480276943819861,,,,,,,,,,967.7391894518753,None,967.7391894518753,None,f,1,1.2843947101740127,None,None,012,001,1,26,M,2021_Nov_10_1011,eye_tracking_exp,2021.2.3,85.01765551221452,
180,90,0,12,180,12,0,180,0,180,j,present,resp,freq_top,,,,,0,95,95,521,,,0.8787474410793281,,,,,,,,,,970.4691313046187,None,970.4691313046187,None,j,1,1.0026238026374017,None,None,012,001,1,26,M,2021_Nov_10_1011,eye_tracking_exp,2021.2.3,85.01765551221452,
180,0,0,-12,0,180,0,180,0,-12,j,abs,resp,freq_top,,,,,0,96,96,116,,,0.8850179263927154,,,,,,,,,,972.952078619534,None,972.952078619534,None,j,1,0.8702708792164344,None,None,012,001,1,26,M,2021_Nov_10_1011,eye_tracking_exp,2021.2.3,85.01765551221452,
-168,0,90,0,180,180,180,-168,180,180,f,present,resp,freq_top,,,,,0,97,97,818,,,0.8174393775528994,,,,,,,,,,975.1055108289606,None,975.1055108289606,None,f,1,1.900879384943039,None,None,012,001,1,26,M,2021_Nov_10_1011,eye_tracking_exp,2021.2.3,85.01765551221452,
-168,0,90,180,180,180,180,0,-168,180,f,present,resp,freq_top,,,,,0,98,98,853,,,0.9695320358581883,,,,,,,,,,978.2709627741651,None,978.2709627741651,None,f,1,0.7514118983872891,None,None,012,001,1,26,M,2021_Nov_10_1011,eye_tracking_exp,2021.2.3,85.01765551221452,
180,180,0,0,270,180,180,12,0,-12,j,present,resp,freq_top,,,,,0,99,99,672,,,1.0178909252040667,,,,,,,,,,980.3414243663085,None,980.3414243663085,None,j,1,1.6250176802721512,None,None,012,001,1,26,M,2021_Nov_10_1011,eye_tracking_exp,2021.2.3,85.01765551221452,
0,90,180,0,-12,0,0,0,180,-12,j,present,resp,freq_top,,,,,0,100,100,619,,,0.7798563604720861,,,,,,,,,,983.3183716232695,None,983.3183716232695,None,j,1,0.9671353825861502,None,None,012,001,1,26,M,2021_Nov_10_1011,eye_tracking_exp,2021.2.3,85.01765551221452,
168,0,180,0,0,0,0,270,-168,0,f,present,resp,freq_top,,,,,0,101,101,895,,,0.7497911089866522,,,,,,,,,,985.3067841283103,None,985.3067841283103,None,f,1,1.6988312516678548,None,None,012,001,1,26,M,2021_Nov_10_1011,eye_tracking_exp,2021.2.3,85.01765551221452,
12,0,270,180,12,0,180,0,180,180,j,present,resp,freq_top,,,,,0,102,102,569,,,0.7311377596773643,,,,,,,,,,988.2491074468574,None,988.2491074468574,None,j,1,0.7562993588153972,None,None,012,001,1,26,M,2021_Nov_10_1011,eye_tracking_exp,2021.2.3,85.01765551221452,
180,180,12,180,12,180,0,180,0,180,j,abs,resp,freq_top,,,,,0,103,103,11,,,0.7077793879630618,,,,,,,,,,990.026252290997,None,990.026252290997,None,j,1,1.0592343705632743,None,None,012,001,1,26,M,2021_Nov_10_1011,eye_tracking_exp,2021.2.3,85.01765551221452,
0,0,0,0,270,-168,0,0,0,-168,f,present,resp,freq_top,,,,,0,104,104,800,,,0.7947418727610458,,,,,,,,,,992.4974285897117,None,992.4974285897117,None,f,1,0.8919562682695528,None,None,012,001,1,26,M,2021_Nov_10_1011,eye_tracking_exp,2021.2.3,85.01765551221452,
0,0,0,-168,180,180,180,180,0,12,None,abs,inhibit,freq_top,,,,,0,105,105,424,,,1.08299422999233,,,,,,,,,,994.7805034639634,None,994.7805034639634,None,None,1,,None,None,012,001,1,26,M,2021_Nov_10_1011,eye_tracking_exp,2021.2.3,85.01765551221452,
0,270,180,180,168,0,0,0,0,168,f,present,resp,freq_top,,,,,0,106,106,724,,,0.7126722215500084,,,,,,,,,,998.7227730542522,None,998.7227730542522,None,f,1,1.306715783000584,None,None,012,001,1,26,M,2021_Nov_10_1011,eye_tracking_exp,2021.2.3,85.01765551221452,
0,0,12,0,0,0,0,0,-12,0,j,abs,resp,freq_top,,,,,0,107,107,179,,,0.9930076838549764,,,,,,,,,,1001.6060366414647,None,1001.6060366414647,None,j,1,1.046482360884795,None,None,012,001,1,26,M,2021_Nov_10_1011,eye_tracking_exp,2021.2.3,85.01765551221452,
0,0,0,168,0,0,0,-168,0,0,f,abs,resp,freq_top,,,,,0,108,108,352,,,1.0872873947893675,,,,,,,,,,1004.0889486406147,None,1004.0889486406147,None,f,1,1.1874801006757139,None,None,012,001,1,26,M,2021_Nov_10_1011,eye_tracking_exp,2021.2.3,85.01765551221452,
12,180,180,12,0,0,180,180,180,0,j,abs,resp,freq_top,,,,,0,109,109,64,,,0.7018047698763543,,,,,,,,,,1006.6422591464814,None,1006.6422591464814,None,j,1,1.4181726398128944,None,None,012,001,1,26,M,2021_Nov_10_1011,eye_tracking_exp,2021.2.3,85.01765551221452,
0,-168,0,0,-168,0,0,0,0,0,f,abs,resp,freq_top,,,,,0,110,110,292,,,0.8983273045917766,,,,,,,,,,1009.2676995370919,None,1009.2676995370919,None,f,1,0.7462020684100139,None,None,012,001,1,26,M,2021_Nov_10_1011,eye_tracking_exp,2021.2.3,85.01765551221452,
0,12,0,90,0,12,180,0,0,0,j,present,resp,freq_top,,,,,0,111,111,562,,,0.8930395992362302,,,,,,,,,,1011.2198400346758,None,1011.2198400346758,None,j,1,0.808584500114705,1012.0565006966563,None,012,001,1,26,M,2021_Nov_10_1011,eye_tracking_exp,2021.2.3,85.01765551221452,
-12,180,180,0,0,-12,0,0,0,0,j,abs,resp,freq_top,,,,,0,112,112,136,,,1.085097355918692,,,,,,,,,,1026.7381248475688,None,1026.7381248475688,None,j,1,1.4494928940380873,None,None,012,001,1,26,M,2021_Nov_10_1011,eye_tracking_exp,2021.2.3,85.01765551221452,
0,0,0,180,180,180,-12,0,180,12,j,abs,resp,freq_top,,,,,0,113,113,183,,,0.7858061535408254,,,,,,,,,,1029.2913553647363,None,1029.2913553647363,None,j,1,1.5192566225137512,None,None,012,001,1,26,M,2021_Nov_10_1011,eye_tracking_exp,2021.2.3,85.01765551221452,
180,12,180,180,0,180,0,180,0,-168,None,abs,inhibit,freq_top,,,,,0,114,114,468,,,1.080593937823126,,,,,,,,,,1032.1742513057777,None,1032.1742513057777,None,None,1,,None,None,012,001,1,26,M,2021_Nov_10_1011,eye_tracking_exp,2021.2.3,85.01765551221452,
168,0,0,168,0,180,180,180,180,90,f,present,resp,freq_top,,,,,0,115,115,720,,,0.9777343861573536,,,,,,,,,,1036.435528806798,None,1036.435528806798,None,f,1,1.2079789403867949,None,None,012,001,1,26,M,2021_Nov_10_1011,eye_tracking_exp,2021.2.3,85.01765551221452,
-168,180,0,180,-168,180,180,180,180,180,f,abs,resp,freq_top,,,,,0,116,116,293,,,1.0682678005182182,,,,,,,,,,1039.2827866130913,None,1039.2827866130913,None,f,1,0.6799505984288885,None,None,012,001,1,26,M,2021_Nov_10_1011,eye_tracking_exp,2021.2.3,85.01765551221452,
180,-12,180,0,180,12,180,0,180,0,j,abs,resp,freq_top,,,,,0,117,117,159,,,0.7635177723769286,,,,,,,,,,1041.2265566706349,None,1041.2265566706349,None,j,1,0.8799697353479701,None,None,012,001,1,26,M,2021_Nov_10_1011,eye_tracking_exp,2021.2.3,85.01765551221452,
0,180,-12,180,90,180,180,-12,180,0,j,present,resp,freq_top,,,,,0,118,118,626,,,0.8736179627885532,,,,,,,,,,1043.2602735673872,None,1043.2602735673872,None,j,1,1.0379996348218015,None,None,012,001,1,26,M,2021_Nov_10_1011,eye_tracking_exp,2021.2.3,85.01765551221452,
180,270,180,180,168,180,168,180,180,180,f,present,resp,freq_top,,,,,0,119,119,737,,,0.9249441705065533,,,,,,,,,,1045.6488610816646,None,1045.6488610816646,None,f,1,1.160790437509661,None,None,012,001,1,26,M,2021_Nov_10_1011,eye_tracking_exp,2021.2.3,85.01765551221452,
180,180,-12,0,90,0,0,-12,180,180,j,present,resp,freq_top,,,,,0,120,120,606,,,0.777227945790989,,,,,,,,,,1048.3317861808505,None,1048.3317861808505,None,j,1,1.3418561767503547,None,None,012,001,1,26,M,2021_Nov_10_1011,eye_tracking_exp,2021.2.3,85.01765551221452,
0,180,-168,0,180,0,180,168,180,180,f,abs,resp,freq_top,,,,,0,121,121,402,,,0.9804252492121303,,,,,,,,,,1051.52231986545,None,1051.52231986545,None,f,1,1.2232933050293582,None,None,012,001,1,26,M,2021_Nov_10_1011,eye_tracking_exp,2021.2.3,85.01765551221452,
180,0,180,168,180,168,180,0,180,180,f,abs,resp,freq_top,,,,,0,122,122,227,,,0.779387266724145,,,,,,,,,,1054.1805833922936,None,1054.1805833922936,None,f,1,0.8530099216703206,None,None,012,001,1,26,M,2021_Nov_10_1011,eye_tracking_exp,2021.2.3,85.01765551221452,
-168,0,0,180,180,180,180,0,-168,180,f,abs,resp,freq_top,,,,,0,123,123,349,,,0.9857045801125583,,,,,,,,,,1056.4165569966267,None,1056.4165569966267,None,f,1,0.9210836247667089,None,None,012,001,1,26,M,2021_Nov_10_1011,eye_tracking_exp,2021.2.3,85.01765551221452,
-12,0,0,-168,0,0,0,0,0,0,None,abs,inhibit,freq_top,,,,,0,124,124,496,,,0.8903386691131534,,,,,,,,,,1058.5696179377526,None,1058.5696179377526,None,None,1,,None,None,012,001,1,26,M,2021_Nov_10_1011,eye_tracking_exp,2021.2.3,85.01765551221452,
180,0,180,180,0,0,0,12,0,12,j,abs,resp,freq_top,,,,,0,125,125,28,,,0.9340171007224497,,,,,,,,,,1072.6062962274311,None,1072.6062962274311,None,j,1,1.275339687608323,None,None,012,001,1,26,M,2021_Nov_10_1011,eye_tracking_exp,2021.2.3,85.01765551221452,
-12,0,0,180,12,180,180,180,180,180,j,abs,resp,freq_top,,,,,0,126,126,205,,,0.9817135933792255,,,,,,,,,,1075.4314460628657,None,1075.4314460628657,None,j,1,1.4891684960965108,None,None,012,001,1,26,M,2021_Nov_10_1011,eye_tracking_exp,2021.2.3,85.01765551221452,
180,0,0,180,180,12,180,180,0,12,j,abs,resp,freq_top,,,,,0,127,127,44,,,0.9225997967447025,,,,,,,,,,1078.4198507199587,None,1078.4198507199587,None,j,1,0.739844626985871,None,None,012,001,1,26,M,2021_Nov_10_1011,eye_tracking_exp,2021.2.3,85.01765551221452,
0,0,-12,0,12,180,180,180,180,0,j,abs,resp,freq_top,,,,,0,128,128,189,,,1.0736875748303518,,,,,,,,,,1080.7730726647526,None,1080.7730726647526,None,j,1,0.8665527630137717,None,None,012,001,1,26,M,2021_Nov_10_1011,eye_tracking_exp,2021.2.3,85.01765551221452,
0,-168,0,0,270,0,180,180,180,-168,f,present,resp,freq_top,,,,,0,129,129,846,,,0.9290131401384851,,,,,,,,,,1083.1615666073442,None,1083.1615666073442,None,f,1,0.8780306885476534,None,None,012,001,1,26,M,2021_Nov_10_1011,eye_tracking_exp,2021.2.3,85.01765551221452,
-168,0,0,-168,0,0,0,0,0,0,f,abs,resp,freq_top,,,,,0,130,130,286,,,0.8331399091869487,,,,,,,,,,1085.5623836390814,None,1085.5623836390814,None,f,1,1.1172418732012943,None,None,012,001,1,26,M,2021_Nov_10_1011,eye_tracking_exp,2021.2.3,85.01765551221452,
-12,180,270,0,-12,180,0,180,0,180,j,present,resp,freq_top,,,,,0,131,131,587,,,1.0458564906013599,,,,,,,,,,1087.999369749421,None,1087.999369749421,None,j,1,1.1443266503559357,None,None,012,001,1,26,M,2021_Nov_10_1011,eye_tracking_exp,2021.2.3,85.01765551221452,
180,180,0,270,180,180,180,-12,0,12,j,present,resp,freq_top,,,,,0,132,132,686,,,0.8459359665934063,,,,,,,,,,1090.7640955179766,None,1090.7640955179766,None,j,1,1.0355996720089138,None,None,012,001,1,26,M,2021_Nov_10_1011,eye_tracking_exp,2021.2.3,85.01765551221452,
12,0,180,0,0,180,180,180,168,0,None,abs,inhibit,freq_top,,,,,0,133,133,461,,,0.9092779894519228,,,,,,,,,,1093.2825092183202,None,1093.2825092183202,None,None,1,,None,None,012,001,1,26,M,2021_Nov_10_1011,eye_tracking_exp,2021.2.3,85.01765551221452,
180,-12,180,-168,0,180,0,90,180,180,None,present,inhibit,freq_top,,,,,0,134,134,999,,,1.0226764230408896,,,,,,,,,,1097.553978788808,None,1097.553978788808,None,j,0,0.884728006481339,1098.4605272372085,None,012,001,1,26,M,2021_Nov_10_1011,eye_tracking_exp,2021.2.3,85.01765551221452,
0,0,90,0,0,0,12,0,180,12,j,present,resp,freq_top,,,,,0,135,135,547,,,1.0249990349425517,,,,,,,,,,1100.036627579862,None,1100.036627579862,None,j,1,0.8820424991054665,None,None,012,001,1,26,M,2021_Nov_10_1011,eye_tracking_exp,2021.2.3,85.01765551221452,
90,180,168,0,0,180,180,12,180,180,None,present,inhibit,freq_top,,,,,0,136,136,976,,,1.0190952726358187,,,,,,,,,,1102.2373128868132,None,1102.2373128868132,None,None,1,,None,None,012,001,1,26,M,2021_Nov_10_1011,eye_tracking_exp,2021.2.3,85.01765551221452,
0,-168,0,0,0,-168,180,0,0,0,f,abs,resp,freq_top,,,,,0,137,137,338,,,0.9707654926628243,,,,,,,,,,1106.8276735543477,None,1106.8276735543477,None,f,1,0.8264234892024547,None,None,012,001,1,26,M,2021_Nov_10_1011,eye_tracking_exp,2021.2.3,85.01765551221452,
0,180,0,0,180,0,180,168,0,168,f,abs,resp,freq_top,,,,,0,138,138,252,,,1.0223597276615197,,,,,,,,,,1109.6153500426203,None,1109.6153500426203,None,f,1,1.1584052650603667,None,None,012,001,1,26,M,2021_Nov_10_1011,eye_tracking_exp,2021.2.3,85.01765551221452,
-12,0,0,0,0,-12,0,0,0,0,j,abs,resp,freq_top,,,,,0,139,139,90,,,0.9252285871633222,,,,,,,,,,1114.8157365238662,None,1114.8157365238662,None,j,1,0.7100082385873634,None,None,012,001,1,26,M,2021_Nov_10_1011,eye_tracking_exp,2021.2.3,85.01765551221452,
180,270,0,0,0,0,0,-168,0,-168,f,present,resp,freq_top,,,,,0,140,140,812,,,0.7438000832582776,,,,,,,,,,1116.8296578777702,None,1116.8296578777702,None,f,1,1.1131730140999139,None,None,012,001,1,26,M,2021_Nov_10_1011,eye_tracking_exp,2021.2.3,85.01765551221452,
0,12,180,180,180,180,0,180,0,12,j,abs,resp,freq_top,,,,,0,141,141,48,,,0.8419143529659003,,,,,,,,,,1119.4643196070715,None,1119.4643196070715,None,j,1,0.8934890328478673,None,None,012,001,1,26,M,2021_Nov_10_1011,eye_tracking_exp,2021.2.3,85.01765551221452,
0,90,180,180,12,0,0,0,168,0,None,present,inhibit,freq_top,,,,,0,142,142,961,,,0.9800195269355051,,,,,,,,,,1122.0636263314345,None,1122.0636263314345,None,None,1,,None,None,012,001,1,26,M,2021_Nov_10_1011,eye_tracking_exp,2021.2.3,85.01765551221452,
0,12,0,0,168,0,180,180,180,0,None,abs,inhibit,freq_top,,,,,0,143,143,502,,,0.9043134449584286,,,,,,,,,,1126.5703345157574,None,1126.5703345157574,None,None,1,,None,None,012,001,1,26,M,2021_Nov_10_1011,eye_tracking_exp,2021.2.3,85.01765551221452,
-168,0,0,270,0,-168,0,0,0,0,f,present,resp,freq_top,,,,,0,144,144,804,,,0.8938524756250161,,,,,,,,,,1130.8656259281709,None,1130.8656259281709,None,f,1,0.8191858702455761,None,None,012,001,1,26,M,2021_Nov_10_1011,eye_tracking_exp,2021.2.3,85.01765551221452,
180,0,180,12,180,180,12,180,180,180,j,abs,resp,freq_top,,,,,0,145,145,1,,,0.8314635703072515,,,,,,,,,,1132.8310904300918,None,1132.8310904300918,None,j,1,0.7753113142585448,None,None,012,001,1,26,M,2021_Nov_10_1011,eye_tracking_exp,2021.2.3,85.01765551221452,
180,0,-168,0,0,0,-168,0,0,0,f,abs,resp,freq_top,,,,,0,146,146,331,,,1.010795965434833,,,,,,,,,,1134.9135409699097,None,1134.9135409699097,None,f,1,0.8992261845499456,None,None,012,001,1,26,M,2021_Nov_10_1011,eye_tracking_exp,2021.2.3,85.01765551221452,
168,0,0,180,12,0,180,0,180,180,None,abs,inhibit,freq_top,,,,,0,147,147,485,,,0.8093507903289622,,,,,,,,,,1137.3728052912072,None,1137.3728052912072,None,None,1,,None,None,012,001,1,26,M,2021_Nov_10_1011,eye_tracking_exp,2021.2.3,85.01765551221452,
0,180,168,0,180,168,180,0,180,180,f,abs,resp,freq_top,,,,,0,148,148,260,,,0.8426554428265336,,,,,,,,,,1141.5170191803845,None,1141.5170191803845,None,f,1,0.9187277311992261,None,None,012,001,1,26,M,2021_Nov_10_1011,eye_tracking_exp,2021.2.3,85.01765551221452,
12,0,90,0,0,-168,0,0,0,0,None,present,inhibit,freq_top,,,,,0,149,149,944,,,0.7820313173729397,,,,,,,,,,1146.433403824003,None,1146.433403824003,None,None,1,,None,None,012,001,1,26,M,2021_Nov_10_1011,eye_tracking_exp,2021.2.3,85.01765551221452,
0,0,0,168,0,180,180,180,0,-168,f,abs,resp,freq_top,,,,,0,150,150,354,,,0.8658153352538618,,,,,,,,,,1150.6462440929101,None,1150.6462440929101,None,f,1,1.9816525768360975,None,None,012,001,1,26,M,2021_Nov_10_1011,eye_tracking_exp,2021.2.3,85.01765551221452,
0,180,180,180,180,180,168,0,0,12,None,abs,inhibit,freq_top,,,,,0,151,151,442,,,0.9726268706932748,,,,,,,,,,1154.4350042016706,None,1154.4350042016706,None,None,1,,None,None,012,001,1,26,M,2021_Nov_10_1011,eye_tracking_exp,2021.2.3,85.01765551221452,
0,0,270,180,12,180,180,180,-12,0,j,present,resp,freq_top,,,,,0,152,152,681,,,0.83305755892465,,,,,,,,,,1158.8594508006115,None,1158.8594508006115,None,j,1,1.5754509473607072,None,None,012,001,1,26,M,2021_Nov_10_1011,eye_tracking_exp,2021.2.3,85.01765551221452,
90,0,180,0,180,12,0,180,-12,0,j,present,resp,freq_top,,,,,0,153,153,659,,,0.7965883981131153,,,,,,,,,,1161.5195860630106,None,1161.5195860630106,None,j,1,1.6836074402700092,None,None,012,001,1,26,M,2021_Nov_10_1011,eye_tracking_exp,2021.2.3,85.01765551221452,
0,0,180,180,180,180,-12,0,0,12,j,abs,resp,freq_top,,,,,0,154,154,162,,,0.9240017422117273,,,,,,,,,,1164.7311311186827,None,1164.7311311186827,None,j,1,0.7447175988948516,None,None,012,001,1,26,M,2021_Nov_10_1011,eye_tracking_exp,2021.2.3,85.01765551221452,
168,180,0,90,180,180,0,168,0,0,f,present,resp,freq_top,,,,,0,155,155,782,,,0.8114130085895737,,,,,,,,,,1166.6023644055724,None,1166.6023644055724,None,f,1,1.752505177887599,None,None,012,001,1,26,M,2021_Nov_10_1011,eye_tracking_exp,2021.2.3,85.01765551221452,
180,168,180,180,-168,0,0,0,180,180,f,abs,resp,freq_top,,,,,0,156,156,407,,,0.8999446551574902,,,,,,,,,,1169.779409882619,None,1169.779409882619,None,f,1,1.1354457918626508,None,None,012,001,1,26,M,2021_Nov_10_1011,eye_tracking_exp,2021.2.3,85.01765551221452,
180,-12,0,180,180,0,180,180,-12,180,j,abs,resp,freq_top,,,,,0,157,157,110,,,1.0625763450417178,,,,,,,,,,1172.2972223094216,None,1172.2972223094216,None,j,1,0.8567268304964841,None,None,012,001,1,26,M,2021_Nov_10_1011,eye_tracking_exp,2021.2.3,85.01765551221452,
180,180,0,0,180,180,180,-12,0,12,j,abs,resp,freq_top,,,,,0,158,158,182,,,0.9560904937688905,,,,,,,,,,1174.7922113947373,None,1174.7922113947373,None,j,1,0.825692120834276,None,None,012,001,1,26,M,2021_Nov_10_1011,eye_tracking_exp,2021.2.3,85.01765551221452,
0,12,0,0,0,0,-12,0,0,0,j,abs,resp,freq_top,,,,,0,159,159,166,,,0.8272778640336365,,,,,,,,,,1176.7925832667265,None,1176.7925832667265,None,j,1,0.7294521330043722,None,None,012,001,1,26,M,2021_Nov_10_1011,eye_tracking_exp,2021.2.3,85.01765551221452,
0,270,0,-168,0,0,-168,0,180,0,f,present,resp,freq_top,,,,,0,160,160,808,,,0.7351959323484044,,,,,,,,,,1178.5339508259663,None,1178.5339508259663,None,f,1,1.708579912083735,None,None,012,001,1,26,M,2021_Nov_10_1011,eye_tracking_exp,2021.2.3,85.01765551221452,
180,270,0,12,180,0,0,180,0,-168,None,present,inhibit,freq_top,,,,,0,161,161,970,,,0.8703515044132205,,,,,,,,,,1181.6526540552159,None,1181.6526540552159,None,None,1,,None,None,012,001,1,26,M,2021_Nov_10_1011,eye_tracking_exp,2021.2.3,85.01765551221452,
90,180,168,180,180,0,180,0,0,168,f,present,resp,freq_top,,,,,0,162,162,768,,,1.0143153872541053,,,,,,,,,,1186.0652955295675,None,1186.0652955295675,None,f,1,0.9596946225186116,None,None,012,001,1,26,M,2021_Nov_10_1011,eye_tracking_exp,2021.2.3,85.01765551221452,
180,180,0,12,0,180,0,180,0,-168,None,abs,inhibit,freq_top,,,,,0,163,163,466,,,0.8505629942610671,,,,,,,,,,1188.1955207535962,None,1188.1955207535962,None,None,1,,None,None,012,001,1,26,M,2021_Nov_10_1011,eye_tracking_exp,2021.2.3,85.01765551221452,
270,0,12,180,180,180,0,0,-12,0,j,present,resp,freq_top,,,,,0,164,164,683,,,0.890751946035218,,,,,,,,,,1192.0919432363971,None,1192.0919432363971,None,j,1,1.1250385075182407,None,None,012,001,1,26,M,2021_Nov_10_1011,eye_tracking_exp,2021.2.3,85.01765551221452,
0,168,0,0,0,168,0,180,0,0,f,abs,resp,freq_top,,,,,0,165,165,268,,,0.91294575320113,,,,,,,,,,1194.4798579400706,None,1194.4798579400706,None,f,1,1.5850770590528214,None,None,012,001,1,26,M,2021_Nov_10_1011,eye_tracking_exp,2021.2.3,85.01765551221452,
90,180,180,12,0,180,0,180,-12,180,j,present,resp,freq_top,,,,,0,166,166,647,,,1.0541521758289436,,,,,,,,,,1197.6928068728705,None,1197.6928068728705,None,j,1,1.0921293457031993,None,None,012,001,1,26,M,2021_Nov_10_1011,eye_tracking_exp,2021.2.3,85.01765551221452,
180,180,-12,180,90,180,0,180,0,-12,j,present,resp,freq_top,,,,,0,167,167,628,,,0.9303187523645684,,,,,,,,,,1202.0462856870336,None,1202.0462856870336,None,j,1,0.8977335652428451,None,None,012,001,1,26,M,2021_Nov_10_1011,eye_tracking_exp,2021.2.3,85.01765551221452,
90,180,0,0,0,-168,180,0,-168,180,f,present,resp,freq_top,,,,,0,168,168,820,,,0.8105415568788009,,,,,,,,,,1203.811602466429,None,1203.811602466429,None,f,1,2.7163234218308503,None,None,012,001,1,26,M,2021_Nov_10_1011,eye_tracking_exp,2021.2.3,85.01765551221452,
0,0,0,-168,0,0,-168,0,0,0,f,abs,resp,freq_top,,,,,0,169,169,304,,,1.0253472376727901,,,,,,,,,,1208.1069741693852,None,1208.1069741693852,None,f,1,0.9490096415589164,None,None,012,001,1,26,M,2021_Nov_10_1011,eye_tracking_exp,2021.2.3,85.01765551221452,
0,168,0,270,180,180,180,180,0,-168,f,present,resp,freq_top,,,,,0,170,170,916,,,0.9070241272654014,,,,,,,,,,1210.530880165459,None,1210.530880165459,None,None,0,,1213.508506873595,None,012,001,1,26,M,2021_Nov_10_1011,eye_tracking_exp,2021.2.3,85.01765551221452,
180,270,0,12,180,0,180,180,0,12,j,present,resp,freq_top,,,,,0,171,171,550,,,0.9918843303866245,,,,,,,,,,1215.0379578070178,None,1215.0379578070178,None,j,1,0.9632394801809028,None,None,012,001,1,26,M,2021_Nov_10_1011,eye_tracking_exp,2021.2.3,85.01765551221452,
180,168,180,0,180,180,-168,0,180,180,f,abs,resp,freq_top,,,,,0,172,172,409,,,0.7040874528605287,,,,,,,,,,1217.380772165623,None,1217.380772165623,None,f,1,1.098291795808393,None,None,012,001,1,26,M,2021_Nov_10_1011,eye_tracking_exp,2021.2.3,85.01765551221452,
0,12,0,0,168,0,180,180,180,180,None,abs,inhibit,freq_top,,,,,0,173,173,432,,,0.9368355072149748,,,,,,,,,,1220.1113243472319,None,1220.1113243472319,None,None,1,,None,None,012,001,1,26,M,2021_Nov_10_1011,eye_tracking_exp,2021.2.3,85.01765551221452,
-168,0,90,180,-168,0,180,0,180,180,f,present,resp,freq_top,,,,,0,174,174,849,,,0.9060451002988624,,,,,,,,,,1224.3474926410397,None,1224.3474926410397,None,f,1,0.8848740990484316,None,None,012,001,1,26,M,2021_Nov_10_1011,eye_tracking_exp,2021.2.3,85.01765551221452,
180,270,0,0,168,0,0,168,180,0,f,present,resp,freq_top,,,,,0,175,175,744,,,0.8309681074193627,,,,,,,,,,1226.349940597072,None,1226.349940597072,None,f,1,1.8730520711868053,None,None,012,001,1,26,M,2021_Nov_10_1011,eye_tracking_exp,2021.2.3,85.01765551221452,
0,0,0,168,0,0,-168,0,0,0,f,abs,resp,freq_top,,,,,0,176,176,374,,,0.9604756430908854,,,,,,,,,,1229.4661774577962,None,1229.4661774577962,None,f,1,1.3488994080765337,None,None,012,001,1,26,M,2021_Nov_10_1011,eye_tracking_exp,2021.2.3,85.01765551221452,
-12,180,180,12,0,0,180,180,180,180,j,abs,resp,freq_top,,,,,0,177,177,204,,,0.9222212137115481,,,,,,,,,,1232.0194197468857,None,1232.0194197468857,None,j,1,1.2587186396536367,None,None,012,001,1,26,M,2021_Nov_10_1011,eye_tracking_exp,2021.2.3,85.01765551221452,
180,180,90,0,0,180,180,168,0,-168,f,present,resp,freq_top,,,,,0,178,178,882,,,0.8541077633581268,,,,,,,,,,1234.4096984939185,None,1234.4096984939185,None,f,1,1.2214629221217024,None,None,012,001,1,26,M,2021_Nov_10_1011,eye_tracking_exp,2021.2.3,85.01765551221452,
180,180,180,168,0,0,-168,180,180,180,f,abs,resp,freq_top,,,,,0,179,179,351,,,0.9756473706555124,,,,,,,,,,1236.8800320437747,None,1236.8800320437747,None,f,1,1.519739573148911,None,None,012,001,1,26,M,2021_Nov_10_1011,eye_tracking_exp,2021.2.3,85.01765551221452,
0,12,0,0,180,180,180,12,0,0,j,abs,resp,freq_top,,,,,0,180,180,60,,,0.8744375424308546,,,,,,,,,,1239.8219623612422,None,1239.8219623612422,None,j,1,0.8641422356559474,None,None,012,001,1,26,M,2021_Nov_10_1011,eye_tracking_exp,2021.2.3,85.01765551221452,
180,180,0,180,-168,180,0,180,-168,180,f,abs,resp,freq_top,,,,,0,181,181,289,,,1.0237945543662221,,,,,,,,,,1242.0676263700707,None,1242.0676263700707,None,f,1,0.8424619779532918,None,None,012,001,1,26,M,2021_Nov_10_1011,eye_tracking_exp,2021.2.3,85.01765551221452,
0,0,180,0,-12,0,0,0,180,12,j,abs,resp,freq_top,,,,,0,182,182,185,,,0.8707725195394549,,,,,,,,,,1244.0797260945474,None,1244.0797260945474,None,j,1,1.0543393640312502,None,None,012,001,1,26,M,2021_Nov_10_1011,eye_tracking_exp,2021.2.3,85.01765551221452,
270,0,180,0,180,12,0,-168,0,0,None,present,inhibit,freq_top,,,,,0,183,183,953,,,0.9568565786827218,,,,,,,,,,1246.3864782273781,None,1246.3864782273781,None,None,1,,None,None,012,001,1,26,M,2021_Nov_10_1011,eye_tracking_exp,2021.2.3,85.01765551221452,
180,12,180,180,0,180,0,180,-12,180,j,abs,resp,freq_top,,,,,0,184,184,201,,,1.0618542543102085,,,,,,,,,,1251.0711929605116,None,1251.0711929605116,None,j,1,2.4309297808418364,None,None,012,001,1,26,M,2021_Nov_10_1011,eye_tracking_exp,2021.2.3,85.01765551221452,
0,180,0,180,168,180,168,180,180,180,f,abs,resp,freq_top,,,,,0,185,185,233,,,0.7450943965046816,,,,,,,,,,1254.5435856911386,None,1254.5435856911386,None,f,1,0.8135389699435223,None,None,012,001,1,26,M,2021_Nov_10_1011,eye_tracking_exp,2021.2.3,85.01765551221452,
0,12,0,270,168,0,0,0,0,0,None,present,inhibit,freq_top,,,,,0,186,186,936,,,1.080359097831223,,,,,,,,,,1256.7441073985624,None,1256.7441073985624,None,None,1,,None,None,012,001,1,26,M,2021_Nov_10_1011,eye_tracking_exp,2021.2.3,85.01765551221452,
0,180,12,180,0,180,180,12,180,180,j,abs,resp,freq_top,,,,,0,187,187,52,,,0.8704773651247497,,,,,,,,,,1260.8183758490877,None,1260.8183758490877,None,j,1,0.7147381363707268,None,None,012,001,1,26,M,2021_Nov_10_1011,eye_tracking_exp,2021.2.3,85.01765551221452,
0,270,0,0,-168,0,0,-168,0,0,f,present,resp,freq_top,,,,,0,188,188,792,,,0.933980117450407,,,,,,,,,,1263.0760073746562,None,1263.0760073746562,None,f,1,1.2570826443769079,None,None,012,001,1,26,M,2021_Nov_10_1011,eye_tracking_exp,2021.2.3,85.01765551221452,
180,180,0,0,-168,0,0,168,0,180,f,abs,resp,freq_top,,,,,0,189,189,380,,,0.7550176158926598,,,,,,,,,,1265.3944955097666,None,1265.3944955097666,None,f,1,1.1937131823113418,None,None,012,001,1,26,M,2021_Nov_10_1011,eye_tracking_exp,2021.2.3,85.01765551221452,
0,12,0,12,180,0,180,0,0,0,j,abs,resp,freq_top,,,,,0,190,190,56,,,0.9770115876190864,,,,,,,,,,1268.2187349832536,None,1268.2187349832536,None,j,1,0.9133929377451864,None,None,012,001,1,26,M,2021_Nov_10_1011,eye_tracking_exp,2021.2.3,85.01765551221452,
168,0,180,180,0,180,-168,180,180,180,f,abs,resp,freq_top,,,,,0,191,191,377,,,0.7319815152820999,,,,,,,,,,1270.690861185499,None,1270.690861185499,None,f,1,1.2092856236993725,None,None,012,001,1,26,M,2021_Nov_10_1011,eye_tracking_exp,2021.2.3,85.01765551221452,
180,0,0,180,180,-168,180,180,0,-168,f,abs,resp,freq_top,,,,,0,192,192,324,,,0.7495314001224802,,,,,,,,,,1273.2678057862315,None,1273.2678057862315,None,f,1,0.9683152913567596,None,None,012,001,1,26,M,2021_Nov_10_1011,eye_tracking_exp,2021.2.3,85.01765551221452,
0,-168,0,0,180,180,180,180,0,12,None,abs,inhibit,freq_top,,,,,0,193,193,482,,,0.8861482597406705,,,,,,,,,,1275.4319326356306,None,1275.4319326356306,None,None,1,,None,None,012,001,1,26,M,2021_Nov_10_1011,eye_tracking_exp,2021.2.3,85.01765551221452,
180,0,180,180,-12,0,-12,180,180,180,j,abs,resp,freq_top,,,,,0,194,194,93,,,0.703152458559858,,,,,,,,,,1279.1628014517496,None,1279.1628014517496,None,j,1,0.7693387241216101,None,None,012,001,1,26,M,2021_Nov_10_1011,eye_tracking_exp,2021.2.3,85.01765551221452,
12,0,180,0,90,0,0,0,-12,0,j,present,resp,freq_top,,,,,0,195,195,685,,,0.8952553074429154,,,,,,,,,,1281.1865442105086,None,1281.1865442105086,None,j,1,1.0008915190776975,None,None,012,001,1,26,M,2021_Nov_10_1011,eye_tracking_exp,2021.2.3,85.01765551221452,
0,0,0,168,0,0,0,168,0,0,f,abs,resp,freq_top,,,,,0,196,196,212,,,0.9079069820719685,,,,,,,,,,1283.4929090772987,None,1283.4929090772987,None,f,1,0.6635987954535381,None,None,012,001,1,26,M,2021_Nov_10_1011,eye_tracking_exp,2021.2.3,85.01765551221452,
180,168,180,180,0,180,0,180,168,180,f,abs,resp,freq_top,,,,,0,197,197,271,,,0.8175845879005074,,,,,,,,,,1285.43444880844,None,1285.43444880844,None,f,1,0.8167107482402685,None,None,012,001,1,26,M,2021_Nov_10_1011,eye_tracking_exp,2021.2.3,85.01765551221452,
180,180,0,12,0,180,0,0,-12,180,j,abs,resp,freq_top,,,,,0,198,198,178,,,0.7634097590539953,,,,,,,,,,1287.3992281241474,None,1287.3992281241474,None,j,1,0.7239787930869284,None,None,012,001,1,26,M,2021_Nov_10_1011,eye_tracking_exp,2021.2.3,85.01765551221452,
180,180,-168,180,90,0,0,180,0,-168,f,present,resp,freq_top,,,,,0,199,199,838,,,1.0657094780398915,,,,,,,,,,1289.5642212662483,None,1289.5642212662483,None,f,1,0.991124748013192,None,None,012,001,1,26,M,2021_Nov_10_1011,eye_tracking_exp,2021.2.3,85.01765551221452,
180,0,180,12,180,-168,180,180,180,180,None,abs,inhibit,freq_top,,,,,0,200,200,437,,,0.9465700049976135,,,,,,,,,,1291.8939057063033,None,1291.8939057063033,None,None,1,,None,None,012,001,1,26,M,2021_Nov_10_1011,eye_tracking_exp,2021.2.3,85.01765551221452,
180,-168,180,-168,180,180,90,0,0,180,f,present,resp,freq_top,,,,,0,201,201,789,,,0.8767948263516592,,,,,,,,,,1296.0597449175482,None,1296.0597449175482,None,f,1,0.8947145200848468,None,None,012,001,1,26,M,2021_Nov_10_1011,eye_tracking_exp,2021.2.3,85.01765551221452,
270,0,-168,0,0,-168,180,180,180,180,f,present,resp,freq_top,,,,,0,202,202,802,,,0.9678386258461882,,,,,,,,,,1298.2257235807892,None,1298.2257235807892,None,f,1,0.8084577255729641,None,None,012,001,1,26,M,2021_Nov_10_1011,eye_tracking_exp,2021.2.3,85.01765551221452,
0,0,180,180,-168,0,0,0,180,168,f,abs,resp,freq_top,,,,,0,203,203,395,,,0.9823136081185148,,,,,,,,,,1300.5680208803708,None,1300.5680208803708,None,f,1,0.9941869568845618,None,None,012,001,1,26,M,2021_Nov_10_1011,eye_tracking_exp,2021.2.3,85.01765551221452,
-12,0,180,90,0,0,0,0,-12,0,j,present,resp,freq_top,,,,,0,204,204,615,,,0.8656370773148028,,,,,,,,,,1302.9081968192872,None,1302.9081968192872,None,j,1,1.0220055171606077,None,None,012,001,1,26,M,2021_Nov_10_1011,eye_tracking_exp,2021.2.3,85.01765551221452,
12,180,0,180,0,180,12,180,180,180,j,abs,resp,freq_top,,,,,0,205,205,27,,,0.9017194918939856,,,,,,,,,,1305.1322312802297,None,1305.1322312802297,None,j,1,0.702000313367364,None,None,012,001,1,26,M,2021_Nov_10_1011,eye_tracking_exp,2021.2.3,85.01765551221452,
180,0,0,180,180,-168,180,0,12,180,None,abs,inhibit,freq_top,,,,,0,206,206,435,,,0.7879622070053081,,,,,,,,,,1306.955936791421,None,1306.955936791421,None,None,1,,None,None,012,001,1,26,M,2021_Nov_10_1011,eye_tracking_exp,2021.2.3,85.01765551221452,
12,180,0,0,0,12,0,180,180,180,j,abs,resp,freq_top,,,,,0,207,207,66,,,0.9503012462627625,,,,,,,,,,1311.2158276204298,None,1311.2158276204298,None,j,1,0.7135298542503392,None,None,012,001,1,26,M,2021_Nov_10_1011,eye_tracking_exp,2021.2.3,85.01765551221452,
168,0,270,180,180,180,180,168,180,180,f,present,resp,freq_top,,,,,0,208,208,748,,,0.7991399743680867,,,,,,,,,,1313.1568919470396,None,1313.1568919470396,None,f,1,0.9163603675543186,None,None,012,001,1,26,M,2021_Nov_10_1011,eye_tracking_exp,2021.2.3,85.01765551221452,
0,0,0,0,12,180,180,180,180,12,j,abs,resp,freq_top,,,,,0,209,209,10,,,0.9771640766301734,,,,,,,,,,1351.0882906203742,None,1351.0882906203742,None,j,1,1.5911103198630485,None,None,012,001,1,26,M,2021_Nov_10_1011,eye_tracking_exp,2021.2.3,85.01765551221452,
270,0,180,0,180,-12,0,-12,0,0,j,present,resp,freq_top,,,,,0,210,210,603,,,0.7611794687735214,,,,,,,,,,1354.042342093253,None,1354.042342093253,None,f,0,1.9969959185166886,1356.0666619780209,None,012,001,1,26,M,2021_Nov_10_1011,eye_tracking_exp,2021.2.3,85.01765551221452,
-168,0,0,180,0,0,0,168,180,180,f,abs,resp,freq_top,,,,,0,211,211,384,,,0.9062660716468225,,,,,,,,,,1357.513736625286,None,1357.513736625286,None,f,1,2.6207399450207163,None,None,012,001,1,26,M,2021_Nov_10_1011,eye_tracking_exp,2021.2.3,85.01765551221452,
0,0,180,0,180,0,12,0,-12,0,j,abs,resp,freq_top,,,,,0,212,212,175,,,0.8526196392504874,,,,,,,,,,1361.2562083304156,None,1361.2562083304156,None,j,1,1.614353828402784,None,None,012,001,1,26,M,2021_Nov_10_1011,eye_tracking_exp,2021.2.3,85.01765551221452,
180,180,180,168,180,180,180,180,-168,180,f,abs,resp,freq_top,,,,,0,213,213,353,,,0.805331397954066,,,,,,,,,,1363.964520031585,None,1363.964520031585,None,f,1,1.1938532379954836,None,None,012,001,1,26,M,2021_Nov_10_1011,eye_tracking_exp,2021.2.3,85.01765551221452,
90,0,12,0,180,180,0,0,180,-168,None,present,inhibit,freq_top,,,,,0,214,214,971,,,0.7956978723516804,,,,,,,,,,1366.234476759208,None,1366.234476759208,None,None,1,,None,None,012,001,1,26,M,2021_Nov_10_1011,eye_tracking_exp,2021.2.3,85.01765551221452,
0,0,0,0,-12,0,0,0,180,-12,j,abs,resp,freq_top,,,,,0,215,215,115,,,0.9905797378991094,,,,,,,,,,1370.7657281929678,None,1370.7657281929678,None,j,1,0.8086572445541265,None,None,012,001,1,26,M,2021_Nov_10_1011,eye_tracking_exp,2021.2.3,85.01765551221452,
180,0,168,0,270,180,180,180,168,0,f,present,resp,freq_top,,,,,0,216,216,767,,,0.9864286615710967,,,,,,,,,,1372.8592944453433,None,1372.8592944453433,None,f,1,0.9862110271440656,None,None,012,001,1,26,M,2021_Nov_10_1011,eye_tracking_exp,2021.2.3,85.01765551221452,
180,180,0,180,180,180,180,12,0,-168,None,abs,inhibit,freq_top,,,,,0,217,217,462,,,0.7512222200017571,,,,,,,,,,1374.6362732752023,None,1374.6362732752023,None,None,1,,None,None,012,001,1,26,M,2021_Nov_10_1011,eye_tracking_exp,2021.2.3,85.01765551221452,
90,180,180,0,180,-168,180,0,12,180,None,present,inhibit,freq_top,,,,,0,218,218,939,,,1.0940947772852385,,,,,,,,,,1379.0272166830468,None,1379.0272166830468,None,None,1,,None,None,012,001,1,26,M,2021_Nov_10_1011,eye_tracking_exp,2021.2.3,85.01765551221452,
0,0,-168,0,90,0,180,180,-168,0,f,present,resp,freq_top,,,,,0,219,219,823,,,1.0687361354334464,,,,,,,,,,1383.6984797317693,None,1383.6984797317693,None,f,1,1.283018904551966,None,None,012,001,1,26,M,2021_Nov_10_1011,eye_tracking_exp,2021.2.3,85.01765551221452,
180,270,0,180,180,180,180,168,0,168,f,present,resp,freq_top,,,,,0,220,220,756,,,0.8375416799042212,,,,,,,,,,1386.1224183270108,None,1386.1224183270108,None,f,1,1.2110061353374135,None,None,012,001,1,26,M,2021_Nov_10_1011,eye_tracking_exp,2021.2.3,85.01765551221452,
180,-12,0,180,-12,0,0,0,180,180,j,abs,resp,freq_top,,,,,0,221,221,127,,,1.080809687801256,,,,,,,,,,1388.7000716578004,None,1388.7000716578004,None,j,1,1.0965142356267847,None,None,012,001,1,26,M,2021_Nov_10_1011,eye_tracking_exp,2021.2.3,85.01765551221452,
0,180,-12,180,0,-12,180,0,180,0,j,abs,resp,freq_top,,,,,0,222,222,120,,,0.7868490673968116,,,,,,,,,,1390.8654245981247,None,1390.8654245981247,None,j,1,1.315119425897194,None,None,012,001,1,26,M,2021_Nov_10_1011,eye_tracking_exp,2021.2.3,85.01765551221452,
12,180,180,180,168,180,0,180,0,0,None,abs,inhibit,freq_top,,,,,0,223,223,503,,,1.007634355639971,,,,,,,,,,1393.4894752982825,None,1393.4894752982825,None,None,1,,None,None,012,001,1,26,M,2021_Nov_10_1011,eye_tracking_exp,2021.2.3,85.01765551221452,
180,0,12,180,180,0,-12,180,0,180,j,abs,resp,freq_top,,,,,0,224,224,165,,,1.0550455700939838,,,,,,,,,,1397.7044701307107,None,1397.7044701307107,None,j,1,1.628037329118854,None,None,012,001,1,26,M,2021_Nov_10_1011,eye_tracking_exp,2021.2.3,85.01765551221452,
0,90,0,-168,0,-168,0,0,0,0,f,present,resp,freq_top,,,,,0,225,225,784,,,0.7624812402263396,,,,,,,,,,1400.3748599443159,None,1400.3748599443159,None,f,1,2.7016076141320013,None,None,012,001,1,26,M,2021_Nov_10_1011,eye_tracking_exp,2021.2.3,85.01765551221452,
0,90,180,-12,180,0,180,12,0,0,j,present,resp,freq_top,,,,,0,226,226,675,,,0.9674711742903936,,,,,,,,,,1404.3288102994052,None,1404.3288102994052,None,j,1,1.8187681179461492,None,None,012,001,1,26,M,2021_Nov_10_1011,eye_tracking_exp,2021.2.3,85.01765551221452,
0,0,0,-12,0,0,0,-12,0,0,j,abs,resp,freq_top,,,,,0,227,227,72,,,0.9517241522813287,,,,,,,,,,1407.8353482436294,None,1407.8353482436294,None,j,1,0.6321713865559673,None,None,012,001,1,26,M,2021_Nov_10_1011,eye_tracking_exp,2021.2.3,85.01765551221452,
180,168,180,0,90,180,0,180,0,168,f,present,resp,freq_top,,,,,0,228,228,762,,,0.7588964780836147,,,,,,,,,,1409.5419729378611,None,1409.5419729378611,None,f,1,0.9423745035194884,None,None,012,001,1,26,M,2021_Nov_10_1011,eye_tracking_exp,2021.2.3,85.01765551221452,
168,0,180,0,180,0,168,180,180,180,f,abs,resp,freq_top,,,,,0,229,229,237,,,0.9866564337140236,,,,,,,,,,1412.4500988237737,None,1412.4500988237737,None,f,1,0.8017495412501034,None,None,012,001,1,26,M,2021_Nov_10_1011,eye_tracking_exp,2021.2.3,85.01765551221452,
168,180,0,180,168,180,0,180,0,180,f,abs,resp,freq_top,,,,,0,230,230,223,,,0.8200152559136263,,,,,,,,,,1414.3907870525763,None,1414.3907870525763,None,j,0,1.05276373758403,1415.46196341166,None,012,001,1,26,M,2021_Nov_10_1011,eye_tracking_exp,2021.2.3,85.01765551221452,
-12,0,270,180,180,180,-12,180,0,180,j,present,resp,freq_top,,,,,0,231,231,601,,,0.9943336196646138,,,,,,,,,,1417.0149506424452,None,1417.0149506424452,None,j,1,1.084607087715824,None,None,012,001,1,26,M,2021_Nov_10_1011,eye_tracking_exp,2021.2.3,85.01765551221452,
0,12,0,0,0,90,0,12,0,0,j,present,resp,freq_top,,,,,0,232,232,564,,,0.9915213619677219,,,,,,,,,,1419.3682531796262,None,1419.3682531796262,None,j,1,0.8903743030949158,None,None,012,001,1,26,M,2021_Nov_10_1011,eye_tracking_exp,2021.2.3,85.01765551221452,
180,12,0,270,180,180,180,180,-12,180,j,present,resp,freq_top,,,,,0,233,233,684,,,0.8660618449149152,,,,,,,,,,1421.4039082176466,None,1421.4039082176466,None,j,1,0.8228928182148252,None,None,012,001,1,26,M,2021_Nov_10_1011,eye_tracking_exp,2021.2.3,85.01765551221452,
90,180,180,12,180,-168,0,180,180,180,None,present,inhibit,freq_top,,,,,0,234,234,941,,,0.8371618240922021,,,,,,,,,,1423.4158506813226,None,1423.4158506813226,None,None,1,,None,None,012,001,1,26,M,2021_Nov_10_1011,eye_tracking_exp,2021.2.3,85.01765551221452,
-168,180,180,0,0,168,0,0,0,0,f,abs,resp,freq_top,,,,,0,235,235,416,,,0.7138278832135668,,,,,,,,,,1427.1476929448156,None,1427.1476929448156,None,f,1,0.7908577970495685,None,None,012,001,1,26,M,2021_Nov_10_1011,eye_tracking_exp,2021.2.3,85.01765551221452,
0,180,12,0,180,12,180,0,180,180,j,abs,resp,freq_top,,,,,0,236,236,50,,,0.7813081137824944,,,,,,,,,,1429.0178770214502,None,1429.0178770214502,None,j,1,0.7612725429813167,None,None,012,001,1,26,M,2021_Nov_10_1011,eye_tracking_exp,2021.2.3,85.01765551221452,
-12,0,0,0,0,12,0,0,0,0,j,abs,resp,freq_top,,,,,0,237,237,160,,,0.7185051225425778,,,,,,,,,,1430.771063288266,None,1430.771063288266,None,j,1,0.8476742226837928,None,None,012,001,1,26,M,2021_Nov_10_1011,eye_tracking_exp,2021.2.3,85.01765551221452,
0,180,-168,180,90,0,180,-168,0,180,f,present,resp,freq_top,,,,,0,238,238,836,,,0.938815818789038,,,,,,,,,,1433.3498304239583,None,1433.3498304239583,None,f,1,1.3727197407809513,None,None,012,001,1,26,M,2021_Nov_10_1011,eye_tracking_exp,2021.2.3,85.01765551221452,
0,168,0,270,180,180,180,180,0,168,f,present,resp,freq_top,,,,,0,239,239,776,,,0.7573500833615951,,,,,,,,,,1435.7725918270264,None,1435.7725918270264,None,f,1,1.1730712684746436,None,None,012,001,1,26,M,2021_Nov_10_1011,eye_tracking_exp,2021.2.3,85.01765551221452,
-12,0,-12,0,270,0,0,0,180,180,j,present,resp,freq_top,,,,,0,240,240,629,,,0.7061980355646003,,,,,,,,,,1437.9847191400581,None,1437.9847191400581,None,j,1,1.2328379188014083,None,None,012,001,1,26,M,2021_Nov_10_1011,eye_tracking_exp,2021.2.3,85.01765551221452,
180,12,0,180,0,180,12,0,180,180,j,abs,resp,freq_top,,,,,0,241,241,59,,,0.9126791555236448,,,,,,,,,,1440.468212189191,None,1440.468212189191,None,j,1,0.7812757546030866,None,None,012,001,1,26,M,2021_Nov_10_1011,eye_tracking_exp,2021.2.3,85.01765551221452,
12,0,180,0,90,0,0,0,12,0,j,present,resp,freq_top,,,,,0,242,242,545,,,0.9701476964132087,,,,,,,,,,1442.822647547456,None,1442.822647547456,None,j,1,0.954872360426009,None,None,012,001,1,26,M,2021_Nov_10_1011,eye_tracking_exp,2021.2.3,85.01765551221452,
270,180,180,-168,180,0,180,180,-168,180,f,present,resp,freq_top,,,,,0,243,243,787,,,0.9676141984662222,,,,,,,,,,1445.4336208499449,None,1445.4336208499449,None,f,1,1.496011906597289,None,None,012,001,1,26,M,2021_Nov_10_1011,eye_tracking_exp,2021.2.3,85.01765551221452,
0,168,0,0,0,-168,180,0,0,0,f,abs,resp,freq_top,,,,,0,244,244,408,,,0.9458337508494441,,,,,,,,,,1448.5521130901354,None,1448.5521130901354,None,f,1,1.4335217165321978,None,None,012,001,1,26,M,2021_Nov_10_1011,eye_tracking_exp,2021.2.3,85.01765551221452,
180,0,180,-12,180,180,-12,180,180,180,j,abs,resp,freq_top,,,,,0,245,245,71,,,0.9406032456819982,,,,,,,,,,1451.3759305855053,None,1451.3759305855053,None,j,1,0.8008539696657522,None,None,012,001,1,26,M,2021_Nov_10_1011,eye_tracking_exp,2021.2.3,85.01765551221452,
0,12,180,0,0,0,180,12,0,0,j,abs,resp,freq_top,,,,,0,246,246,33,,,0.970542033985442,,,,,,,,,,1453.4125029278882,None,1453.4125029278882,None,j,1,0.7961883646856336,None,None,012,001,1,26,M,2021_Nov_10_1011,eye_tracking_exp,2021.2.3,85.01765551221452,
180,180,0,180,0,180,12,180,12,180,j,abs,resp,freq_top,,,,,0,247,247,21,,,0.7703867868395486,,,,,,,,,,1455.6242161107502,None,1455.6242161107502,None,j,1,0.6963627702337476,None,None,012,001,1,26,M,2021_Nov_10_1011,eye_tracking_exp,2021.2.3,85.01765551221452,
90,180,-12,180,-12,0,180,0,180,180,j,present,resp,freq_top,,,,,0,248,248,585,,,0.7699829372894437,,,,,,,,,,1457.6377088459653,None,1457.6377088459653,None,j,1,0.8591298117506199,None,None,012,001,1,26,M,2021_Nov_10_1011,eye_tracking_exp,2021.2.3,85.01765551221452,
168,0,168,180,90,180,0,0,180,180,f,present,resp,freq_top,,,,,0,249,249,777,,,0.8776250470475823,,,,,,,,,,1460.1918288978343,None,1460.1918288978343,None,f,1,1.4567972205514366,None,None,012,001,1,26,M,2021_Nov_10_1011,eye_tracking_exp,2021.2.3,85.01765551221452,
12,180,0,180,12,0,180,0,180,180,j,abs,resp,freq_top,,,,,0,250,250,13,,,0.7692671571008098,,,,,,,,,,1462.732064118941,None,1462.732064118941,None,j,1,0.7242226831579615,None,None,012,001,1,26,M,2021_Nov_10_1011,eye_tracking_exp,2021.2.3,85.01765551221452,
0,270,0,-168,0,180,180,180,0,-12,None,present,inhibit,freq_top,,,,,0,251,251,998,,,0.8103924792280747,,,,,,,,,,1931.1659427437876,None,1931.1659427437876,None,None,1,,None,None,012,001,1,26,M,2021_Nov_10_1011,eye_tracking_exp,2021.2.3,85.01765551221452,
0,0,0,0,-168,0,0,0,0,168,f,abs,resp,freq_top,,,,,0,252,252,360,,,0.9384757544767167,,,,,,,,,,1935.391579091618,None,1935.391579091618,None,f,1,1.4113192684552018,None,None,012,001,1,26,M,2021_Nov_10_1011,eye_tracking_exp,2021.2.3,85.01765551221452,
0,90,0,-12,0,0,-12,180,180,180,j,present,resp,freq_top,,,,,0,253,253,598,,,0.8241690655730773,,,,,,,,,,1937.9686405060356,None,1937.9686405060356,None,j,1,1.7788344391422584,None,None,012,001,1,26,M,2021_Nov_10_1011,eye_tracking_exp,2021.2.3,85.01765551221452,
270,180,0,0,12,0,0,12,0,180,j,present,resp,freq_top,,,,,0,254,254,534,,,1.0381935025260551,,,,,,,,,,1941.3101687067306,None,1941.3101687067306,None,j,1,1.8127922075239553,None,None,012,001,1,26,M,2021_Nov_10_1011,eye_tracking_exp,2021.2.3,85.01765551221452,
90,0,-168,0,0,180,180,180,168,0,f,present,resp,freq_top,,,,,0,255,255,907,,,0.8526892704871128,,,,,,,,,,1944.4399764803043,None,1944.4399764803043,None,None,0,,1947.4186961660962,None,012,001,1,26,M,2021_Nov_10_1011,eye_tracking_exp,2021.2.3,85.01765551221452,
-168,0,0,0,0,0,0,-168,180,180,f,abs,resp,freq_top,,,,,0,256,256,314,,,1.0904425377017313,,,,,,,,,,1949.0415219827055,None,1949.0415219827055,None,f,1,1.3445066702050212,None,None,012,001,1,26,M,2021_Nov_10_1011,eye_tracking_exp,2021.2.3,85.01765551221452,
270,0,-168,180,180,0,0,0,0,168,f,present,resp,freq_top,,,,,0,257,257,908,,,0.896425667529871,,,,,,,,,,1951.7378432269797,None,1951.7378432269797,None,j,0,1.688080770528643,1953.444409967135,None,012,001,1,26,M,2021_Nov_10_1011,eye_tracking_exp,2021.2.3,85.01765551221452,
0,168,0,180,180,180,-168,0,0,0,f,abs,resp,freq_top,,,,,0,258,258,376,,,0.7204917267054058,,,,,,,,,,1954.7140509657806,None,1954.7140509657806,None,f,1,1.847801902758249,None,None,012,001,1,26,M,2021_Nov_10_1011,eye_tracking_exp,2021.2.3,85.01765551221452,
180,-12,180,270,180,-12,180,180,0,180,j,present,resp,freq_top,,,,,0,259,259,593,,,0.8853033820107823,,,,,,,,,,1957.7269798561292,None,1957.7269798561292,None,j,1,0.8669871167410861,None,None,012,001,1,26,M,2021_Nov_10_1011,eye_tracking_exp,2021.2.3,85.01765551221452,
12,0,180,180,90,180,-12,180,180,180,j,present,resp,freq_top,,,,,0,260,260,671,,,0.846917935964195,,,,,,,,,,1959.7160413260858,None,1959.7160413260858,None,j,1,1.9340390773998593,None,None,012,001,1,26,M,2021_Nov_10_1011,eye_tracking_exp,2021.2.3,85.01765551221452,
0,180,168,0,-168,180,0,180,0,180,f,abs,resp,freq_top,,,,,0,261,261,361,,,1.0758596356402612,,,,,,,,,,1962.9877931208512,None,1962.9877931208512,None,f,1,1.253967914623729,None,None,012,001,1,26,M,2021_Nov_10_1011,eye_tracking_exp,2021.2.3,85.01765551221452,
180,180,0,180,180,-12,180,0,-12,180,j,abs,resp,freq_top,,,,,0,262,262,85,,,0.9140541326530466,,,,,,,,,,1965.4589712306306,None,1965.4589712306306,None,j,1,0.9749736713959578,None,None,012,001,1,26,M,2021_Nov_10_1011,eye_tracking_exp,2021.2.3,85.01765551221452,
0,180,0,180,0,180,-168,180,-168,180,f,abs,resp,freq_top,,,,,0,263,263,301,,,0.8130588193188404,,,,,,,,,,1967.4954696211976,None,1967.4954696211976,None,f,1,1.0175430532911491,None,None,012,001,1,26,M,2021_Nov_10_1011,eye_tracking_exp,2021.2.3,85.01765551221452,
270,0,168,180,180,180,180,0,0,168,f,present,resp,freq_top,,,,,0,264,264,761,,,0.9360982419156687,,,,,,,,,,1969.742219363423,None,1969.742219363423,None,f,1,1.8908204287443482,None,None,012,001,1,26,M,2021_Nov_10_1011,eye_tracking_exp,2021.2.3,85.01765551221452,
180,12,180,180,0,180,180,0,12,180,j,abs,resp,freq_top,,,,,0,265,265,61,,,0.8726792448651852,,,,,,,,,,1972.8019962764506,None,1972.8019962764506,None,j,1,1.4398870059042679,None,None,012,001,1,26,M,2021_Nov_10_1011,eye_tracking_exp,2021.2.3,85.01765551221452,
0,180,180,180,180,12,0,12,0,0,j,abs,resp,freq_top,,,,,0,266,266,14,,,0.7894266410045561,,,,,,,,,,1975.332335537198,None,1975.332335537198,None,j,1,1.9166395733903414,None,None,012,001,1,26,M,2021_Nov_10_1011,eye_tracking_exp,2021.2.3,85.01765551221452,
180,180,270,180,-168,180,168,180,180,180,f,present,resp,freq_top,,,,,0,267,267,861,,,1.0300564941862524,,,,,,,,,,1978.545340311165,None,1978.545340311165,None,f,1,1.566775946575774,None,None,012,001,1,26,M,2021_Nov_10_1011,eye_tracking_exp,2021.2.3,85.01765551221452,
-12,0,270,0,0,12,0,0,0,0,j,present,resp,freq_top,,,,,0,268,268,664,,,0.8003263057096788,,,,,,,,,,1981.4161808988197,None,1981.4161808988197,None,j,1,1.7679067754882567,None,None,012,001,1,26,M,2021_Nov_10_1011,eye_tracking_exp,2021.2.3,85.01765551221452,
180,180,90,0,0,12,0,180,12,0,j,present,resp,freq_top,,,,,0,269,269,540,,,1.02793298971514,,,,,,,,,,1984.501122860227,None,1984.501122860227,None,j,1,0.8272448071264193,None,None,012,001,1,26,M,2021_Nov_10_1011,eye_tracking_exp,2021.2.3,85.01765551221452,
0,0,180,180,180,12,0,-168,0,0,None,abs,inhibit,freq_top,,,,,0,270,270,449,,,0.8340415838641256,,,,,,,,,,1986.4181130032043,None,1986.4181130032043,None,None,1,,None,None,012,001,1,26,M,2021_Nov_10_1011,eye_tracking_exp,2021.2.3,85.01765551221452,
-12,0,0,180,-12,180,180,0,180,180,j,abs,resp,freq_top,,,,,0,271,271,135,,,0.9724689630807473,,,,,,,,,,1990.713069972303,None,1990.713069972303,None,j,1,0.9029630150897106,None,None,012,001,1,26,M,2021_Nov_10_1011,eye_tracking_exp,2021.2.3,85.01765551221452,
0,168,0,270,180,180,180,-168,0,0,f,present,resp,freq_top,,,,,0,272,272,914,,,0.8447578857770939,,,,,,,,,,1992.9604472485094,None,1992.9604472485094,None,f,1,1.7439771752022466,None,None,012,001,1,26,M,2021_Nov_10_1011,eye_tracking_exp,2021.2.3,85.01765551221452,
0,12,0,90,180,180,168,0,0,0,None,present,inhibit,freq_top,,,,,0,273,273,950,,,0.9896481979363358,,,,,,,,,,1995.996354930081,None,1995.996354930081,None,None,1,,None,None,012,001,1,26,M,2021_Nov_10_1011,eye_tracking_exp,2021.2.3,85.01765551221452,
180,180,0,0,-12,0,0,12,180,180,j,abs,resp,freq_top,,,,,0,274,274,170,,,0.767194777036224,,,,,,,,,,2000.0805277926015,None,2000.0805277926015,None,j,1,0.9432785267393342,None,None,012,001,1,26,M,2021_Nov_10_1011,eye_tracking_exp,2021.2.3,85.01765551221452,
180,180,180,180,-168,0,0,168,0,0,f,abs,resp,freq_top,,,,,0,275,275,358,,,0.9373231991891184,,,,,,,,,,2002.4457474385508,None,2002.4457474385508,None,f,1,1.2653438168361504,None,None,012,001,1,26,M,2021_Nov_10_1011,eye_tracking_exp,2021.2.3,85.01765551221452,
0,0,0,0,168,0,0,12,0,0,None,abs,inhibit,freq_top,,,,,0,276,276,428,,,0.7701779248533605,,,,,,,,,,2004.7759000388774,None,2004.7759000388774,None,None,1,,None,None,012,001,1,26,M,2021_Nov_10_1011,eye_tracking_exp,2021.2.3,85.01765551221452,
180,12,180,-168,180,270,180,180,0,180,None,present,inhibit,freq_top,,,,,0,277,277,929,,,0.8023522837460013,,,,,,,,,,2009.4475234895117,None,2009.4475234895117,None,None,1,,None,None,012,001,1,26,M,2021_Nov_10_1011,eye_tracking_exp,2021.2.3,85.01765551221452,
270,180,180,180,168,180,12,180,0,180,None,present,inhibit,freq_top,,,,,0,278,278,931,,,1.042926351388519,,,,,,,,,,2013.8139320995556,None,2013.8139320995556,None,None,1,,None,None,012,001,1,26,M,2021_Nov_10_1011,eye_tracking_exp,2021.2.3,85.01765551221452,
90,180,180,168,0,168,180,180,180,180,f,present,resp,freq_top,,,,,0,279,279,731,,,0.9320641115070334,,,,,,,,,,2018.0165470961388,None,2018.0165470961388,None,f,1,1.1815461465897101,None,None,012,001,1,26,M,2021_Nov_10_1011,eye_tracking_exp,2021.2.3,85.01765551221452,
0,-12,0,90,0,0,-12,0,0,0,j,present,resp,freq_top,,,,,0,280,280,600,,,1.0999315519910544,,,,,,,,,,2020.5801432431585,None,2020.5801432431585,None,j,1,1.3877216967310346,None,None,012,001,1,26,M,2021_Nov_10_1011,eye_tracking_exp,2021.2.3,85.01765551221452,
180,12,180,180,270,180,12,0,0,180,j,present,resp,freq_top,,,,,0,281,281,563,,,0.969450598185275,,,,,,,,,,2023.4751283441315,None,2023.4751283441315,None,j,1,0.9229725654384424,None,None,012,001,1,26,M,2021_Nov_10_1011,eye_tracking_exp,2021.2.3,85.01765551221452,
180,0,180,0,12,180,180,180,12,180,j,abs,resp,freq_top,,,,,0,282,282,9,,,0.7897839950891865,,,,,,,,,,2025.8169254879613,None,2025.8169254879613,None,j,1,0.8523494866765873,None,None,012,001,1,26,M,2021_Nov_10_1011,eye_tracking_exp,2021.2.3,85.01765551221452,
90,0,180,168,180,180,0,168,0,0,f,present,resp,freq_top,,,,,0,283,283,745,,,0.8128778053889749,,,,,,,,,,2028.0525516696812,None,2028.0525516696812,None,f,1,1.0966443304544669,None,None,012,001,1,26,M,2021_Nov_10_1011,eye_tracking_exp,2021.2.3,85.01765551221452,
180,180,0,0,0,12,180,180,168,180,None,abs,inhibit,freq_top,,,,,0,284,284,456,,,0.7474780495201653,,,,,,,,,,2030.7237036397573,None,2030.7237036397573,None,None,1,,None,None,012,001,1,26,M,2021_Nov_10_1011,eye_tracking_exp,2021.2.3,85.01765551221452,
12,180,180,0,168,0,180,0,180,180,None,abs,inhibit,freq_top,,,,,0,285,285,433,,,0.8218125271588974,,,,,,,,,,2035.1135232818428,None,2035.1135232818428,None,None,1,,None,None,012,001,1,26,M,2021_Nov_10_1011,eye_tracking_exp,2021.2.3,85.01765551221452,
180,0,168,0,0,180,180,0,168,0,f,abs,resp,freq_top,,,,,0,286,286,263,,,0.7484376417370409,,,,,,,,,,2039.1286052264918,None,2039.1286052264918,None,f,1,0.9485312185859698,None,None,012,001,1,26,M,2021_Nov_10_1011,eye_tracking_exp,2021.2.3,85.01765551221452,
180,-12,180,0,180,0,180,180,-12,180,j,abs,resp,freq_top,,,,,0,287,287,131,,,0.9952430198861113,,,,,,,,,,2041.6445670468293,None,2041.6445670468293,None,j,1,0.9611404559826155,None,None,012,001,1,26,M,2021_Nov_10_1011,eye_tracking_exp,2021.2.3,85.01765551221452,
0,0,-12,180,180,180,0,0,180,-12,j,abs,resp,freq_top,,,,,0,288,288,117,,,0.8371042119193945,,,,,,,,,,2044.021976970499,None,2044.021976970499,None,j,1,0.7902670880537812,None,None,012,001,1,26,M,2021_Nov_10_1011,eye_tracking_exp,2021.2.3,85.01765551221452,
180,-168,180,180,0,-168,180,180,0,180,f,abs,resp,freq_top,,,,,0,289,289,299,,,0.8824620417675634,,,,,,,,,,2046.0942499293683,None,2046.0942499293683,None,f,1,0.9899279359704565,None,None,012,001,1,26,M,2021_Nov_10_1011,eye_tracking_exp,2021.2.3,85.01765551221452,
270,0,-168,0,180,180,180,0,180,-168,f,present,resp,freq_top,,,,,0,290,290,831,,,0.8247110737936463,,,,,,,,,,2048.2467778137307,None,2048.2467778137307,None,f,1,0.9014649625883635,None,None,012,001,1,26,M,2021_Nov_10_1011,eye_tracking_exp,2021.2.3,85.01765551221452,
0,0,0,-168,0,-168,0,0,0,0,f,abs,resp,freq_top,,,,,0,291,291,280,,,0.9271387541551945,,,,,,,,,,2050.612222635413,None,2050.612222635413,None,f,1,0.8876477449153413,None,None,012,001,1,26,M,2021_Nov_10_1011,eye_tracking_exp,2021.2.3,85.01765551221452,
0,0,0,12,0,0,-12,0,0,0,j,abs,resp,freq_top,,,,,0,292,292,164,,,0.7442834958127967,,,,,,,,,,2052.529083589096,None,2052.529083589096,None,j,1,0.9391233402125749,None,None,012,001,1,26,M,2021_Nov_10_1011,eye_tracking_exp,2021.2.3,85.01765551221452,
180,12,180,0,180,12,0,180,0,180,j,abs,resp,freq_top,,,,,0,293,293,19,,,0.9111691711393979,,,,,,,,,,2059.6241530253237,None,2059.6241530253237,None,j,1,0.9150539860862068,None,None,012,001,1,26,M,2021_Nov_10_1011,eye_tracking_exp,2021.2.3,85.01765551221452,
180,168,180,0,180,0,180,0,0,168,f,abs,resp,freq_top,,,,,0,294,294,258,,,0.7134050100605115,,,,,,,,,,2061.7538364391085,None,2061.7538364391085,None,f,1,1.105376983471217,None,None,012,001,1,26,M,2021_Nov_10_1011,eye_tracking_exp,2021.2.3,85.01765551221452,
0,168,0,270,0,0,0,168,0,0,f,present,resp,freq_top,,,,,0,295,295,774,,,1.0020169943547566,,,,,,,,,,2064.1545617102247,None,2064.1545617102247,None,f,1,1.8407061505504885,None,None,012,001,1,26,M,2021_Nov_10_1011,eye_tracking_exp,2021.2.3,85.01765551221452,
0,0,168,0,0,168,0,180,180,180,f,abs,resp,freq_top,,,,,0,296,296,228,,,0.947384253398153,,,,,,,,,,2067.22618510049,None,2067.22618510049,None,f,1,0.8810612037837586,None,None,012,001,1,26,M,2021_Nov_10_1011,eye_tracking_exp,2021.2.3,85.01765551221452,
180,0,180,0,-168,180,-168,180,180,180,f,abs,resp,freq_top,,,,,0,297,297,287,,,0.7981316704819412,,,,,,,,,,2069.391116666385,None,2069.391116666385,None,f,1,1.1001623239877176,None,None,012,001,1,26,M,2021_Nov_10_1011,eye_tracking_exp,2021.2.3,85.01765551221452,
0,270,0,0,-12,180,180,180,0,12,j,present,resp,freq_top,,,,,0,298,298,654,,,0.8270202852201092,,,,,,,,,,2071.626942367086,None,2071.626942367086,None,j,1,1.1363407597587525,None,None,012,001,1,26,M,2021_Nov_10_1011,eye_tracking_exp,2021.2.3,85.01765551221452,
90,0,180,0,-12,0,0,0,180,12,j,present,resp,freq_top,,,,,0,299,299,689,,,1.0072697904927934,,,,,,,,,,2073.863404657093,None,2073.863404657093,None,j,1,1.1868987488492735,None,None,012,001,1,26,M,2021_Nov_10_1011,eye_tracking_exp,2021.2.3,85.01765551221452,
270,180,168,180,-168,180,180,180,0,180,f,present,resp,freq_top,,,,,0,300,300,865,,,0.8742925491550165,,,,,,,,,,2076.216306647091,None,2076.216306647091,None,f,1,1.0099510693058278,None,None,012,001,1,26,M,2021_Nov_10_1011,eye_tracking_exp,2021.2.3,85.01765551221452,
0,0,-168,0,0,168,0,0,0,0,f,abs,resp,freq_top,,,,,0,301,301,368,,,0.8779801142564132,,,,,,,,,,2078.6283230022145,None,2078.6283230022145,None,f,1,1.4147575751340469,None,None,012,001,1,26,M,2021_Nov_10_1011,eye_tracking_exp,2021.2.3,85.01765551221452,
0,-168,0,0,270,-168,180,0,0,0,f,present,resp,freq_top,,,,,0,302,302,842,,,0.885179078443783,,,,,,,,,,2081.2642893019192,None,2081.2642893019192,None,f,1,0.8256223948365573,None,None,012,001,1,26,M,2021_Nov_10_1011,eye_tracking_exp,2021.2.3,85.01765551221452,
0,0,0,0,-12,180,180,180,0,12,j,abs,resp,freq_top,,,,,0,303,303,150,,,0.8386809766375304,,,,,,,,,,2083.466597926693,None,2083.466597926693,None,j,1,0.9116811795880153,None,None,012,001,1,26,M,2021_Nov_10_1011,eye_tracking_exp,2021.2.3,85.01765551221452,
180,180,90,180,168,180,168,180,0,0,f,present,resp,freq_top,,,,,0,304,304,721,,,0.9203650171938268,,,,,,,,,,2085.865197309482,None,2085.865197309482,None,f,1,1.537446958188923,None,None,012,001,1,26,M,2021_Nov_10_1011,eye_tracking_exp,2021.2.3,85.01765551221452,
0,0,180,0,0,0,-12,0,180,-12,j,abs,resp,freq_top,,,,,0,305,305,113,,,1.0491702989641447,,,,,,,,,,2088.98329775597,None,2088.98329775597,None,j,1,0.7062590324376856,None,None,012,001,1,26,M,2021_Nov_10_1011,eye_tracking_exp,2021.2.3,85.01765551221452,
-12,0,180,180,180,180,180,12,180,180,j,abs,resp,freq_top,,,,,0,306,306,174,,,1.0072029329833216,,,,,,,,,,2090.983665703985,None,2090.983665703985,None,j,1,0.7856736238250619,None,None,012,001,1,26,M,2021_Nov_10_1011,eye_tracking_exp,2021.2.3,85.01765551221452,
180,-168,180,90,0,180,180,-168,0,180,f,present,resp,freq_top,,,,,0,307,307,841,,,0.9428299581457432,,,,,,,,,,2093.031067610674,None,2093.031067610674,None,f,1,1.090224407291828,None,None,012,001,1,26,M,2021_Nov_10_1011,eye_tracking_exp,2021.2.3,85.01765551221452,
0,-168,0,0,180,180,180,180,0,-168,f,abs,resp,freq_top,,,,,0,308,308,342,,,0.848038129089755,,,,,,,,,,2095.4551972732606,None,2095.4551972732606,None,f,1,0.7621318932684176,None,None,012,001,1,26,M,2021_Nov_10_1011,eye_tracking_exp,2021.2.3,85.01765551221452,
-12,180,180,12,0,270,0,180,180,180,j,present,resp,freq_top,,,,,0,309,309,708,,,0.8900624573311056,,,,,,,,,,2097.6442612787087,None,2097.6442612787087,None,j,1,1.2138857284999744,None,None,012,001,1,26,M,2021_Nov_10_1011,eye_tracking_exp,2021.2.3,85.01765551221452,
168,0,0,90,0,180,12,0,180,180,None,present,inhibit,freq_top,,,,,0,310,310,991,,,0.8224608397568373,,,,,,,,,,2100.2801620782334,None,2100.2801620782334,None,None,1,,None,None,012,001,1,26,M,2021_Nov_10_1011,eye_tracking_exp,2021.2.3,85.01765551221452,
-12,180,180,270,0,12,180,180,180,0,j,present,resp,freq_top,,,,,0,311,311,710,,,0.7242186703170488,,,,,,,,,,2104.2589487734263,None,2104.2589487734263,None,j,1,0.8215595726179004,None,None,012,001,1,26,M,2021_Nov_10_1011,eye_tracking_exp,2021.2.3,85.01765551221452,
180,180,-168,0,180,0,-168,180,0,180,f,abs,resp,freq_top,,,,,0,312,312,305,,,1.022981522404199,,,,,,,,,,2106.6003794784615,None,2106.6003794784615,None,f,1,1.2001412552663737,None,None,012,001,1,26,M,2021_Nov_10_1011,eye_tracking_exp,2021.2.3,85.01765551221452,
180,270,180,180,-12,180,-12,180,180,180,j,present,resp,freq_top,,,,,0,313,313,597,,,0.9908231905530651,,,,,,,,,,2109.35371878026,None,2109.35371878026,None,j,1,1.182664780999005,None,None,012,001,1,26,M,2021_Nov_10_1011,eye_tracking_exp,2021.2.3,85.01765551221452,
180,180,-168,0,0,90,0,168,180,180,f,present,resp,freq_top,,,,,0,314,314,886,,,0.7753701421434901,,,,,,,,,,2111.589423441458,None,2111.589423441458,None,f,1,1.3319801381049388,None,None,012,001,1,26,M,2021_Nov_10_1011,eye_tracking_exp,2021.2.3,85.01765551221452,
180,180,180,-168,180,-168,0,180,0,180,f,abs,resp,freq_top,,,,,0,315,315,297,,,0.9496495890753519,,,,,,,,,,2114.0613700464355,None,2114.0613700464355,None,f,1,0.731366730429329,None,None,012,001,1,26,M,2021_Nov_10_1011,eye_tracking_exp,2021.2.3,85.01765551221452,
180,-168,180,90,180,180,0,180,0,-168,f,present,resp,freq_top,,,,,0,316,316,832,,,0.9049000384354384,,,,,,,,,,2115.990497644408,None,2115.990497644408,None,f,1,1.0260366457437726,None,None,012,001,1,26,M,2021_Nov_10_1011,eye_tracking_exp,2021.2.3,85.01765551221452,
180,90,0,12,180,180,180,180,-12,0,j,present,resp,freq_top,,,,,0,317,317,682,,,0.7948244613063966,,,,,,,,,,2118.3441122884374,None,2118.3441122884374,None,j,1,1.1523028819402157,None,None,012,001,1,26,M,2021_Nov_10_1011,eye_tracking_exp,2021.2.3,85.01765551221452,
-168,0,270,0,0,0,180,180,168,180,f,present,resp,freq_top,,,,,0,318,318,923,,,1.0611536125513914,,,,,,,,,,2121.0510904421653,None,2121.0510904421653,None,f,1,1.6124205166411798,None,None,012,001,1,26,M,2021_Nov_10_1011,eye_tracking_exp,2021.2.3,85.01765551221452,
0,270,0,0,12,0,0,12,0,0,j,present,resp,freq_top,,,,,0,319,319,512,,,0.9115849285765288,,,,,,,,,,2124.169808159934,None,2124.169808159934,None,j,1,0.8616031226916334,None,None,012,001,1,26,M,2021_Nov_10_1011,eye_tracking_exp,2021.2.3,85.01765551221452,
180,-168,0,180,0,180,0,180,-168,180,f,abs,resp,freq_top,,,,,0,320,320,320,,,1.054168078005606,,,,,,,,,,2126.3707059651647,None,2126.3707059651647,None,f,1,0.7421259650491834,None,None,012,001,1,26,M,2021_Nov_10_1011,eye_tracking_exp,2021.2.3,85.01765551221452,
180,0,-12,0,0,0,-12,0,0,0,j,abs,resp,freq_top,,,,,0,321,321,121,,,1.081899819230116,,,,,,,,,,2128.4889500894665,None,2128.4889500894665,None,j,1,0.8626085655451448,None,None,012,001,1,26,M,2021_Nov_10_1011,eye_tracking_exp,2021.2.3,85.01765551221452,
180,180,0,0,0,0,0,12,0,-12,j,abs,resp,freq_top,,,,,0,322,322,168,,,0.9045326748977616,,,,,,,,,,2130.8072317631804,None,2130.8072317631804,None,j,1,1.008161435358545,None,None,012,001,1,26,M,2021_Nov_10_1011,eye_tracking_exp,2021.2.3,85.01765551221452,
168,0,270,180,180,180,0,0,168,180,f,present,resp,freq_top,,,,,0,323,323,783,,,0.8243716718720114,,,,,,,,,,2133.137458919012,None,2133.137458919012,None,f,1,1.31865703930049,None,None,012,001,1,26,M,2021_Nov_10_1011,eye_tracking_exp,2021.2.3,85.01765551221452,
0,12,180,180,180,0,180,-168,0,0,None,abs,inhibit,freq_top,,,,,0,324,324,453,,,0.9271765906101163,,,,,,,,,,2135.679198833191,None,2135.679198833191,None,None,1,,None,None,012,001,1,26,M,2021_Nov_10_1011,eye_tracking_exp,2021.2.3,85.01765551221452,
0,270,180,180,180,-168,0,12,0,0,None,present,inhibit,freq_top,,,,,0,325,325,938,,,0.829753905454453,,,,,,,,,,2139.6105220454892,None,2139.6105220454892,None,None,1,,None,None,012,001,1,26,M,2021_Nov_10_1011,eye_tracking_exp,2021.2.3,85.01765551221452,
180,-168,0,180,0,180,-168,0,180,180,f,abs,resp,freq_top,,,,,0,326,326,339,,,1.0396714483092018,,,,,,,,,,2144.023541428713,None,2144.023541428713,None,f,1,0.7348844221183413,None,None,012,001,1,26,M,2021_Nov_10_1011,eye_tracking_exp,2021.2.3,85.01765551221452,
0,168,0,-168,180,0,0,180,0,0,f,abs,resp,freq_top,,,,,0,327,327,406,,,1.0103512420748446,,,,,,,,,,2146.365032200734,None,2146.365032200734,None,f,1,1.0014644192688706,None,None,012,001,1,26,M,2021_Nov_10_1011,eye_tracking_exp,2021.2.3,85.01765551221452,
0,180,-12,0,0,180,180,-12,0,180,j,abs,resp,freq_top,,,,,0,328,328,122,,,0.8587563623879492,,,,,,,,,,2148.5654117395643,None,2148.5654117395643,None,j,1,0.8004842105861485,None,None,012,001,1,26,M,2021_Nov_10_1011,eye_tracking_exp,2021.2.3,85.01765551221452,
0,12,180,270,180,180,180,12,0,180,j,present,resp,freq_top,,,,,0,329,329,537,,,0.9318202273475757,,,,,,,,,,2150.6143150190405,None,2150.6143150190405,None,j,1,0.7361168517705323,None,None,012,001,1,26,M,2021_Nov_10_1011,eye_tracking_exp,2021.2.3,85.01765551221452,
180,-168,180,270,0,180,12,0,180,180,None,present,inhibit,freq_top,,,,,0,330,330,983,,,0.8859880073689703,,,,,,,,,,2152.60177611133,None,2152.60177611133,None,None,1,,None,None,012,001,1,26,M,2021_Nov_10_1011,eye_tracking_exp,2021.2.3,85.01765551221452,
0,0,180,0,-12,0,0,0,-12,0,j,abs,resp,freq_top,,,,,0,331,331,107,,,0.8610838943241433,,,,,,,,,,2156.5797122097165,None,2156.5797122097165,None,j,1,1.1057627402911407,None,None,012,001,1,26,M,2021_Nov_10_1011,eye_tracking_exp,2021.2.3,85.01765551221452,
12,180,180,12,0,0,180,180,180,90,j,present,resp,freq_top,,,,,0,332,332,568,,,1.0871872546986985,,,,,,,,,,2159.0744534809874,None,2159.0744534809874,None,j,1,1.267061310032716,None,None,012,001,1,26,M,2021_Nov_10_1011,eye_tracking_exp,2021.2.3,85.01765551221452,
-12,0,0,12,0,270,0,0,0,0,j,present,resp,freq_top,,,,,0,333,333,650,,,1.0835608283264748,,,,,,,,,,2161.721617896702,None,2161.721617896702,None,j,1,0.6358300394618368,None,None,012,001,1,26,M,2021_Nov_10_1011,eye_tracking_exp,2021.2.3,85.01765551221452,
180,180,0,180,180,12,180,180,0,-168,None,abs,inhibit,freq_top,,,,,0,334,334,464,,,1.0181345148743668,,,,,,,,,,2163.969536681308,None,2163.969536681308,None,None,1,,None,None,012,001,1,26,M,2021_Nov_10_1011,eye_tracking_exp,2021.2.3,85.01765551221452,
-12,0,180,0,180,0,-12,180,0,180,j,abs,resp,freq_top,,,,,0,335,335,97,,,0.7847616177566775,,,,,,,,,,2169.7472456721584,None,2169.7472456721584,None,j,1,0.769270205500618,None,None,012,001,1,26,M,2021_Nov_10_1011,eye_tracking_exp,2021.2.3,85.01765551221452,
0,180,0,12,0,180,180,180,0,12,j,abs,resp,freq_top,,,,,0,336,336,4,,,0.8207981715945248,,,,,,,,,,2171.865052122447,None,2171.865052122447,None,j,1,0.6994941014150413,None,None,012,001,1,26,M,2021_Nov_10_1011,eye_tracking_exp,2021.2.3,85.01765551221452,
0,270,180,180,-168,180,180,180,0,-168,f,present,resp,freq_top,,,,,0,337,337,794,,,1.0425360788413585,,,,,,,,,,2173.971276209127,None,2173.971276209127,None,f,1,1.2172829843739805,None,None,012,001,1,26,M,2021_Nov_10_1011,eye_tracking_exp,2021.2.3,85.01765551221452,
180,180,180,180,168,180,168,180,180,180,f,abs,resp,freq_top,,,,,0,338,338,217,,,0.7438345191524858,,,,,,,,,,2176.4308710497658,None,2176.4308710497658,None,f,1,0.8696508913386083,None,None,012,001,1,26,M,2021_Nov_10_1011,eye_tracking_exp,2021.2.3,85.01765551221452,
