ori10,ori11,ori12,ori13,ori14,ori16,ori17,ori18,ori19,ori20,corrAns,distractor,respon,dist_freq,practice_trials.thisRepN,practice_trials.thisTrialN,practice_trials.thisN,practice_trials.thisIndex,trials.thisRepN,trials.thisTrialN,trials.thisN,trials.thisIndex,key_resp.keys,key_resp.rt,fixdur,int14_2.started,int14_2.stopped,per15_2.started,per15_2.stopped,response_pract.keys,response_pract.corr,response_pract.rt,key_resp_2.keys,key_resp_2.rt,int14.started,int14.stopped,per15.started,per15.stopped,response.keys,response.corr,response.rt,text_7.started,text_7.stopped,participant,session,1=top 2=bottom,age,gender,date,expName,psychopyVersion,frameRate,
,,,,,,,,,,,,,,,,,,,,,,space,79.66697095973268,,,,,,,,,,,,,,,,,,,,013,001,1,28,m,2021_Nov_10_1137,eye_tracking_exp,2021.2.3,84.84868973737237,
180,0,180,12,180,180,12,180,180,180,j,abs,resp,pract,0,0,0,1,,,,,,,0.9151185744355461,195.47308485925623,None,195.47308485925623,None,j,1,1.084576261082475,,,,,,,,,,,,013,001,1,28,m,2021_Nov_10_1137,eye_tracking_exp,2021.2.3,84.84868973737237,
12,0,0,-168,0,0,180,180,180,180,None,abs,inhibit,pract,0,1,1,27,,,,,,,0.9871720300898253,197.791447427202,None,197.791447427202,None,None,1,,,,,,,,,,,,,013,001,1,28,m,2021_Nov_10_1137,eye_tracking_exp,2021.2.3,84.84868973737237,
0,180,0,-168,180,0,180,0,12,180,None,abs,inhibit,pract,0,2,2,24,,,,,,,0.8281421665487901,201.9924161658073,None,201.9924161658073,None,None,1,,,,,,,,,,,,,013,001,1,28,m,2021_Nov_10_1137,eye_tracking_exp,2021.2.3,84.84868973737237,
0,180,0,12,0,180,180,180,0,12,j,abs,resp,pract,0,3,3,4,,,,,,,0.8455954545889668,206.03996265584283,None,206.03996265584283,None,j,1,1.4284048160216116,,,,,,,,,,,,013,001,1,28,m,2021_Nov_10_1137,eye_tracking_exp,2021.2.3,84.84868973737237,
180,270,180,12,180,180,180,180,12,180,j,present,resp,pract,0,4,4,35,,,,,,,0.8393906893180804,208.68755780315496,None,208.68755780315496,None,j,1,1.468581177519809,,,,,,,,,,,,013,001,1,28,m,2021_Nov_10_1137,eye_tracking_exp,2021.2.3,84.84868973737237,
0,0,180,0,0,0,168,0,180,168,f,abs,resp,pract,0,5,5,15,,,,,,,0.972455431138119,211.42922086781437,None,211.42922086781437,None,f,1,1.0143301856596736,,,,,,,,,,,,013,001,1,28,m,2021_Nov_10_1137,eye_tracking_exp,2021.2.3,84.84868973737237,
0,0,0,-168,0,0,0,12,0,0,None,abs,inhibit,pract,0,6,6,23,,,,,,,0.9607053873657793,213.77079011931346,None,213.77079011931346,None,None,1,,,,,,,,,,,,,013,001,1,28,m,2021_Nov_10_1137,eye_tracking_exp,2021.2.3,84.84868973737237,
168,0,270,180,180,180,180,168,180,180,f,present,resp,pract,0,7,7,49,,,,,,,1.075304527177895,217.89037533716055,None,217.89037533716055,None,f,1,1.384060288697583,,,,,,,,,,,,013,001,1,28,m,2021_Nov_10_1137,eye_tracking_exp,2021.2.3,84.84868973737237,
180,270,0,0,0,0,0,168,0,168,f,present,resp,pract,0,8,8,43,,,,,,,0.9834332051013548,220.85638346039013,None,220.85638346039013,None,f,1,1.2499989274047039,,,,,,,,,,,,013,001,1,28,m,2021_Nov_10_1137,eye_tracking_exp,2021.2.3,84.84868973737237,
90,0,180,168,180,180,0,168,0,0,f,present,resp,pract,0,9,9,46,,,,,,,0.8233940851604317,223.4555353387059,None,223.4555353387059,None,f,1,1.2748935234285454,,,,,,,,,,,,013,001,1,28,m,2021_Nov_10_1137,eye_tracking_exp,2021.2.3,84.84868973737237,
90,0,0,12,0,0,0,12,0,0,j,present,resp,pract,0,10,10,34,,,,,,,1.0727494923568106,226.38565509838918,None,226.38565509838918,None,j,1,1.2887964648389243,,,,,,,,,,,,013,001,1,28,m,2021_Nov_10_1137,eye_tracking_exp,2021.2.3,84.84868973737237,
180,12,180,12,0,180,0,180,180,180,j,abs,resp,pract,0,11,11,5,,,,,,,0.8236530693317252,228.92896852610738,None,228.92896852610738,None,j,1,1.2894203766909413,,,,,,,,,,,,013,001,1,28,m,2021_Nov_10_1137,eye_tracking_exp,2021.2.3,84.84868973737237,
180,168,180,0,180,0,180,0,0,168,f,abs,resp,pract,0,12,12,20,,,,,,,0.8003627116174659,231.4690588620242,None,231.4690588620242,None,f,1,0.8934310402410119,,,,,,,,,,,,013,001,1,28,m,2021_Nov_10_1137,eye_tracking_exp,2021.2.3,84.84868973737237,
180,0,90,180,12,0,180,180,12,180,j,present,resp,pract,0,13,13,41,,,,,,,1.07985904789752,233.86948470374682,None,233.86948470374682,None,j,1,1.7400256949431423,,,,,,,,,,,,013,001,1,28,m,2021_Nov_10_1137,eye_tracking_exp,2021.2.3,84.84868973737237,
180,180,90,180,12,180,12,0,0,180,j,present,resp,pract,0,14,14,39,,,,,,,0.9691561051390732,237.05840925719804,None,237.05840925719804,None,j,1,0.9525789100662223,,,,,,,,,,,,013,001,1,28,m,2021_Nov_10_1137,eye_tracking_exp,2021.2.3,84.84868973737237,
180,180,180,-168,180,180,12,180,0,180,None,abs,inhibit,pract,0,15,15,22,,,,,,,0.7471302612522139,239.25967712335296,None,239.25967712335296,None,None,1,,,,,,,,,,,,,013,001,1,28,m,2021_Nov_10_1137,eye_tracking_exp,2021.2.3,84.84868973737237,
180,0,180,0,12,180,180,180,12,180,j,abs,resp,pract,0,16,16,9,,,,,,,0.9070240002211971,243.2008938812569,None,243.2008938812569,None,j,1,1.4017782382816222,,,,,,,,,,,,013,001,1,28,m,2021_Nov_10_1137,eye_tracking_exp,2021.2.3,84.84868973737237,
0,180,0,12,0,12,0,180,180,180,j,abs,resp,pract,0,17,17,0,,,,,,,0.7096678884610096,245.57815831604785,None,245.57815831604785,None,j,1,1.0872632776790851,,,,,,,,,,,,013,001,1,28,m,2021_Nov_10_1137,eye_tracking_exp,2021.2.3,84.84868973737237,
180,270,180,12,180,0,12,180,0,180,j,present,resp,pract,0,18,18,33,,,,,,,1.0523481789182751,248.249243880412,None,248.249243880412,None,j,1,0.768193790740952,,,,,,,,,,,,013,001,1,28,m,2021_Nov_10_1137,eye_tracking_exp,2021.2.3,84.84868973737237,
180,0,180,0,168,180,0,180,12,180,None,abs,inhibit,pract,0,19,19,30,,,,,,,0.7755596386914756,250.07326874271075,None,250.07326874271075,None,None,1,,,,,,,,,,,,,013,001,1,28,m,2021_Nov_10_1137,eye_tracking_exp,2021.2.3,84.84868973737237,
0,0,0,0,168,0,0,12,0,0,None,abs,inhibit,pract,0,20,20,29,,,,,,,0.7728170757716164,254.36929061795945,None,254.36929061795945,None,None,1,,,,,,,,,,,,,013,001,1,28,m,2021_Nov_10_1137,eye_tracking_exp,2021.2.3,84.84868973737237,
12,0,0,12,0,0,90,180,180,0,j,present,resp,pract,0,21,21,38,,,,,,,1.0333339948441322,258.80518556170864,None,258.80518556170864,None,j,1,1.2192871909801397,,,,,,,,,,,,013,001,1,28,m,2021_Nov_10_1137,eye_tracking_exp,2021.2.3,84.84868973737237,
12,0,0,12,0,0,180,0,180,180,j,abs,resp,pract,0,22,22,6,,,,,,,0.8673193386153988,261.13492252264496,None,261.13492252264496,None,j,1,1.289536888531984,,,,,,,,,,,,013,001,1,28,m,2021_Nov_10_1137,eye_tracking_exp,2021.2.3,84.84868973737237,
0,168,180,90,0,180,0,168,0,0,f,present,resp,pract,0,23,23,48,,,,,,,1.0808236743341686,263.78231422700173,None,263.78231422700173,None,f,1,2.465240668345359,,,,,,,,,,,,013,001,1,28,m,2021_Nov_10_1137,eye_tracking_exp,2021.2.3,84.84868973737237,
90,0,0,12,0,180,180,180,0,12,j,present,resp,pract,0,24,24,36,,,,,,,0.7304605138890019,267.4182391740578,None,267.4182391740578,None,j,1,1.213575696029693,,,,,,,,,,,,013,001,1,28,m,2021_Nov_10_1137,eye_tracking_exp,2021.2.3,84.84868973737237,
0,0,0,-168,0,12,0,0,0,0,None,abs,inhibit,pract,0,25,25,21,,,,,,,0.7056670720755477,269.87748296995323,None,269.87748296995323,None,None,1,,,,,,,,,,,,,013,001,1,28,m,2021_Nov_10_1137,eye_tracking_exp,2021.2.3,84.84868973737237,
180,168,0,180,0,180,180,180,168,180,f,abs,resp,pract,0,26,26,12,,,,,,,0.7304228937790692,273.73752840353427,None,273.73752840353427,None,f,1,1.1179520739478903,,,,,,,,,,,,013,001,1,28,m,2021_Nov_10_1137,eye_tracking_exp,2021.2.3,84.84868973737237,
180,0,180,12,0,180,180,0,12,180,j,abs,resp,pract,0,27,27,3,,,,,,,0.7255738553317673,275.99663021194374,None,275.99663021194374,None,j,1,1.2589676225443327,,,,,,,,,,,,013,001,1,28,m,2021_Nov_10_1137,eye_tracking_exp,2021.2.3,84.84868973737237,
0,180,180,180,12,0,180,12,0,0,j,abs,resp,pract,0,28,28,8,,,,,,,1.0956838839360918,278.8793278413805,None,278.8793278413805,None,j,1,1.1916171380244123,,,,,,,,,,,,013,001,1,28,m,2021_Nov_10_1137,eye_tracking_exp,2021.2.3,84.84868973737237,
0,0,180,0,168,0,0,0,180,168,f,abs,resp,pract,0,29,29,17,,,,,,,0.8369356311906669,281.4328348477866,None,281.4328348477866,None,f,1,1.4699766030116734,,,,,,,,,,,,013,001,1,28,m,2021_Nov_10_1137,eye_tracking_exp,2021.2.3,84.84868973737237,
180,180,0,168,180,180,180,0,0,168,f,abs,resp,pract,0,30,30,18,,,,,,,1.0086555840772269,283.9526521234138,None,283.9526521234138,None,f,1,1.0778961482656086,,,,,,,,,,,,013,001,1,28,m,2021_Nov_10_1137,eye_tracking_exp,2021.2.3,84.84868973737237,
180,270,0,0,168,0,0,168,180,0,f,present,resp,pract,0,31,31,45,,,,,,,0.7101879384729773,296.3518660608861,None,296.3518660608861,None,f,1,1.0617782745030127,,,,,,,,,,,,013,001,1,28,m,2021_Nov_10_1137,eye_tracking_exp,2021.2.3,84.84868973737237,
168,0,180,0,0,180,180,0,168,0,f,abs,resp,pract,0,32,32,13,,,,,,,0.8617212377917894,298.7283278920895,None,298.7283278920895,None,f,1,1.0212928245991861,,,,,,,,,,,,013,001,1,28,m,2021_Nov_10_1137,eye_tracking_exp,2021.2.3,84.84868973737237,
0,0,0,-168,180,180,180,180,0,12,None,abs,inhibit,pract,0,33,33,25,,,,,,,0.8216773054083023,300.88163845832514,None,300.88163845832514,None,None,1,,,,,,,,,,,,,013,001,1,28,m,2021_Nov_10_1137,eye_tracking_exp,2021.2.3,84.84868973737237,
0,0,168,0,0,0,0,0,168,0,f,abs,resp,pract,0,34,34,11,,,,,,,0.9640417155157885,305.38858147739484,None,305.38858147739484,None,f,1,1.0170117690622646,,,,,,,,,,,,013,001,1,28,m,2021_Nov_10_1137,eye_tracking_exp,2021.2.3,84.84868973737237,
0,180,180,180,168,0,0,0,0,12,None,abs,inhibit,pract,0,35,35,31,,,,,,,0.9281174658492471,307.8837682706262,None,307.8837682706262,None,None,1,,,,,,,,,,,,,013,001,1,28,m,2021_Nov_10_1137,eye_tracking_exp,2021.2.3,84.84868973737237,
180,12,180,-168,180,180,0,180,180,180,None,abs,inhibit,pract,0,36,36,26,,,,,,,0.9483725536673748,311.84062900698154,None,311.84062900698154,None,None,1,,,,,,,,,,,,,013,001,1,28,m,2021_Nov_10_1137,eye_tracking_exp,2021.2.3,84.84868973737237,
0,270,0,0,12,0,0,12,0,0,j,present,resp,pract,0,37,37,40,,,,,,,0.7095735191011581,315.5697000393611,None,315.5697000393611,None,j,1,1.3789681779371676,,,,,,,,,,,,013,001,1,28,m,2021_Nov_10_1137,eye_tracking_exp,2021.2.3,84.84868973737237,
0,180,0,180,168,180,12,180,0,180,None,abs,inhibit,pract,0,38,38,28,,,,,,,0.7905381331960594,318.029140335796,None,318.029140335796,None,None,1,,,,,,,,,,,,,013,001,1,28,m,2021_Nov_10_1137,eye_tracking_exp,2021.2.3,84.84868973737237,
180,12,180,12,180,90,180,180,0,180,j,present,resp,pract,0,39,39,37,,,,,,,1.0199696789735708,322.077509351132,None,322.077509351132,None,j,1,0.8230708677310759,,,,,,,,,,,,013,001,1,28,m,2021_Nov_10_1137,eye_tracking_exp,2021.2.3,84.84868973737237,
180,180,168,0,270,0,0,168,0,180,f,present,resp,pract,0,40,40,47,,,,,,,0.9639841845921109,324.23068106905976,None,324.23068106905976,None,f,1,2.333996116632079,,,,,,,,,,,,013,001,1,28,m,2021_Nov_10_1137,eye_tracking_exp,2021.2.3,84.84868973737237,
0,180,0,12,0,180,180,12,0,0,j,abs,resp,pract,0,41,41,2,,,,,,,1.0501888928143415,328.1259674104913,None,328.1259674104913,None,j,1,1.541800115945989,,,,,,,,,,,,013,001,1,28,m,2021_Nov_10_1137,eye_tracking_exp,2021.2.3,84.84868973737237,
0,180,0,0,180,0,180,168,0,168,f,abs,resp,pract,0,42,42,14,,,,,,,0.9990068785451744,331.1266462579779,None,331.1266462579779,None,f,1,1.533257021053032,,,,,,,,,,,,013,001,1,28,m,2021_Nov_10_1137,eye_tracking_exp,2021.2.3,84.84868973737237,
180,0,180,0,12,0,12,180,180,180,j,abs,resp,pract,0,43,43,7,,,,,,,0.8597706192587958,334.1035494456937,None,334.1035494456937,None,j,1,1.0681634855891389,,,,,,,,,,,,013,001,1,28,m,2021_Nov_10_1137,eye_tracking_exp,2021.2.3,84.84868973737237,
0,270,0,0,12,0,180,180,180,12,j,present,resp,pract,0,44,44,42,,,,,,,1.0420784889043646,336.43307209728573,None,336.43307209728573,None,j,1,1.186651499961954,,,,,,,,,,,,013,001,1,28,m,2021_Nov_10_1137,eye_tracking_exp,2021.2.3,84.84868973737237,
0,180,0,0,180,168,180,0,0,168,f,abs,resp,pract,0,45,45,16,,,,,,,0.8520308936072761,338.9047084064805,None,338.9047084064805,None,f,1,1.3392361310234264,,,,,,,,,,,,013,001,1,28,m,2021_Nov_10_1137,eye_tracking_exp,2021.2.3,84.84868973737237,
0,0,168,0,0,0,0,0,180,168,f,abs,resp,pract,0,46,46,19,,,,,,,0.9775495399699972,341.6004190200456,None,341.6004190200456,None,f,1,1.2343809075509853,,,,,,,,,,,,013,001,1,28,m,2021_Nov_10_1137,eye_tracking_exp,2021.2.3,84.84868973737237,
90,0,180,180,180,168,0,168,0,0,f,present,resp,pract,0,47,47,44,,,,,,,0.914908579422614,344.19954735451756,None,344.19954735451756,None,f,1,0.8271907384942097,,,,,,,,,,,,013,001,1,28,m,2021_Nov_10_1137,eye_tracking_exp,2021.2.3,84.84868973737237,
180,180,0,168,180,180,180,180,168,180,f,abs,resp,pract,0,48,48,10,,,,,,,0.8288296455228823,346.30579981454775,None,346.30579981454775,None,f,1,0.6729426443371267,,,,,,,,,,,,013,001,1,28,m,2021_Nov_10_1137,eye_tracking_exp,2021.2.3,84.84868973737237,
90,0,0,12,0,12,180,180,180,0,j,present,resp,pract,0,49,49,32,,,,,,,0.8622612558610676,348.2944021795565,None,348.2944021795565,None,j,1,0.988022053495115,,,,,,,,,,,,013,001,1,28,m,2021_Nov_10_1137,eye_tracking_exp,2021.2.3,84.84868973737237,
,,,,,,,,,,,,,,,,,,,,,,,,,,,,,,,,space,5.758108272257232,,,,,,,,,,013,001,1,28,m,2021_Nov_10_1137,eye_tracking_exp,2021.2.3,84.84868973737237,
0,0,0,0,168,0,0,168,0,0,f,abs,resp,freq_top,,,,,0,0,0,218,,,1.0039204937233916,,,,,,,,,,357.4714920276929,None,357.4714920276929,None,f,1,1.1552096025452556,None,None,013,001,1,28,m,2021_Nov_10_1137,eye_tracking_exp,2021.2.3,84.84868973737237,
0,0,-168,0,90,168,0,180,180,180,f,present,resp,freq_top,,,,,0,1,1,872,,,0.9111266838659755,,,,,,,,,,360.0245378162426,None,360.0245378162426,None,f,1,2.7292806469986317,None,None,013,001,1,28,m,2021_Nov_10_1137,eye_tracking_exp,2021.2.3,84.84868973737237,
0,0,180,180,0,180,168,0,-168,0,f,abs,resp,freq_top,,,,,0,2,2,385,,,0.8772469304638726,,,,,,,,,,364.07220896791114,None,364.07220896791114,None,f,1,1.2736429831265923,None,None,013,001,1,28,m,2021_Nov_10_1137,eye_tracking_exp,2021.2.3,84.84868973737237,
270,180,180,-168,180,0,180,180,-168,180,f,present,resp,freq_top,,,,,0,3,3,787,,,0.7338417167104055,,,,,,,,,,366.5208269442992,None,366.5208269442992,None,f,1,1.5779411230423648,None,None,013,001,1,28,m,2021_Nov_10_1137,eye_tracking_exp,2021.2.3,84.84868973737237,
270,180,0,-12,180,180,0,180,0,-12,j,present,resp,freq_top,,,,,0,4,4,620,,,0.9172651919676296,,,,,,,,,,369.8028257441674,None,369.8028257441674,None,j,1,1.830940548331455,None,None,013,001,1,28,m,2021_Nov_10_1137,eye_tracking_exp,2021.2.3,84.84868973737237,
0,-12,0,0,-12,180,180,180,0,270,j,present,resp,freq_top,,,,,0,5,5,586,,,0.7841166926529616,,,,,,,,,,373.1471411737157,None,373.1471411737157,None,j,1,1.2856983365145425,None,None,013,001,1,28,m,2021_Nov_10_1137,eye_tracking_exp,2021.2.3,84.84868973737237,
0,0,-12,0,0,0,0,0,180,12,j,abs,resp,freq_top,,,,,0,6,6,187,,,0.8440064661076793,,,,,,,,,,375.7345175081682,None,375.7345175081682,None,j,1,1.6582624542479607,None,None,013,001,1,28,m,2021_Nov_10_1137,eye_tracking_exp,2021.2.3,84.84868973737237,
180,0,0,180,180,-168,180,0,12,180,None,abs,inhibit,freq_top,,,,,0,7,7,435,,,1.0533184800297999,,,,,,,,,,379.31174886084045,None,379.31174886084045,None,None,1,,None,None,013,001,1,28,m,2021_Nov_10_1137,eye_tracking_exp,2021.2.3,84.84868973737237,
90,0,0,168,0,0,-168,180,180,180,f,present,resp,freq_top,,,,,0,8,8,878,,,0.7592054965424586,,,,,,,,,,383.079141120591,None,383.079141120591,None,f,1,2.0902548550193387,None,None,013,001,1,28,m,2021_Nov_10_1137,eye_tracking_exp,2021.2.3,84.84868973737237,
180,0,180,180,-168,90,0,168,180,180,f,present,resp,freq_top,,,,,0,9,9,884,,,0.7987961451986221,,,,,,,,,,386.40819832850866,None,386.40819832850866,None,f,1,1.4011365176256732,None,None,013,001,1,28,m,2021_Nov_10_1137,eye_tracking_exp,2021.2.3,84.84868973737237,
180,0,12,0,180,180,180,12,180,180,j,abs,resp,freq_top,,,,,0,10,10,32,,,0.9404990870205754,,,,,,,,,,389.1848502611556,None,389.1848502611556,None,j,1,1.4872040558566368,None,None,013,001,1,28,m,2021_Nov_10_1137,eye_tracking_exp,2021.2.3,84.84868973737237,
180,180,180,270,180,180,168,180,168,180,f,present,resp,freq_top,,,,,0,11,11,735,,,1.0258467388139088,,,,,,,,,,392.1515158009379,None,392.1515158009379,None,f,1,1.385408626501885,None,None,013,001,1,28,m,2021_Nov_10_1137,eye_tracking_exp,2021.2.3,84.84868973737237,
0,180,-168,0,180,0,180,-168,180,180,f,abs,resp,freq_top,,,,,0,12,12,332,,,1.0547535900292293,,,,,,,,,,394.997852680739,None,394.997852680739,None,f,1,1.4500373823484551,None,None,013,001,1,28,m,2021_Nov_10_1137,eye_tracking_exp,2021.2.3,84.84868973737237,
0,0,-168,0,0,0,0,0,-168,0,f,abs,resp,freq_top,,,,,0,13,13,319,,,0.711355193922492,,,,,,,,,,397.38818485418597,None,397.38818485418597,None,f,1,1.1878389548364794,None,None,013,001,1,28,m,2021_Nov_10_1137,eye_tracking_exp,2021.2.3,84.84868973737237,
168,0,168,180,0,0,180,180,0,180,f,abs,resp,freq_top,,,,,0,14,14,273,,,0.93591426324688,,,,,,,,,,399.5636444420834,None,399.5636444420834,None,f,1,1.5562358122760998,None,None,013,001,1,28,m,2021_Nov_10_1137,eye_tracking_exp,2021.2.3,84.84868973737237,
0,270,0,0,0,12,0,-12,0,0,j,present,resp,freq_top,,,,,0,15,15,658,,,0.7668559722653365,,,,,,,,,,402.2941628171484,None,402.2941628171484,None,j,1,1.3069801599422135,None,None,013,001,1,28,m,2021_Nov_10_1137,eye_tracking_exp,2021.2.3,84.84868973737237,
0,0,0,0,168,180,180,180,0,12,None,abs,inhibit,freq_top,,,,,0,16,16,500,,,0.8773690281755597,,,,,,,,,,404.8830725198677,None,404.8830725198677,None,None,1,,None,None,013,001,1,28,m,2021_Nov_10_1137,eye_tracking_exp,2021.2.3,84.84868973737237,
180,180,0,180,180,180,180,12,0,-168,None,abs,inhibit,freq_top,,,,,0,17,17,462,,,1.0968899232949882,,,,,,,,,,409.00213886762594,None,409.00213886762594,None,None,1,,None,None,013,001,1,28,m,2021_Nov_10_1137,eye_tracking_exp,2021.2.3,84.84868973737237,
180,-12,180,0,180,0,-12,0,180,180,j,abs,resp,freq_top,,,,,0,18,18,129,,,0.9619809919013096,,,,,,,,,,413.0878961100743,None,413.0878961100743,None,j,1,0.9747940355973697,None,None,013,001,1,28,m,2021_Nov_10_1137,eye_tracking_exp,2021.2.3,84.84868973737237,
0,168,0,270,0,0,0,168,0,0,f,present,resp,freq_top,,,,,0,19,19,774,,,0.7813523379187278,,,,,,,,,,415.6399506424459,None,415.6399506424459,None,f,1,1.4002388331318798,None,None,013,001,1,28,m,2021_Nov_10_1137,eye_tracking_exp,2021.2.3,84.84868973737237,
270,0,168,0,0,0,168,0,0,0,f,present,resp,freq_top,,,,,0,20,20,765,,,0.8414633833664257,,,,,,,,,,418.146482247942,None,418.146482247942,None,f,1,1.5004362995732663,None,None,013,001,1,28,m,2021_Nov_10_1137,eye_tracking_exp,2021.2.3,84.84868973737237,
0,0,0,168,0,168,0,0,0,0,f,abs,resp,freq_top,,,,,0,21,21,210,,,0.9289050242955965,,,,,,,,,,421.0413363485559,None,421.0413363485559,None,f,1,1.437840765900546,None,None,013,001,1,28,m,2021_Nov_10_1137,eye_tracking_exp,2021.2.3,84.84868973737237,
-12,0,12,180,90,180,180,0,180,180,j,present,resp,freq_top,,,,,0,22,22,707,,,0.8500436789919747,,,,,,,,,,423.6186153926028,None,423.6186153926028,None,j,1,1.4672995472719776,None,None,013,001,1,28,m,2021_Nov_10_1137,eye_tracking_exp,2021.2.3,84.84868973737237,
0,270,180,180,180,12,0,0,0,12,j,present,resp,freq_top,,,,,0,23,23,520,,,0.7428841764540148,,,,,,,,,,426.1367245322026,None,426.1367245322026,None,j,1,1.173231509186735,None,None,013,001,1,28,m,2021_Nov_10_1137,eye_tracking_exp,2021.2.3,84.84868973737237,
0,12,0,0,0,0,-12,0,0,0,j,abs,resp,freq_top,,,,,0,24,24,166,,,0.9393845443187717,,,,,,,,,,428.6910238794944,None,428.6910238794944,None,j,1,1.2920793217817845,None,None,013,001,1,28,m,2021_Nov_10_1137,eye_tracking_exp,2021.2.3,84.84868973737237,
180,12,180,180,-12,0,0,0,180,180,j,abs,resp,freq_top,,,,,0,25,25,197,,,0.7744071830925392,,,,,,,,,,431.23199016712533,None,431.23199016712533,None,j,1,0.7979269484412725,None,None,013,001,1,28,m,2021_Nov_10_1137,eye_tracking_exp,2021.2.3,84.84868973737237,
180,0,-168,180,-168,0,180,180,0,180,f,abs,resp,freq_top,,,,,0,26,26,291,,,0.8495352139350132,,,,,,,,,,433.18500389982637,None,433.18500389982637,None,f,1,1.1185886632538313,None,None,013,001,1,28,m,2021_Nov_10_1137,eye_tracking_exp,2021.2.3,84.84868973737237,
180,0,180,-12,180,180,-12,180,180,180,j,abs,resp,freq_top,,,,,0,27,27,71,,,1.0836289785220468,,,,,,,,,,435.89135572694977,None,435.89135572694977,None,j,1,1.1136981843847025,None,None,013,001,1,28,m,2021_Nov_10_1137,eye_tracking_exp,2021.2.3,84.84868973737237,
90,0,0,12,0,0,0,12,0,0,j,present,resp,freq_top,,,,,0,28,28,506,,,0.9961975673870449,,,,,,,,,,438.5034265347567,None,438.5034265347567,None,j,1,0.8375279949959804,None,None,013,001,1,28,m,2021_Nov_10_1137,eye_tracking_exp,2021.2.3,84.84868973737237,
0,270,0,0,-168,0,0,-168,0,0,f,present,resp,freq_top,,,,,0,29,29,792,,,1.096967552475727,,,,,,,,,,440.7506984673564,None,440.7506984673564,None,f,1,1.5022863023505124,None,None,013,001,1,28,m,2021_Nov_10_1137,eye_tracking_exp,2021.2.3,84.84868973737237,
270,0,180,-168,180,180,180,-168,0,0,f,present,resp,freq_top,,,,,0,30,30,815,,,1.0074423863007067,,,,,,,,,,443.7396832689001,None,443.7396832689001,None,f,1,0.8652819606240882,None,None,013,001,1,28,m,2021_Nov_10_1137,eye_tracking_exp,2021.2.3,84.84868973737237,
180,180,0,0,0,0,0,12,0,-12,j,abs,resp,freq_top,,,,,0,31,31,168,,,0.8176313392537573,,,,,,,,,,445.4816210117333,None,445.4816210117333,None,j,1,1.859395697912987,None,None,013,001,1,28,m,2021_Nov_10_1137,eye_tracking_exp,2021.2.3,84.84868973737237,
90,180,180,-12,180,0,-12,180,0,0,j,present,resp,freq_top,,,,,0,32,32,575,,,1.0131491770460768,,,,,,,,,,448.57680816717857,None,448.57680816717857,None,j,1,1.020148231593339,None,None,013,001,1,28,m,2021_Nov_10_1137,eye_tracking_exp,2021.2.3,84.84868973737237,
0,0,180,180,180,168,0,-168,0,0,f,abs,resp,freq_top,,,,,0,33,33,364,,,0.8441430372864488,,,,,,,,,,450.86032252650875,None,450.86032252650875,None,j,0,1.8718540132367707,452.75456539272363,None,013,001,1,28,m,2021_Nov_10_1137,eye_tracking_exp,2021.2.3,84.84868973737237,
90,0,180,0,180,180,12,0,180,-168,None,present,inhibit,freq_top,,,,,0,34,34,967,,,0.8682273802480419,,,,,,,,,,454.17802888527785,None,454.17802888527785,None,None,1,,None,None,013,001,1,28,m,2021_Nov_10_1137,eye_tracking_exp,2021.2.3,84.84868973737237,
12,0,12,180,270,180,180,0,180,180,j,present,resp,freq_top,,,,,0,35,35,567,,,0.8212280795354332,,,,,,,,,,458.5438673117278,None,458.5438673117278,None,j,1,1.1481733136342882,None,None,013,001,1,28,m,2021_Nov_10_1137,eye_tracking_exp,2021.2.3,84.84868973737237,
0,0,0,0,-12,0,0,0,180,-12,j,abs,resp,freq_top,,,,,0,36,36,115,,,1.0967901007985077,,,,,,,,,,461.2852146474106,None,461.2852146474106,None,j,1,0.7269555415341529,None,None,013,001,1,28,m,2021_Nov_10_1137,eye_tracking_exp,2021.2.3,84.84868973737237,
180,90,0,180,180,-168,180,180,0,-168,f,present,resp,freq_top,,,,,0,37,37,828,,,0.8328032668992648,,,,,,,,,,463.0971986448412,None,463.0971986448412,None,f,1,1.5078770596419417,None,None,013,001,1,28,m,2021_Nov_10_1137,eye_tracking_exp,2021.2.3,84.84868973737237,
168,180,0,90,0,168,0,180,180,180,f,present,resp,freq_top,,,,,0,38,38,780,,,0.9729157367265608,,,,,,,,,,465.9923877924575,None,465.9923877924575,None,f,1,1.5067529920370362,None,None,013,001,1,28,m,2021_Nov_10_1137,eye_tracking_exp,2021.2.3,84.84868973737237,
0,180,0,-168,0,180,0,180,0,-168,f,abs,resp,freq_top,,,,,0,39,39,326,,,0.970746840977285,,,,,,,,,,468.81800820291664,None,468.81800820291664,None,f,1,0.8251028825288813,None,None,013,001,1,28,m,2021_Nov_10_1137,eye_tracking_exp,2021.2.3,84.84868973737237,
90,180,12,180,-12,180,0,180,180,180,j,present,resp,freq_top,,,,,0,40,40,655,,,0.9096224305967346,,,,,,,,,,470.6408341402639,None,470.6408341402639,None,j,1,1.14618687730308,None,None,013,001,1,28,m,2021_Nov_10_1137,eye_tracking_exp,2021.2.3,84.84868973737237,
180,180,180,180,168,180,180,180,168,180,f,abs,resp,freq_top,,,,,0,41,41,219,,,1.0563565858470962,,,,,,,,,,473.29007343264493,None,473.29007343264493,None,f,1,1.3786904813223373,None,None,013,001,1,28,m,2021_Nov_10_1137,eye_tracking_exp,2021.2.3,84.84868973737237,
180,90,180,-168,180,12,0,0,0,0,None,present,inhibit,freq_top,,,,,0,42,42,924,,,0.7647515705812387,,,,,,,,,,481.33690032623326,None,481.33690032623326,None,None,1,,None,None,013,001,1,28,m,2021_Nov_10_1137,eye_tracking_exp,2021.2.3,84.84868973737237,
90,180,180,180,-12,180,0,180,12,180,j,present,resp,freq_top,,,,,0,43,43,653,,,0.7800716482518283,,,,,,,,,,485.16143349407594,None,485.16143349407594,None,j,1,2.1446583385422855,None,None,013,001,1,28,m,2021_Nov_10_1137,eye_tracking_exp,2021.2.3,84.84868973737237,
180,180,0,168,180,180,180,180,168,180,f,abs,resp,freq_top,,,,,0,44,44,248,,,1.0469831323391319,,,,,,,,,,488.8691348663797,None,488.8691348663797,None,f,1,1.6049383653953555,None,None,013,001,1,28,m,2021_Nov_10_1137,eye_tracking_exp,2021.2.3,84.84868973737237,
0,0,0,0,0,0,-168,0,180,-168,f,abs,resp,freq_top,,,,,0,45,45,323,,,1.0508643393817714,,,,,,,,,,492.0579875809244,None,492.0579875809244,None,f,1,1.3120837407805084,None,None,013,001,1,28,m,2021_Nov_10_1137,eye_tracking_exp,2021.2.3,84.84868973737237,
90,0,-12,0,-12,0,0,0,0,0,j,present,resp,freq_top,,,,,0,46,46,623,,,0.74499298877801,,,,,,,,,,494.1882191436807,None,494.1882191436807,None,j,1,1.453888309976719,None,None,013,001,1,28,m,2021_Nov_10_1137,eye_tracking_exp,2021.2.3,84.84868973737237,
90,0,0,180,180,180,-168,0,0,168,f,present,resp,freq_top,,,,,0,47,47,876,,,0.9553040210288217,,,,,,,,,,497.0243881015458,None,497.0243881015458,None,f,1,1.1137144839685789,None,None,013,001,1,28,m,2021_Nov_10_1137,eye_tracking_exp,2021.2.3,84.84868973737237,
180,180,-12,0,0,0,0,-12,180,0,j,abs,resp,freq_top,,,,,0,48,48,102,,,0.8745896040031245,,,,,,,,,,499.3306826386497,None,499.3306826386497,None,j,1,1.4471674481983428,None,None,013,001,1,28,m,2021_Nov_10_1137,eye_tracking_exp,2021.2.3,84.84868973737237,
0,0,0,0,270,-168,0,0,0,-168,f,present,resp,freq_top,,,,,0,49,49,800,,,1.0989636304394663,,,,,,,,,,502.4262655117709,None,502.4262655117709,None,f,1,0.7189624066768374,None,None,013,001,1,28,m,2021_Nov_10_1137,eye_tracking_exp,2021.2.3,84.84868973737237,
90,0,0,12,0,180,180,180,0,12,j,present,resp,freq_top,,,,,0,50,50,508,,,0.8089698434078084,,,,,,,,,,504.3311248403252,None,504.3311248403252,None,j,1,1.8382829072070308,None,None,013,001,1,28,m,2021_Nov_10_1137,eye_tracking_exp,2021.2.3,84.84868973737237,
0,0,180,0,12,0,0,0,180,-168,None,abs,inhibit,freq_top,,,,,0,51,51,465,,,0.9617630188652602,,,,,,,,,,507.2149782310007,None,507.2149782310007,None,None,1,,None,None,013,001,1,28,m,2021_Nov_10_1137,eye_tracking_exp,2021.2.3,84.84868973737237,
90,180,180,0,180,-168,180,0,12,180,None,present,inhibit,freq_top,,,,,0,52,52,939,,,0.7428956237671931,,,,,,,,,,510.98066205287887,None,510.98066205287887,None,None,1,,None,None,013,001,1,28,m,2021_Nov_10_1137,eye_tracking_exp,2021.2.3,84.84868973737237,
270,0,168,0,168,0,180,180,180,180,f,present,resp,freq_top,,,,,0,53,53,763,,,0.8890656867783732,,,,,,,,,,514.8759818990102,None,514.8759818990102,None,f,1,1.324269188994549,None,None,013,001,1,28,m,2021_Nov_10_1137,eye_tracking_exp,2021.2.3,84.84868973737237,
168,0,180,180,0,180,-168,180,180,180,f,abs,resp,freq_top,,,,,0,54,54,377,,,0.7240447248921753,,,,,,,,,,517.2887332446317,None,517.2887332446317,None,f,1,1.3600606605696157,None,None,013,001,1,28,m,2021_Nov_10_1137,eye_tracking_exp,2021.2.3,84.84868973737237,
180,180,270,180,168,180,180,180,12,180,None,present,inhibit,freq_top,,,,,0,55,55,933,,,0.8355432231776077,,,,,,,,,,519.7241337676669,None,519.7241337676669,None,None,1,,None,None,013,001,1,28,m,2021_Nov_10_1137,eye_tracking_exp,2021.2.3,84.84868973737237,
0,270,180,180,180,168,0,0,0,168,f,present,resp,freq_top,,,,,0,56,56,730,,,0.948384030322874,,,,,,,,,,523.983913216186,None,523.983913216186,None,f,1,0.840293792914963,None,None,013,001,1,28,m,2021_Nov_10_1137,eye_tracking_exp,2021.2.3,84.84868973737237,
0,168,0,270,0,-168,180,180,0,0,f,present,resp,freq_top,,,,,0,57,57,912,,,0.849007352219005,,,,,,,,,,526.196236727913,None,526.196236727913,None,f,1,1.4618246981335687,None,None,013,001,1,28,m,2021_Nov_10_1137,eye_tracking_exp,2021.2.3,84.84868973737237,
0,90,0,-168,0,-168,0,0,0,0,f,present,resp,freq_top,,,,,0,58,58,784,,,0.9714694892091845,,,,,,,,,,529.0676493102264,None,529.0676493102264,None,f,1,0.828539981830545,None,None,013,001,1,28,m,2021_Nov_10_1137,eye_tracking_exp,2021.2.3,84.84868973737237,
270,180,180,180,-168,180,180,180,168,180,f,present,resp,freq_top,,,,,0,59,59,863,,,1.0248981486620565,,,,,,,,,,531.3622114671807,None,531.3622114671807,None,None,0,,534.339696006723,None,013,001,1,28,m,2021_Nov_10_1137,eye_tracking_exp,2021.2.3,84.84868973737237,
12,180,180,180,180,0,0,-168,180,180,None,abs,inhibit,freq_top,,,,,0,60,60,454,,,0.8182674991776926,,,,,,,,,,535.692581998981,None,535.692581998981,None,None,1,,None,None,013,001,1,28,m,2021_Nov_10_1137,eye_tracking_exp,2021.2.3,84.84868973737237,
0,0,180,0,180,-168,0,168,0,270,f,present,resp,freq_top,,,,,0,61,61,883,,,0.717886178481094,,,,,,,,,,539.4131310655584,None,539.4131310655584,None,f,1,2.514112857874352,None,None,013,001,1,28,m,2021_Nov_10_1137,eye_tracking_exp,2021.2.3,84.84868973737237,
-12,0,0,12,0,270,0,0,0,0,j,present,resp,freq_top,,,,,0,62,62,650,,,0.9271551832834938,,,,,,,,,,543.118086863502,None,543.118086863502,None,j,1,1.1924269858700427,None,None,013,001,1,28,m,2021_Nov_10_1137,eye_tracking_exp,2021.2.3,84.84868973737237,
-168,0,0,180,180,180,-168,180,0,0,f,abs,resp,freq_top,,,,,0,63,63,347,,,0.877285580393403,,,,,,,,,,545.4592818282581,None,545.4592818282581,None,f,1,0.9312838054956956,None,None,013,001,1,28,m,2021_Nov_10_1137,eye_tracking_exp,2021.2.3,84.84868973737237,
0,0,0,168,0,0,168,0,0,0,f,abs,resp,freq_top,,,,,0,64,64,234,,,0.7638588031866824,,,,,,,,,,547.6832951601109,None,547.6832951601109,None,f,1,0.8989107188854177,None,None,013,001,1,28,m,2021_Nov_10_1137,eye_tracking_exp,2021.2.3,84.84868973737237,
90,180,0,168,180,0,180,0,-168,180,f,present,resp,freq_top,,,,,0,65,65,857,,,0.8994067272009315,,,,,,,,,,549.8612340958325,None,549.8612340958325,None,f,1,1.009033726412781,None,None,013,001,1,28,m,2021_Nov_10_1137,eye_tracking_exp,2021.2.3,84.84868973737237,
0,0,180,12,0,0,180,-168,0,0,None,abs,inhibit,freq_top,,,,,0,66,66,451,,,1.0651151618100017,,,,,,,,,,552.3308332588786,None,552.3308332588786,None,None,1,,None,None,013,001,1,28,m,2021_Nov_10_1137,eye_tracking_exp,2021.2.3,84.84868973737237,
0,0,0,0,180,12,0,12,0,0,j,abs,resp,freq_top,,,,,0,67,67,29,,,0.9535289729645133,,,,,,,,,,556.4856304075383,None,556.4856304075383,None,j,1,0.8007057256590997,None,None,013,001,1,28,m,2021_Nov_10_1137,eye_tracking_exp,2021.2.3,84.84868973737237,
-12,0,90,180,180,180,0,-12,180,180,j,present,resp,freq_top,,,,,0,68,68,608,,,0.8601760629078693,,,,,,,,,,558.5445241245916,None,558.5445241245916,None,j,1,0.9817379601990979,None,None,013,001,1,28,m,2021_Nov_10_1137,eye_tracking_exp,2021.2.3,84.84868973737237,
12,180,180,12,0,0,180,180,180,90,j,present,resp,freq_top,,,,,0,69,69,568,,,1.0241836042528984,,,,,,,,,,560.8632914655382,None,560.8632914655382,None,j,1,0.9340293798568382,None,None,013,001,1,28,m,2021_Nov_10_1137,eye_tracking_exp,2021.2.3,84.84868973737237,
180,90,0,-168,180,0,0,180,0,168,f,present,resp,freq_top,,,,,0,70,70,900,,,0.72453348144352,,,,,,,,,,562.8510420263647,None,562.8510420263647,None,f,1,2.386189799153726,None,None,013,001,1,28,m,2021_Nov_10_1137,eye_tracking_exp,2021.2.3,84.84868973737237,
-12,0,180,0,0,0,0,0,-12,0,j,abs,resp,freq_top,,,,,0,71,71,111,,,0.943617909461218,,,,,,,,,,566.6297884555488,None,566.6297884555488,None,j,1,1.1355369102639088,None,None,013,001,1,28,m,2021_Nov_10_1137,eye_tracking_exp,2021.2.3,84.84868973737237,
-12,0,180,180,180,180,180,12,180,180,j,abs,resp,freq_top,,,,,0,72,72,174,,,0.8323848484847188,,,,,,,,,,568.9833309588266,None,568.9833309588266,None,j,1,0.8940120902234412,None,None,013,001,1,28,m,2021_Nov_10_1137,eye_tracking_exp,2021.2.3,84.84868973737237,
0,180,-12,0,0,180,180,-12,0,180,j,abs,resp,freq_top,,,,,0,73,73,122,,,0.9331367832057106,,,,,,,,,,570.8659636917719,None,570.8659636917719,None,j,1,0.8193249818659751,None,None,013,001,1,28,m,2021_Nov_10_1137,eye_tracking_exp,2021.2.3,84.84868973737237,
0,270,0,-12,0,180,180,180,180,-12,j,present,resp,freq_top,,,,,0,74,74,578,,,0.878119844494063,,,,,,,,,,572.8662302201537,None,572.8662302201537,None,j,1,1.3630688393386663,None,None,013,001,1,28,m,2021_Nov_10_1137,eye_tracking_exp,2021.2.3,84.84868973737237,
0,180,168,180,90,180,180,168,180,180,f,present,resp,freq_top,,,,,0,75,75,766,,,1.0756916386399307,,,,,,,,,,576.008410283468,None,576.008410283468,None,f,1,1.21199856036219,None,None,013,001,1,28,m,2021_Nov_10_1137,eye_tracking_exp,2021.2.3,84.84868973737237,
0,0,12,0,270,0,0,0,12,0,j,present,resp,freq_top,,,,,0,76,76,543,,,0.9142135558768392,,,,,,,,,,578.6671911711801,None,578.6671911711801,None,j,1,0.7610944164034663,None,None,013,001,1,28,m,2021_Nov_10_1137,eye_tracking_exp,2021.2.3,84.84868973737237,
180,180,0,180,-12,0,180,180,-12,180,j,abs,resp,freq_top,,,,,0,77,77,79,,,1.0328696571880374,,,,,,,,,,580.5394226566632,None,580.5394226566632,None,j,1,1.192899975648288,None,None,013,001,1,28,m,2021_Nov_10_1137,eye_tracking_exp,2021.2.3,84.84868973737237,
180,180,90,180,-12,180,-12,180,180,180,j,present,resp,freq_top,,,,,0,78,78,581,,,0.8229984358573165,,,,,,,,,,583.0323392800656,None,583.0323392800656,None,j,1,0.7479720439569064,None,None,013,001,1,28,m,2021_Nov_10_1137,eye_tracking_exp,2021.2.3,84.84868973737237,
0,0,180,180,168,0,0,0,-168,0,f,abs,resp,freq_top,,,,,0,79,79,387,,,0.9073849213965168,,,,,,,,,,585.1506987088314,None,585.1506987088314,None,f,1,0.7908465902855824,None,None,013,001,1,28,m,2021_Nov_10_1137,eye_tracking_exp,2021.2.3,84.84868973737237,
-168,0,-168,0,270,0,0,0,180,180,f,present,resp,freq_top,,,,,0,80,80,839,,,0.7367229377542612,,,,,,,,,,587.104134721495,None,587.104134721495,None,f,1,0.9652617974352324,None,None,013,001,1,28,m,2021_Nov_10_1137,eye_tracking_exp,2021.2.3,84.84868973737237,
180,180,-12,0,90,0,0,-12,180,180,j,present,resp,freq_top,,,,,0,81,81,606,,,0.7009536611390598,,,,,,,,,,589.2002723841588,None,589.2002723841588,None,j,1,1.252310751726327,None,None,013,001,1,28,m,2021_Nov_10_1137,eye_tracking_exp,2021.2.3,84.84868973737237,
0,12,0,0,-12,0,0,180,180,180,j,abs,resp,freq_top,,,,,0,82,82,152,,,0.9109992293818964,,,,,,,,,,591.7892859212652,None,591.7892859212652,None,j,1,0.9821339797199471,None,None,013,001,1,28,m,2021_Nov_10_1137,eye_tracking_exp,2021.2.3,84.84868973737237,
0,270,0,-168,0,0,-168,0,180,0,f,present,resp,freq_top,,,,,0,83,83,808,,,0.9029730857462985,,,,,,,,,,595.0010244590358,None,595.0010244590358,None,f,1,0.8913631059904219,None,None,013,001,1,28,m,2021_Nov_10_1137,eye_tracking_exp,2021.2.3,84.84868973737237,
168,0,12,180,180,0,180,0,180,90,None,present,inhibit,freq_top,,,,,0,84,84,987,,,1.0000222219305326,,,,,,,,,,597.153382103299,None,597.153382103299,None,j,0,0.8502869470894439,598.0359408844279,None,013,001,1,28,m,2021_Nov_10_1137,eye_tracking_exp,2021.2.3,84.84868973737237,
0,0,180,168,180,0,180,168,0,0,f,abs,resp,freq_top,,,,,0,85,85,241,,,0.7137898321792152,,,,,,,,,,599.2947939732594,None,599.2947939732594,None,f,1,1.6366295860761966,None,None,013,001,1,28,m,2021_Nov_10_1137,eye_tracking_exp,2021.2.3,84.84868973737237,
180,168,180,0,180,0,180,180,-168,180,f,abs,resp,freq_top,,,,,0,86,86,411,,,0.7450304497844662,,,,,,,,,,602.1072591102602,None,602.1072591102602,None,f,1,1.20909180122635,None,None,013,001,1,28,m,2021_Nov_10_1137,eye_tracking_exp,2021.2.3,84.84868973737237,
0,12,0,-12,180,180,180,180,270,0,j,present,resp,freq_top,,,,,0,87,87,700,,,0.7871981969441548,,,,,,,,,,604.5320697332427,None,604.5320697332427,None,j,1,1.1513520343469281,None,None,013,001,1,28,m,2021_Nov_10_1137,eye_tracking_exp,2021.2.3,84.84868973737237,
0,0,0,-168,0,0,-168,0,0,0,f,abs,resp,freq_top,,,,,0,88,88,304,,,0.7701208456227454,,,,,,,,,,606.9195651753962,None,606.9195651753962,None,f,1,0.9549182022055902,None,None,013,001,1,28,m,2021_Nov_10_1137,eye_tracking_exp,2021.2.3,84.84868973737237,
0,180,168,0,180,0,180,12,180,180,None,abs,inhibit,freq_top,,,,,0,89,89,472,,,0.7503504653292798,,,,,,,,,,609.0384621885878,None,609.0384621885878,None,None,1,,None,None,013,001,1,28,m,2021_Nov_10_1137,eye_tracking_exp,2021.2.3,84.84868973737237,
90,0,-12,0,0,-12,180,180,180,180,j,present,resp,freq_top,,,,,0,90,90,592,,,0.859656893346277,,,,,,,,,,612.9109535618818,None,612.9109535618818,None,j,1,0.8194716781226816,None,None,013,001,1,28,m,2021_Nov_10_1137,eye_tracking_exp,2021.2.3,84.84868973737237,
0,90,0,0,-168,180,180,168,0,0,f,present,resp,freq_top,,,,,0,91,91,862,,,1.0167068860026423,,,,,,,,,,615.3701931319592,None,615.3701931319592,None,f,1,1.2882600877901496,None,None,013,001,1,28,m,2021_Nov_10_1137,eye_tracking_exp,2021.2.3,84.84868973737237,
-168,180,90,0,0,168,180,180,0,0,f,present,resp,freq_top,,,,,0,92,92,920,,,0.9224310924706837,,,,,,,,,,618.0998095967125,None,618.0998095967125,None,f,1,1.294659787395176,None,None,013,001,1,28,m,2021_Nov_10_1137,eye_tracking_exp,2021.2.3,84.84868973737237,
0,-168,0,12,180,0,180,180,0,0,None,abs,inhibit,freq_top,,,,,0,93,93,476,,,0.931478340378491,,,,,,,,,,620.8075423608079,None,620.8075423608079,None,None,1,,None,None,013,001,1,28,m,2021_Nov_10_1137,eye_tracking_exp,2021.2.3,84.84868973737237,
0,90,0,0,0,-12,0,-12,0,0,j,present,resp,freq_top,,,,,0,94,94,588,,,0.738222864760517,,,,,,,,,,624.5716940217962,None,624.5716940217962,None,j,1,0.773758287590681,None,None,013,001,1,28,m,2021_Nov_10_1137,eye_tracking_exp,2021.2.3,84.84868973737237,
0,-168,0,0,180,180,180,180,0,12,None,abs,inhibit,freq_top,,,,,0,95,95,482,,,0.7098221515717297,,,,,,,,,,626.313064297633,None,626.313064297633,None,j,0,1.160349102836335,627.5017123618463,None,013,001,1,28,m,2021_Nov_10_1137,eye_tracking_exp,2021.2.3,84.84868973737237,
0,12,180,270,180,180,180,12,0,180,j,present,resp,freq_top,,,,,0,96,96,537,,,0.7611280562264533,,,,,,,,,,628.8310104413931,None,628.8310104413931,None,j,1,0.9944591817748005,None,None,013,001,1,28,m,2021_Nov_10_1137,eye_tracking_exp,2021.2.3,84.84868973737237,
180,12,180,180,180,-168,180,180,180,180,None,abs,inhibit,freq_top,,,,,0,97,97,439,,,0.9299868940949144,,,,,,,,,,631.1372464207325,None,631.1372464207325,None,j,0,0.7522141615991131,631.9042505089101,None,013,001,1,28,m,2021_Nov_10_1137,eye_tracking_exp,2021.2.3,84.84868973737237,
168,0,180,180,180,180,0,168,180,180,f,abs,resp,freq_top,,,,,0,98,98,244,,,0.7418200149141936,,,,,,,,,,633.1852121722886,None,633.1852121722886,None,f,1,1.728058178203355,None,None,013,001,1,28,m,2021_Nov_10_1137,eye_tracking_exp,2021.2.3,84.84868973737237,
0,0,0,168,0,180,180,180,0,-168,f,abs,resp,freq_top,,,,,0,99,99,354,,,0.815999505799786,,,,,,,,,,636.1523473815632,None,636.1523473815632,None,f,1,2.041112514978522,None,None,013,001,1,28,m,2021_Nov_10_1137,eye_tracking_exp,2021.2.3,84.84868973737237,
0,0,270,180,12,180,180,180,-12,0,j,present,resp,freq_top,,,,,0,100,100,681,,,1.0194357409914339,,,,,,,,,,639.7277839689368,None,639.7277839689368,None,j,1,1.024767352575509,None,None,013,001,1,28,m,2021_Nov_10_1137,eye_tracking_exp,2021.2.3,84.84868973737237,
-168,0,0,168,0,90,180,180,180,0,f,present,resp,freq_top,,,,,0,101,101,860,,,0.8282262023014589,,,,,,,,,,641.9758020602676,None,641.9758020602676,None,f,1,1.1127190019715272,None,None,013,001,1,28,m,2021_Nov_10_1137,eye_tracking_exp,2021.2.3,84.84868973737237,
0,0,-168,0,168,0,0,0,0,0,f,abs,resp,freq_top,,,,,0,102,102,399,,,0.7350257569684441,,,,,,,,,,644.2584893666344,None,644.2584893666344,None,f,1,0.9899936994634118,None,None,013,001,1,28,m,2021_Nov_10_1137,eye_tracking_exp,2021.2.3,84.84868973737237,
180,-168,180,90,180,180,180,180,-168,180,f,present,resp,freq_top,,,,,0,103,103,845,,,0.7396535930199946,,,,,,,,,,646.353012163112,None,646.353012163112,None,f,1,0.8314799438221598,None,None,013,001,1,28,m,2021_Nov_10_1137,eye_tracking_exp,2021.2.3,84.84868973737237,
12,0,180,180,180,180,168,180,0,180,None,abs,inhibit,freq_top,,,,,0,104,104,447,,,0.7152425540641414,,,,,,,,,,648.2713901854777,None,648.2713901854777,None,None,1,,None,None,013,001,1,28,m,2021_Nov_10_1137,eye_tracking_exp,2021.2.3,84.84868973737237,
0,0,12,0,0,0,0,0,180,12,j,abs,resp,freq_top,,,,,0,105,105,47,,,0.889956955609829,,,,,,,,,,652.2849538540668,None,652.2849538540668,None,j,1,1.0916454510042968,None,None,013,001,1,28,m,2021_Nov_10_1137,eye_tracking_exp,2021.2.3,84.84868973737237,
168,0,168,0,270,0,0,0,180,180,f,present,resp,freq_top,,,,,0,106,106,769,,,0.820070050630914,,,,,,,,,,654.4620340431911,None,654.4620340431911,None,f,1,1.2817296896691914,None,None,013,001,1,28,m,2021_Nov_10_1137,eye_tracking_exp,2021.2.3,84.84868973737237,
0,0,0,180,0,-168,0,-168,0,0,f,abs,resp,freq_top,,,,,0,107,107,309,,,0.8858130800185462,,,,,,,,,,656.8865953429076,None,656.8865953429076,None,f,1,1.75295367975923,None,None,013,001,1,28,m,2021_Nov_10_1137,eye_tracking_exp,2021.2.3,84.84868973737237,
180,12,180,180,12,0,270,0,180,180,j,present,resp,freq_top,,,,,0,108,108,561,,,0.8572325421214251,,,,,,,,,,659.5572175765055,None,659.5572175765055,None,j,1,0.970358134012713,None,None,013,001,1,28,m,2021_Nov_10_1137,eye_tracking_exp,2021.2.3,84.84868973737237,
270,180,-12,180,0,180,0,180,0,12,j,present,resp,freq_top,,,,,0,109,109,698,,,0.7656463755415119,,,,,,,,,,661.746488647038,None,661.746488647038,None,j,1,1.7410190640312067,None,None,013,001,1,28,m,2021_Nov_10_1137,eye_tracking_exp,2021.2.3,84.84868973737237,
180,168,0,0,90,180,168,0,180,180,f,present,resp,freq_top,,,,,0,110,110,773,,,0.9372733946743977,,,,,,,,,,664.7472215246271,None,664.7472215246271,None,f,1,1.124378033994617,None,None,013,001,1,28,m,2021_Nov_10_1137,eye_tracking_exp,2021.2.3,84.84868973737237,
0,0,0,0,0,0,-12,0,0,-12,j,abs,resp,freq_top,,,,,0,111,111,92,,,1.0836298532282664,,,,,,,,,,667.2297477669572,None,667.2297477669572,None,j,1,0.72177167015343,None,None,013,001,1,28,m,2021_Nov_10_1137,eye_tracking_exp,2021.2.3,84.84868973737237,
180,180,180,-168,180,180,12,180,0,180,None,abs,inhibit,freq_top,,,,,0,112,112,421,,,0.9629546947247152,,,,,,,,,,669.2653991828483,None,669.2653991828483,None,None,1,,None,None,013,001,1,28,m,2021_Nov_10_1137,eye_tracking_exp,2021.2.3,84.84868973737237,
180,168,180,0,180,0,180,0,0,168,f,abs,resp,freq_top,,,,,0,113,113,258,,,1.0344089962598282,,,,,,,,,,673.3138590532726,None,673.3138590532726,None,f,1,1.4529166736665502,None,None,013,001,1,28,m,2021_Nov_10_1137,eye_tracking_exp,2021.2.3,84.84868973737237,
270,180,12,180,0,180,168,180,0,180,None,present,inhibit,freq_top,,,,,0,114,114,949,,,0.7912680618104748,,,,,,,,,,675.8908896795865,None,675.8908896795865,None,None,1,,None,None,013,001,1,28,m,2021_Nov_10_1137,eye_tracking_exp,2021.2.3,84.84868973737237,
0,90,180,180,12,0,0,0,168,0,None,present,inhibit,freq_top,,,,,0,115,115,961,,,1.0835744065799042,,,,,,,,,,679.9866023456916,None,679.9866023456916,None,None,1,,None,None,013,001,1,28,m,2021_Nov_10_1137,eye_tracking_exp,2021.2.3,84.84868973737237,
270,180,0,12,0,180,0,180,168,180,None,present,inhibit,freq_top,,,,,0,116,116,962,,,1.0900915458291158,,,,,,,,,,684.8216716853294,None,684.8216716853294,None,None,1,,None,None,013,001,1,28,m,2021_Nov_10_1137,eye_tracking_exp,2021.2.3,84.84868973737237,
270,180,180,180,180,-12,180,180,-12,180,j,present,resp,freq_top,,,,,0,117,117,589,,,0.8538610592585353,,,,,,,,,,688.6928059673382,None,688.6928059673382,None,j,1,1.240799019647966,None,None,013,001,1,28,m,2021_Nov_10_1137,eye_tracking_exp,2021.2.3,84.84868973737237,
180,12,0,270,180,0,180,0,168,180,None,present,inhibit,freq_top,,,,,0,118,118,964,,,0.9359005424782667,,,,,,,,,,691.2342313599165,None,691.2342313599165,None,None,1,,None,None,013,001,1,28,m,2021_Nov_10_1137,eye_tracking_exp,2021.2.3,84.84868973737237,
168,0,270,180,168,180,0,0,180,180,f,present,resp,freq_top,,,,,0,119,119,779,,,0.9414435347121973,,,,,,,,,,695.2122082072638,None,695.2122082072638,None,None,0,,698.1781785999747,None,013,001,1,28,m,2021_Nov_10_1137,eye_tracking_exp,2021.2.3,84.84868973737237,
180,12,0,180,180,180,180,180,168,180,None,abs,inhibit,freq_top,,,,,0,120,120,460,,,0.9327525595234519,,,,,,,,,,699.8606385573303,None,699.8606385573303,None,None,1,,None,None,013,001,1,28,m,2021_Nov_10_1137,eye_tracking_exp,2021.2.3,84.84868973737237,
0,270,180,180,-12,180,180,180,-12,0,j,present,resp,freq_top,,,,,0,121,121,611,,,0.706758807772891,,,,,,,,,,703.803261003427,None,703.803261003427,None,j,1,1.0746516255285314,None,None,013,001,1,28,m,2021_Nov_10_1137,eye_tracking_exp,2021.2.3,84.84868973737237,
270,0,0,12,180,0,180,-168,0,0,None,present,inhibit,freq_top,,,,,0,122,122,955,,,0.7776820200176968,,,,,,,,,,706.0975762518692,None,706.0975762518692,None,j,0,0.7950600327339998,706.9215096553908,None,013,001,1,28,m,2021_Nov_10_1137,eye_tracking_exp,2021.2.3,84.84868973737237,
0,0,12,0,180,180,180,180,180,-168,None,abs,inhibit,freq_top,,,,,0,123,123,467,,,0.7111276507884163,,,,,,,,,,708.263067436812,None,708.263067436812,None,None,1,,None,None,013,001,1,28,m,2021_Nov_10_1137,eye_tracking_exp,2021.2.3,84.84868973737237,
180,-168,180,90,0,180,180,-168,0,180,f,present,resp,freq_top,,,,,0,124,124,841,,,0.8573516928956542,,,,,,,,,,712.3836900929928,None,712.3836900929928,None,f,1,1.3900156737172438,None,None,013,001,1,28,m,2021_Nov_10_1137,eye_tracking_exp,2021.2.3,84.84868973737237,
270,180,-12,180,180,12,180,180,180,180,j,present,resp,freq_top,,,,,0,125,125,694,,,1.0655468020180554,,,,,,,,,,716.511800295083,None,716.511800295083,None,j,1,1.6759369382752993,None,None,013,001,1,28,m,2021_Nov_10_1137,eye_tracking_exp,2021.2.3,84.84868973737237,
180,-168,180,270,180,168,180,0,180,180,f,present,resp,freq_top,,,,,0,126,126,873,,,0.7734958513492812,,,,,,,,,,719.312557199466,None,719.312557199466,None,f,1,1.5151662939470043,None,None,013,001,1,28,m,2021_Nov_10_1137,eye_tracking_exp,2021.2.3,84.84868973737237,
180,0,180,12,180,180,12,180,180,180,j,abs,resp,freq_top,,,,,0,127,127,1,,,1.063450637283887,,,,,,,,,,722.1603984704961,None,722.1603984704961,None,j,1,0.8433345708517663,None,None,013,001,1,28,m,2021_Nov_10_1137,eye_tracking_exp,2021.2.3,84.84868973737237,
90,180,180,12,180,-168,0,180,180,180,None,present,inhibit,freq_top,,,,,0,128,128,941,,,0.8460664859466316,,,,,,,,,,724.1028343769094,None,724.1028343769094,None,None,1,,None,None,013,001,1,28,m,2021_Nov_10_1137,eye_tracking_exp,2021.2.3,84.84868973737237,
-168,0,90,0,0,0,0,168,180,180,f,present,resp,freq_top,,,,,0,129,129,888,,,0.7938479616231167,,,,,,,,,,727.8923925615945,None,727.8923925615945,None,f,1,1.416896706073203,None,None,013,001,1,28,m,2021_Nov_10_1137,eye_tracking_exp,2021.2.3,84.84868973737237,
180,-12,180,270,180,180,0,180,0,-12,j,present,resp,freq_top,,,,,0,130,130,622,,,0.7896925784945731,,,,,,,,,,730.1625753704839,None,730.1625753704839,None,j,1,0.872990154605759,None,None,013,001,1,28,m,2021_Nov_10_1137,eye_tracking_exp,2021.2.3,84.84868973737237,
0,-168,180,180,0,180,180,168,0,0,f,abs,resp,freq_top,,,,,0,131,131,383,,,1.0300713787774805,,,,,,,,,,732.209788624581,None,732.209788624581,None,f,1,1.4012807991275622,None,None,013,001,1,28,m,2021_Nov_10_1137,eye_tracking_exp,2021.2.3,84.84868973737237,
90,0,180,0,180,12,0,180,-12,0,j,present,resp,freq_top,,,,,0,132,132,659,,,0.860371625900662,,,,,,,,,,734.6711389907787,None,734.6711389907787,None,j,1,0.9241322121206395,None,None,013,001,1,28,m,2021_Nov_10_1137,eye_tracking_exp,2021.2.3,84.84868973737237,
0,270,0,168,0,-168,0,0,0,0,f,present,resp,freq_top,,,,,0,133,133,854,,,0.8366112462233962,,,,,,,,,,736.7526803760256,None,736.7526803760256,None,f,1,1.2580639011675885,None,None,013,001,1,28,m,2021_Nov_10_1137,eye_tracking_exp,2021.2.3,84.84868973737237,
180,-12,180,12,180,0,180,0,180,180,j,abs,resp,freq_top,,,,,0,134,134,145,,,1.082052791100125,,,,,,,,,,739.5542163401524,None,739.5542163401524,None,j,1,0.7765578920543703,None,None,013,001,1,28,m,2021_Nov_10_1137,eye_tracking_exp,2021.2.3,84.84868973737237,
180,0,180,168,180,0,180,180,168,180,f,abs,resp,freq_top,,,,,0,135,135,213,,,0.7482094131067554,,,,,,,,,,741.4474139200865,None,741.4474139200865,None,f,1,0.9633133934657963,None,None,013,001,1,28,m,2021_Nov_10_1137,eye_tracking_exp,2021.2.3,84.84868973737237,
180,180,0,0,180,180,180,-12,0,12,j,abs,resp,freq_top,,,,,0,136,136,182,,,0.7792628697266313,,,,,,,,,,743.7194114159875,None,743.7194114159875,None,j,1,0.9473482528428576,None,None,013,001,1,28,m,2021_Nov_10_1137,eye_tracking_exp,2021.2.3,84.84868973737237,
-168,180,180,168,180,180,180,180,0,0,f,abs,resp,freq_top,,,,,0,137,137,414,,,0.9840219616507064,,,,,,,,,,746.049115475912,None,746.049115475912,None,f,1,0.808763455162989,None,None,013,001,1,28,m,2021_Nov_10_1137,eye_tracking_exp,2021.2.3,84.84868973737237,
168,180,0,90,180,180,0,168,0,0,f,present,resp,freq_top,,,,,0,138,138,782,,,0.8030565246190737,,,,,,,,,,747.9200248840316,None,747.9200248840316,None,f,1,1.0499167050593314,None,None,013,001,1,28,m,2021_Nov_10_1137,eye_tracking_exp,2021.2.3,84.84868973737237,
0,270,180,180,-168,0,0,180,-168,0,f,present,resp,freq_top,,,,,0,139,139,821,,,0.7549873599506055,,,,,,,,,,750.0028560493192,None,750.0028560493192,None,j,0,1.126873379556855,751.1442045320091,None,013,001,1,28,m,2021_Nov_10_1137,eye_tracking_exp,2021.2.3,84.84868973737237,
90,180,0,180,180,168,180,0,-168,180,f,present,resp,freq_top,,,,,0,140,140,890,,,0.7890725000604875,,,,,,,,,,752.4621565919142,None,752.4621565919142,None,j,0,0.9076539364477867,753.3923412480899,None,013,001,1,28,m,2021_Nov_10_1137,eye_tracking_exp,2021.2.3,84.84868973737237,
0,0,0,0,0,0,168,0,0,168,f,abs,resp,freq_top,,,,,0,141,141,232,,,0.7936912055367898,,,,,,,,,,754.7796990493125,None,754.7796990493125,None,f,1,0.8940709498328943,None,None,013,001,1,28,m,2021_Nov_10_1137,eye_tracking_exp,2021.2.3,84.84868973737237,
270,180,12,180,180,0,12,180,0,0,j,present,resp,freq_top,,,,,0,142,142,529,,,0.949838755418599,,,,,,,,,,756.9805011699482,None,756.9805011699482,None,j,1,1.2535111858987875,None,None,013,001,1,28,m,2021_Nov_10_1137,eye_tracking_exp,2021.2.3,84.84868973737237,
90,180,0,-168,180,0,0,0,-168,180,f,present,resp,freq_top,,,,,0,143,143,822,,,0.889027319187841,,,,,,,,,,759.5341974326348,None,759.5341974326348,None,f,1,1.3716037844396851,None,None,013,001,1,28,m,2021_Nov_10_1137,eye_tracking_exp,2021.2.3,84.84868973737237,
0,0,180,180,12,0,0,0,168,0,None,abs,inhibit,freq_top,,,,,0,144,144,457,,,0.8723997659489048,,,,,,,,,,762.0762240987542,None,762.0762240987542,None,None,1,,None,None,013,001,1,28,m,2021_Nov_10_1137,eye_tracking_exp,2021.2.3,84.84868973737237,
180,0,0,0,12,0,0,12,180,180,j,abs,resp,freq_top,,,,,0,145,145,30,,,0.7695859138336679,,,,,,,,,,766.1124061566552,None,766.1124061566552,None,j,1,1.2883832402021653,None,None,013,001,1,28,m,2021_Nov_10_1137,eye_tracking_exp,2021.2.3,84.84868973737237,
0,90,168,0,0,168,0,0,180,180,f,present,resp,freq_top,,,,,0,146,146,732,,,1.0383932868953432,,,,,,,,,,768.7255255710288,None,768.7255255710288,None,f,1,1.987292496192822,None,None,013,001,1,28,m,2021_Nov_10_1137,eye_tracking_exp,2021.2.3,84.84868973737237,
180,-12,180,-12,180,0,180,0,180,180,j,abs,resp,freq_top,,,,,0,147,147,75,,,0.7971925420894125,,,,,,,,,,771.8685749454871,None,771.8685749454871,None,j,1,0.8602088660454683,None,None,013,001,1,28,m,2021_Nov_10_1137,eye_tracking_exp,2021.2.3,84.84868973737237,
0,168,0,270,0,168,180,180,0,0,f,present,resp,freq_top,,,,,0,148,148,772,,,0.9163984962520917,,,,,,,,,,775.9145744842699,None,775.9145744842699,None,f,1,1.3262607566766746,None,None,013,001,1,28,m,2021_Nov_10_1137,eye_tracking_exp,2021.2.3,84.84868973737237,
0,0,180,-168,180,180,180,-168,0,0,f,abs,resp,freq_top,,,,,0,149,149,311,,,0.8949395328707763,,,,,,,,,,778.4104135627031,None,778.4104135627031,None,j,0,1.11753552902519,779.5503026289425,None,013,001,1,28,m,2021_Nov_10_1137,eye_tracking_exp,2021.2.3,84.84868973737237,
90,180,180,0,180,168,0,180,-168,180,f,present,resp,freq_top,,,,,0,150,150,869,,,0.9633037457220155,,,,,,,,,,781.4210689629363,None,781.4210689629363,None,f,1,1.018842151969693,None,None,013,001,1,28,m,2021_Nov_10_1137,eye_tracking_exp,2021.2.3,84.84868973737237,
-12,0,-12,0,0,0,0,0,180,180,j,abs,resp,freq_top,,,,,0,151,151,125,,,0.9620883836415299,,,,,,,,,,783.7978691614289,None,783.7978691614289,None,j,1,0.9619698851684007,None,None,013,001,1,28,m,2021_Nov_10_1137,eye_tracking_exp,2021.2.3,84.84868973737237,
0,90,0,-168,0,0,180,180,180,12,None,present,inhibit,freq_top,,,,,0,152,152,928,,,0.8380196276095764,,,,,,,,,,785.8808666428413,None,785.8808666428413,None,None,1,,None,None,013,001,1,28,m,2021_Nov_10_1137,eye_tracking_exp,2021.2.3,84.84868973737237,
0,0,0,-168,0,0,0,-12,0,0,None,abs,inhibit,freq_top,,,,,0,153,153,492,,,0.7638564259213195,,,,,,,,,,789.6581796141709,None,789.6581796141709,None,None,1,,None,None,013,001,1,28,m,2021_Nov_10_1137,eye_tracking_exp,2021.2.3,84.84868973737237,
168,180,0,180,0,0,180,12,0,0,None,abs,inhibit,freq_top,,,,,0,154,154,488,,,0.8322797437858915,,,,,,,,,,793.71896106452,None,793.71896106452,None,None,1,,None,None,013,001,1,28,m,2021_Nov_10_1137,eye_tracking_exp,2021.2.3,84.84868973737237,
0,168,0,270,180,180,180,180,0,168,f,present,resp,freq_top,,,,,0,155,155,776,,,0.7038548379919027,,,,,,,,,,797.4274321393996,None,797.4274321393996,None,f,1,1.2834909502671508,None,None,013,001,1,28,m,2021_Nov_10_1137,eye_tracking_exp,2021.2.3,84.84868973737237,
180,-12,180,180,-12,0,90,0,180,0,j,present,resp,freq_top,,,,,0,156,156,631,,,0.7141559940767569,,,,,,,,,,799.8754560865063,None,799.8754560865063,None,j,1,1.2354702630773318,None,None,013,001,1,28,m,2021_Nov_10_1137,eye_tracking_exp,2021.2.3,84.84868973737237,
0,90,0,168,0,0,180,180,180,168,f,present,resp,freq_top,,,,,0,157,157,718,,,0.8050935151737069,,,,,,,,,,802.2881358950644,None,802.2881358950644,None,f,1,1.0147681615171678,None,None,013,001,1,28,m,2021_Nov_10_1137,eye_tracking_exp,2021.2.3,84.84868973737237,
90,180,168,180,180,180,-168,180,180,180,f,present,resp,freq_top,,,,,0,158,158,879,,,1.001981560235837,,,,,,,,,,804.5812993062418,None,804.5812993062418,None,f,1,1.2976471389174549,None,None,013,001,1,28,m,2021_Nov_10_1137,eye_tracking_exp,2021.2.3,84.84868973737237,
-168,0,0,180,90,180,-168,180,180,180,f,present,resp,freq_top,,,,,0,159,159,851,,,1.0056104447138674,,,,,,,,,,807.1821644519359,None,807.1821644519359,None,f,1,1.2087398509502236,None,None,013,001,1,28,m,2021_Nov_10_1137,eye_tracking_exp,2021.2.3,84.84868973737237,
0,12,180,180,180,0,180,-168,0,0,None,abs,inhibit,freq_top,,,,,0,160,160,453,,,0.9442195954082058,,,,,,,,,,809.4299516324945,None,809.4299516324945,None,None,1,,None,None,013,001,1,28,m,2021_Nov_10_1137,eye_tracking_exp,2021.2.3,84.84868973737237,
0,0,-12,180,180,180,0,0,180,-12,j,abs,resp,freq_top,,,,,0,161,161,117,,,0.7364671514172523,,,,,,,,,,813.4073096993397,None,813.4073096993397,None,j,1,1.0957985246232056,None,None,013,001,1,28,m,2021_Nov_10_1137,eye_tracking_exp,2021.2.3,84.84868973737237,
0,-12,0,0,0,0,0,0,0,-12,j,abs,resp,freq_top,,,,,0,162,162,132,,,1.0790360755998616,,,,,,,,,,816.3845144293582,None,816.3845144293582,None,j,1,0.6614475136875626,None,None,013,001,1,28,m,2021_Nov_10_1137,eye_tracking_exp,2021.2.3,84.84868973737237,
0,12,0,0,0,-12,0,180,0,0,j,abs,resp,freq_top,,,,,0,163,163,198,,,0.9584496205623692,,,,,,,,,,818.3384907430445,None,818.3384907430445,None,j,1,0.8994679231809641,None,None,013,001,1,28,m,2021_Nov_10_1137,eye_tracking_exp,2021.2.3,84.84868973737237,
168,0,270,180,180,180,0,0,168,180,f,present,resp,freq_top,,,,,0,164,164,783,,,0.7955270101457679,,,,,,,,,,820.5263621622671,None,820.5263621622671,None,f,1,1.2076293663340039,None,None,013,001,1,28,m,2021_Nov_10_1137,eye_tracking_exp,2021.2.3,84.84868973737237,
0,-168,180,180,180,180,180,168,0,270,f,present,resp,freq_top,,,,,0,165,165,887,,,1.0751847434711412,,,,,,,,,,823.2563003928808,None,823.2563003928808,None,f,1,1.1976422490424738,None,None,013,001,1,28,m,2021_Nov_10_1137,eye_tracking_exp,2021.2.3,84.84868973737237,
12,180,180,0,168,0,180,0,180,180,None,abs,inhibit,freq_top,,,,,0,166,166,433,,,0.7108124491094437,,,,,,,,,,825.5273205174335,None,825.5273205174335,None,None,1,,None,None,013,001,1,28,m,2021_Nov_10_1137,eye_tracking_exp,2021.2.3,84.84868973737237,
180,90,0,180,180,180,180,-168,0,12,None,present,inhibit,freq_top,,,,,0,167,167,952,,,0.8072628672819168,,,,,,,,,,831.5756620649527,None,831.5756620649527,None,None,1,,None,None,013,001,1,28,m,2021_Nov_10_1137,eye_tracking_exp,2021.2.3,84.84868973737237,
168,180,180,168,0,180,180,180,180,90,f,present,resp,freq_top,,,,,0,168,168,778,,,0.8216223441664747,,,,,,,,,,835.6473397871641,None,835.6473397871641,None,f,1,0.981657971500681,None,None,013,001,1,28,m,2021_Nov_10_1137,eye_tracking_exp,2021.2.3,84.84868973737237,
168,180,0,180,168,180,0,180,0,180,f,abs,resp,freq_top,,,,,0,169,169,223,,,0.7189929197894391,,,,,,,,,,837.8949479741432,None,837.8949479741432,None,f,1,0.8132944376538944,None,None,013,001,1,28,m,2021_Nov_10_1137,eye_tracking_exp,2021.2.3,84.84868973737237,
0,-168,0,-168,180,180,90,180,180,0,f,present,resp,freq_top,,,,,0,170,170,840,,,0.9626726459143884,,,,,,,,,,840.0836129416284,None,840.0836129416284,None,f,1,0.6247055348940194,None,None,013,001,1,28,m,2021_Nov_10_1137,eye_tracking_exp,2021.2.3,84.84868973737237,
-12,180,180,0,180,0,180,12,0,0,j,abs,resp,freq_top,,,,,0,171,171,208,,,1.0161145035563726,,,,,,,,,,842.2487325564271,None,842.2487325564271,None,j,1,0.9233443988969157,None,None,013,001,1,28,m,2021_Nov_10_1137,eye_tracking_exp,2021.2.3,84.84868973737237,
180,12,180,180,270,180,12,0,0,180,j,present,resp,freq_top,,,,,0,172,172,563,,,0.7190182524384212,,,,,,,,,,844.1900145126674,None,844.1900145126674,None,j,1,1.3020178421656965,None,None,013,001,1,28,m,2021_Nov_10_1137,eye_tracking_exp,2021.2.3,84.84868973737237,
180,180,270,0,-12,0,0,12,180,0,j,present,resp,freq_top,,,,,0,173,173,674,,,1.0744282916487806,,,,,,,,,,847.2025389318587,None,847.2025389318587,None,None,0,,850.1688220351061,None,013,001,1,28,m,2021_Nov_10_1137,eye_tracking_exp,2021.2.3,84.84868973737237,
12,180,90,0,168,180,0,180,0,180,None,present,inhibit,freq_top,,,,,0,174,174,937,,,1.0124412597274264,,,,,,,,,,851.7211826374423,None,851.7211826374423,None,None,1,,None,None,013,001,1,28,m,2021_Nov_10_1137,eye_tracking_exp,2021.2.3,84.84868973737237,
180,180,12,180,168,180,0,180,0,180,None,abs,inhibit,freq_top,,,,,0,175,175,431,,,0.836731703476717,,,,,,,,,,855.8046591455159,None,855.8046591455159,None,None,1,,None,None,013,001,1,28,m,2021_Nov_10_1137,eye_tracking_exp,2021.2.3,84.84868973737237,
180,-12,0,180,-12,0,0,0,180,180,j,abs,resp,freq_top,,,,,0,176,176,127,,,1.0631320510908688,,,,,,,,,,860.2645814870539,None,860.2645814870539,None,j,1,1.1945027680694693,None,None,013,001,1,28,m,2021_Nov_10_1137,eye_tracking_exp,2021.2.3,84.84868973737237,
0,0,168,0,0,270,0,0,-168,0,f,present,resp,freq_top,,,,,0,177,177,893,,,1.0005635839380844,,,,,,,,,,863.4298710401072,None,863.4298710401072,None,f,1,1.9971941915910065,None,None,013,001,1,28,m,2021_Nov_10_1137,eye_tracking_exp,2021.2.3,84.84868973737237,
-168,180,180,180,180,180,180,-168,0,0,f,abs,resp,freq_top,,,,,0,178,178,348,,,0.7259521369397803,,,,,,,,,,866.442591959838,None,866.442591959838,None,f,1,0.8084785142882538,None,None,013,001,1,28,m,2021_Nov_10_1137,eye_tracking_exp,2021.2.3,84.84868973737237,
0,-168,0,0,270,180,180,-168,0,0,f,present,resp,freq_top,,,,,0,179,179,844,,,0.8003151052328108,,,,,,,,,,868.5251049813951,None,868.5251049813951,None,f,1,0.838732353141495,None,None,013,001,1,28,m,2021_Nov_10_1137,eye_tracking_exp,2021.2.3,84.84868973737237,
12,0,0,180,0,180,12,180,180,180,j,abs,resp,freq_top,,,,,0,180,180,67,,,0.8518103103674494,,,,,,,,,,870.6913779426786,None,870.6913779426786,None,j,1,0.8168622354714898,None,None,013,001,1,28,m,2021_Nov_10_1137,eye_tracking_exp,2021.2.3,84.84868973737237,
0,0,180,0,180,180,-12,0,-12,0,j,abs,resp,freq_top,,,,,0,181,181,105,,,0.7985304991040449,,,,,,,,,,872.5859317083659,None,872.5859317083659,None,j,1,0.7122536186661819,None,None,013,001,1,28,m,2021_Nov_10_1137,eye_tracking_exp,2021.2.3,84.84868973737237,
0,-168,0,0,270,-168,180,0,0,0,f,present,resp,freq_top,,,,,0,182,182,842,,,1.0786484841394428,,,,,,,,,,874.7261078283891,None,874.7261078283891,None,f,1,0.9079636285423476,None,None,013,001,1,28,m,2021_Nov_10_1137,eye_tracking_exp,2021.2.3,84.84868973737237,
-12,0,0,-168,0,0,270,0,0,0,None,present,inhibit,freq_top,,,,,0,183,183,1000,,,0.8152073474014153,,,,,,,,,,876.8557474747722,None,876.8557474747722,None,None,1,,None,None,013,001,1,28,m,2021_Nov_10_1137,eye_tracking_exp,2021.2.3,84.84868973737237,
180,180,168,0,0,0,0,168,0,180,f,abs,resp,freq_top,,,,,0,184,184,242,,,0.9650290357709321,,,,,,,,,,881.4821266006802,None,881.4821266006802,None,f,1,0.9040574634354925,None,None,013,001,1,28,m,2021_Nov_10_1137,eye_tracking_exp,2021.2.3,84.84868973737237,
180,0,270,180,-12,180,0,180,-12,180,j,present,resp,freq_top,,,,,0,185,185,614,,,0.8787779128973995,,,,,,,,,,883.7275123092049,None,883.7275123092049,None,j,1,0.9627166475875129,None,None,013,001,1,28,m,2021_Nov_10_1137,eye_tracking_exp,2021.2.3,84.84868973737237,
0,0,0,0,0,168,0,0,0,-168,f,abs,resp,freq_top,,,,,0,186,186,366,,,0.8454976556528581,,,,,,,,,,885.8937722911905,None,885.8937722911905,None,f,1,0.7003325859250253,None,None,013,001,1,28,m,2021_Nov_10_1137,eye_tracking_exp,2021.2.3,84.84868973737237,
0,270,0,0,-12,180,180,180,0,-12,j,present,resp,freq_top,,,,,0,187,187,584,,,0.9338244259066535,,,,,,,,,,887.8691487512106,None,887.8691487512106,None,j,1,1.3160403138590482,None,None,013,001,1,28,m,2021_Nov_10_1137,eye_tracking_exp,2021.2.3,84.84868973737237,
180,12,0,0,270,180,-12,0,180,180,j,present,resp,freq_top,,,,,0,188,188,703,,,0.9090274302652189,,,,,,,,,,890.481149229332,None,890.481149229332,None,j,1,1.3279879088859161,None,None,013,001,1,28,m,2021_Nov_10_1137,eye_tracking_exp,2021.2.3,84.84868973737237,
0,-12,0,0,0,-12,180,0,0,0,j,abs,resp,freq_top,,,,,0,189,189,128,,,0.8673751705962172,,,,,,,,,,893.4708611734259,None,893.4708611734259,None,j,1,0.5943291473158752,None,None,013,001,1,28,m,2021_Nov_10_1137,eye_tracking_exp,2021.2.3,84.84868973737237,
0,168,0,180,0,180,180,168,0,0,f,abs,resp,freq_top,,,,,0,190,190,243,,,0.7142076461571082,,,,,,,,,,895.1769697141663,None,895.1769697141663,None,f,1,1.0001477365685787,None,None,013,001,1,28,m,2021_Nov_10_1137,eye_tracking_exp,2021.2.3,84.84868973737237,
0,180,-12,180,0,-12,180,0,180,0,j,abs,resp,freq_top,,,,,0,191,191,120,,,0.7130434925711477,,,,,,,,,,897.2482939768815,None,897.2482939768815,None,j,1,1.3608593401822873,None,None,013,001,1,28,m,2021_Nov_10_1137,eye_tracking_exp,2021.2.3,84.84868973737237,
-12,0,90,180,-12,180,180,180,0,180,j,present,resp,freq_top,,,,,0,192,192,639,,,1.0514839077979177,,,,,,,,,,900.0615227795743,None,900.0615227795743,None,j,1,0.85171466990505,None,None,013,001,1,28,m,2021_Nov_10_1137,eye_tracking_exp,2021.2.3,84.84868973737237,
0,180,-12,180,180,270,180,12,180,180,j,present,resp,freq_top,,,,,0,193,193,696,,,1.0298337002444775,,,,,,,,,,902.3317285286184,None,902.3317285286184,None,j,1,0.9973780146765421,None,None,013,001,1,28,m,2021_Nov_10_1137,eye_tracking_exp,2021.2.3,84.84868973737237,
0,168,180,180,-168,0,0,270,0,0,f,present,resp,freq_top,,,,,0,194,194,866,,,0.8439742227975795,,,,,,,,,,905.1555445147678,None,905.1555445147678,None,f,1,0.8606323533831528,None,None,013,001,1,28,m,2021_Nov_10_1137,eye_tracking_exp,2021.2.3,84.84868973737237,
0,-12,180,270,180,180,0,12,0,0,j,present,resp,freq_top,,,,,0,195,195,677,,,0.8289844288587342,,,,,,,,,,907.2516169790961,None,907.2516169790961,None,j,1,0.796602758168774,None,None,013,001,1,28,m,2021_Nov_10_1137,eye_tracking_exp,2021.2.3,84.84868973737237,
0,0,90,0,0,0,-12,0,180,12,j,present,resp,freq_top,,,,,0,196,196,687,,,1.0945151271819649,,,,,,,,,,909.5925541689512,None,909.5925541689512,None,j,1,0.7116855479816877,None,None,013,001,1,28,m,2021_Nov_10_1137,eye_tracking_exp,2021.2.3,84.84868973737237,
90,180,0,0,0,-168,180,0,-168,180,f,present,resp,freq_top,,,,,0,197,197,820,,,0.9165464377663233,,,,,,,,,,911.5444942420218,None,911.5444942420218,None,f,1,0.887851451183451,None,None,013,001,1,28,m,2021_Nov_10_1137,eye_tracking_exp,2021.2.3,84.84868973737237,
180,180,180,90,168,0,0,0,0,12,None,present,inhibit,freq_top,,,,,0,198,198,934,,,0.9419057201505247,,,,,,,,,,913.8052151424345,None,913.8052151424345,None,None,1,,None,None,013,001,1,28,m,2021_Nov_10_1137,eye_tracking_exp,2021.2.3,84.84868973737237,
-168,0,168,180,0,180,0,180,0,180,f,abs,resp,freq_top,,,,,0,199,199,413,,,1.030546188710598,,,,,,,,,,917.8642957010152,None,917.8642957010152,None,f,1,0.8230141210315196,None,None,013,001,1,28,m,2021_Nov_10_1137,eye_tracking_exp,2021.2.3,84.84868973737237,
270,180,168,180,-168,180,180,180,0,180,f,present,resp,freq_top,,,,,0,200,200,865,,,0.9738102387284613,,,,,,,,,,920.0056713496788,None,920.0056713496788,None,j,0,1.129606880152096,921.1482015522033,None,013,001,1,28,m,2021_Nov_10_1137,eye_tracking_exp,2021.2.3,84.84868973737237,
0,0,180,0,-168,0,0,0,-168,0,f,abs,resp,freq_top,,,,,0,201,201,317,,,1.0720106432999867,,,,,,,,,,922.7612367520605,None,922.7612367520605,None,f,1,1.6700029841904325,None,None,013,001,1,28,m,2021_Nov_10_1137,eye_tracking_exp,2021.2.3,84.84868973737237,
0,90,0,-168,0,0,180,180,180,-168,f,present,resp,freq_top,,,,,0,202,202,788,,,0.9433223364673434,,,,,,,,,,925.7478227981683,None,925.7478227981683,None,f,1,1.30808128739136,None,None,013,001,1,28,m,2021_Nov_10_1137,eye_tracking_exp,2021.2.3,84.84868973737237,
270,180,180,180,168,180,12,180,0,180,None,present,inhibit,freq_top,,,,,0,203,203,931,,,0.7231071288864351,,,,,,,,,,928.1965732841372,None,928.1965732841372,None,None,1,,None,None,013,001,1,28,m,2021_Nov_10_1137,eye_tracking_exp,2021.2.3,84.84868973737237,
0,0,0,0,0,0,12,0,0,12,j,abs,resp,freq_top,,,,,0,204,204,22,,,0.8071483694443724,,,,,,,,,,932.031277392357,None,932.031277392357,None,j,1,0.8001491250515755,None,None,013,001,1,28,m,2021_Nov_10_1137,eye_tracking_exp,2021.2.3,84.84868973737237,
-12,0,0,0,0,0,0,-12,180,180,j,abs,resp,freq_top,,,,,0,205,205,104,,,1.0809697984193576,,,,,,,,,,933.9608487012256,None,933.9608487012256,None,j,1,0.9815022199209125,None,None,013,001,1,28,m,2021_Nov_10_1137,eye_tracking_exp,2021.2.3,84.84868973737237,
168,180,270,180,180,0,180,12,0,0,None,present,inhibit,freq_top,,,,,0,206,206,992,,,0.7706378513541194,,,,,,,,,,935.9625450653311,None,935.9625450653311,None,f,0,1.1561918033994516,937.1502785417797,None,013,001,1,28,m,2021_Nov_10_1137,eye_tracking_exp,2021.2.3,84.84868973737237,
0,-12,0,180,180,180,0,-12,0,0,j,abs,resp,freq_top,,,,,0,207,207,130,,,0.8496093148673465,,,,,,,,,,938.6444505349891,None,938.6444505349891,None,j,1,1.2258236259822297,None,None,013,001,1,28,m,2021_Nov_10_1137,eye_tracking_exp,2021.2.3,84.84868973737237,
-168,0,-168,180,180,0,180,0,180,180,f,abs,resp,freq_top,,,,,0,208,208,343,,,0.8464766417145285,,,,,,,,,,941.0102934891011,None,941.0102934891011,None,f,1,1.180013343480823,None,None,013,001,1,28,m,2021_Nov_10_1137,eye_tracking_exp,2021.2.3,84.84868973737237,
90,180,-12,180,-12,0,180,0,180,180,j,present,resp,freq_top,,,,,0,209,209,585,,,0.8192106435284141,,,,,,,,,,945.4226965065773,None,945.4226965065773,None,j,1,1.775636060029683,None,None,013,001,1,28,m,2021_Nov_10_1137,eye_tracking_exp,2021.2.3,84.84868973737237,
0,180,-12,180,90,180,180,-12,180,0,j,present,resp,freq_top,,,,,0,210,210,626,,,1.089775912331738,,,,,,,,,,948.5882800558293,None,948.5882800558293,None,j,1,1.7135274009660861,None,None,013,001,1,28,m,2021_Nov_10_1137,eye_tracking_exp,2021.2.3,84.84868973737237,
90,180,168,180,180,180,168,180,180,180,f,present,resp,freq_top,,,,,0,211,211,739,,,0.7030841503782788,,,,,,,,,,951.4127096911297,None,951.4127096911297,None,f,1,1.0006321964247036,None,None,013,001,1,28,m,2021_Nov_10_1137,eye_tracking_exp,2021.2.3,84.84868973737237,
270,0,180,180,-168,0,0,0,180,168,f,present,resp,freq_top,,,,,0,212,212,899,,,1.0216471291439517,,,,,,,,,,954.1068479985324,None,954.1068479985324,None,f,1,0.8504994453687686,None,None,013,001,1,28,m,2021_Nov_10_1137,eye_tracking_exp,2021.2.3,84.84868973737237,
180,0,-12,0,90,0,12,0,0,0,j,present,resp,freq_top,,,,,0,213,213,695,,,0.8892587160626283,,,,,,,,,,956.3670083743646,None,956.3670083743646,None,j,1,1.3432998587750262,None,None,013,001,1,28,m,2021_Nov_10_1137,eye_tracking_exp,2021.2.3,84.84868973737237,
0,270,0,0,0,-168,0,0,0,12,None,present,inhibit,freq_top,,,,,0,214,214,940,,,0.9329004237878352,,,,,,,,,,959.5549618951954,None,959.5549618951954,None,None,1,,None,None,013,001,1,28,m,2021_Nov_10_1137,eye_tracking_exp,2021.2.3,84.84868973737237,
180,0,-12,0,0,0,0,12,180,180,j,abs,resp,freq_top,,,,,0,215,215,172,,,0.8699349617905505,,,,,,,,,,963.4739487372053,None,963.4739487372053,None,j,1,1.451325653168169,None,None,013,001,1,28,m,2021_Nov_10_1137,eye_tracking_exp,2021.2.3,84.84868973737237,
0,168,0,-168,180,180,180,90,0,0,f,present,resp,freq_top,,,,,0,216,216,910,,,0.911622388681549,,,,,,,,,,966.4389145925952,None,966.4389145925952,None,f,1,1.173492000684746,None,None,013,001,1,28,m,2021_Nov_10_1137,eye_tracking_exp,2021.2.3,84.84868973737237,
12,180,0,180,0,180,12,180,180,180,j,abs,resp,freq_top,,,,,0,217,217,27,,,1.0666562249357487,,,,,,,,,,969.0044763487003,None,969.0044763487003,None,j,1,0.8318623803561422,None,None,013,001,1,28,m,2021_Nov_10_1137,eye_tracking_exp,2021.2.3,84.84868973737237,
180,168,180,90,180,180,-168,0,0,180,f,present,resp,freq_top,,,,,0,218,218,913,,,0.7975558842774763,,,,,,,,,,971.4530710830895,None,971.4530710830895,None,f,1,2.2233928750665655,None,None,013,001,1,28,m,2021_Nov_10_1137,eye_tracking_exp,2021.2.3,84.84868973737237,
0,12,180,0,270,180,0,180,-12,0,j,present,resp,freq_top,,,,,0,219,219,705,,,1.0567894802334643,,,,,,,,,,974.9238383829852,None,974.9238383829852,None,j,1,1.6165285769520779,None,None,013,001,1,28,m,2021_Nov_10_1137,eye_tracking_exp,2021.2.3,84.84868973737237,
0,0,-168,180,180,-168,0,180,180,180,f,abs,resp,freq_top,,,,,0,220,220,330,,,1.05411103454647,,,,,,,,,,977.9832669678672,None,977.9832669678672,None,f,1,1.5010888866190726,None,None,013,001,1,28,m,2021_Nov_10_1137,eye_tracking_exp,2021.2.3,84.84868973737237,
180,12,180,180,0,180,180,0,12,180,j,abs,resp,freq_top,,,,,0,221,221,61,,,0.9140005480109323,,,,,,,,,,980.6539734159824,None,980.6539734159824,None,f,0,0.8625113331991088,981.5364748467236,None,013,001,1,28,m,2021_Nov_10_1137,eye_tracking_exp,2021.2.3,84.84868973737237,
0,0,-12,0,90,0,0,0,180,-12,j,present,resp,freq_top,,,,,0,222,222,621,,,0.7626172938483329,,,,,,,,,,982.8541896571296,None,982.8541896571296,None,j,1,0.9012035270261549,None,None,013,001,1,28,m,2021_Nov_10_1137,eye_tracking_exp,2021.2.3,84.84868973737237,
180,168,180,0,180,180,-168,0,180,180,f,abs,resp,freq_top,,,,,0,223,223,409,,,0.9650638935682359,,,,,,,,,,985.0671859794602,None,985.0671859794602,None,f,1,0.6882225987474158,None,None,013,001,1,28,m,2021_Nov_10_1137,eye_tracking_exp,2021.2.3,84.84868973737237,
-12,0,0,180,0,180,-12,180,180,180,j,abs,resp,freq_top,,,,,0,224,224,137,,,0.9059178231626108,,,,,,,,,,987.0430813095691,None,987.0430813095691,None,j,1,0.7283093125333835,None,None,013,001,1,28,m,2021_Nov_10_1137,eye_tracking_exp,2021.2.3,84.84868973737237,
180,180,0,12,0,180,0,0,-12,180,j,abs,resp,freq_top,,,,,0,225,225,178,,,0.772348476021385,,,,,,,,,,988.8082290562425,None,988.8082290562425,None,j,1,0.8041681798695208,None,None,013,001,1,28,m,2021_Nov_10_1137,eye_tracking_exp,2021.2.3,84.84868973737237,
180,0,168,180,168,0,180,180,0,180,f,abs,resp,freq_top,,,,,0,226,226,221,,,1.0756527809735739,,,,,,,,,,990.9732880003676,None,990.9732880003676,None,f,1,0.8305511693824883,None,None,013,001,1,28,m,2021_Nov_10_1137,eye_tracking_exp,2021.2.3,84.84868973737237,
0,0,12,0,12,0,180,180,180,0,j,abs,resp,freq_top,,,,,0,227,227,49,,,0.9852314118514645,,,,,,,,,,993.608914423563,None,993.608914423563,None,j,1,0.7705472695552089,None,None,013,001,1,28,m,2021_Nov_10_1137,eye_tracking_exp,2021.2.3,84.84868973737237,
0,270,0,0,-12,180,180,180,0,12,j,present,resp,freq_top,,,,,0,228,228,654,,,0.9134767890598126,,,,,,,,,,995.6447873930574,None,995.6447873930574,None,j,1,0.782593567618278,None,None,013,001,1,28,m,2021_Nov_10_1137,eye_tracking_exp,2021.2.3,84.84868973737237,
180,180,0,0,180,-12,180,180,0,-12,j,abs,resp,freq_top,,,,,0,229,229,114,,,1.010113861883177,,,,,,,,,,997.503639334881,None,997.503639334881,None,j,1,0.6028963897406356,None,None,013,001,1,28,m,2021_Nov_10_1137,eye_tracking_exp,2021.2.3,84.84868973737237,
0,0,0,168,0,-168,0,0,0,0,f,abs,resp,freq_top,,,,,0,230,230,350,,,0.8044320748022843,,,,,,,,,,999.3760990145392,None,999.3760990145392,None,f,1,0.9065180969228095,None,None,013,001,1,28,m,2021_Nov_10_1137,eye_tracking_exp,2021.2.3,84.84868973737237,
180,180,0,12,0,180,0,180,0,-168,None,abs,inhibit,freq_top,,,,,0,231,231,466,,,1.0230626288497464,,,,,,,,,,1001.7178545038769,None,1001.7178545038769,None,None,1,,None,None,013,001,1,28,m,2021_Nov_10_1137,eye_tracking_exp,2021.2.3,84.84868973737237,
0,12,0,0,12,0,0,90,0,0,j,present,resp,freq_top,,,,,0,232,232,516,,,1.0701239317669247,,,,,,,,,,1006.0355183026222,None,1006.0355183026222,None,j,1,1.1910505765599737,None,None,013,001,1,28,m,2021_Nov_10_1137,eye_tracking_exp,2021.2.3,84.84868973737237,
270,0,168,0,180,180,180,180,12,0,None,present,inhibit,freq_top,,,,,0,233,233,977,,,0.9376119797611175,,,,,,,,,,1008.5884753489927,None,1008.5884753489927,None,None,1,,None,None,013,001,1,28,m,2021_Nov_10_1137,eye_tracking_exp,2021.2.3,84.84868973737237,
0,180,0,0,180,180,180,12,0,12,j,abs,resp,freq_top,,,,,0,234,234,42,,,0.9152544476911509,,,,,,,,,,1013.2022093180503,None,1013.2022093180503,None,j,1,0.8553853965759117,None,None,013,001,1,28,m,2021_Nov_10_1137,eye_tracking_exp,2021.2.3,84.84868973737237,
180,180,12,180,168,0,180,90,0,180,None,present,inhibit,freq_top,,,,,0,235,235,935,,,0.8112630657261398,,,,,,,,,,1015.1188082710132,None,1015.1188082710132,None,None,1,,None,None,013,001,1,28,m,2021_Nov_10_1137,eye_tracking_exp,2021.2.3,84.84868973737237,
90,180,12,0,180,180,180,-168,180,180,None,present,inhibit,freq_top,,,,,0,236,236,956,,,0.7337717631490202,,,,,,,,,,1019.1555499479628,None,1019.1555499479628,None,None,1,,None,None,013,001,1,28,m,2021_Nov_10_1137,eye_tracking_exp,2021.2.3,84.84868973737237,
270,0,-168,0,0,0,-168,180,180,0,f,present,resp,freq_top,,,,,0,237,237,835,,,0.9378116804638936,,,,,,,,,,1023.0978808126129,None,1023.0978808126129,None,f,1,0.9451378481544452,None,None,013,001,1,28,m,2021_Nov_10_1137,eye_tracking_exp,2021.2.3,84.84868973737237,
0,180,180,0,0,0,-168,0,0,-168,f,abs,resp,freq_top,,,,,0,238,238,302,,,1.0541536186946234,,,,,,,,,,1025.6874953214165,None,1025.6874953214165,None,f,1,0.6900303433440058,None,None,013,001,1,28,m,2021_Nov_10_1137,eye_tracking_exp,2021.2.3,84.84868973737237,
180,168,180,180,90,180,0,180,168,180,f,present,resp,freq_top,,,,,0,239,239,775,,,0.9386573317582443,,,,,,,,,,1027.6053236855896,None,1027.6053236855896,None,f,1,0.9952394488946084,None,None,013,001,1,28,m,2021_Nov_10_1137,eye_tracking_exp,2021.2.3,84.84868973737237,
12,180,180,12,0,0,180,180,180,0,j,abs,resp,freq_top,,,,,0,240,240,64,,,0.7912054796103031,,,,,,,,,,1029.73378976193,None,1029.73378976193,None,j,1,0.7227396843327369,None,None,013,001,1,28,m,2021_Nov_10_1137,eye_tracking_exp,2021.2.3,84.84868973737237,
0,90,0,168,180,180,180,168,0,0,f,present,resp,freq_top,,,,,0,241,241,716,,,0.7261044956105926,,,,,,,,,,1031.4518229575415,None,1031.4518229575415,None,f,1,1.1807256956681158,None,None,013,001,1,28,m,2021_Nov_10_1137,eye_tracking_exp,2021.2.3,84.84868973737237,
270,0,-12,0,0,0,-12,0,0,0,j,present,resp,freq_top,,,,,0,242,242,625,,,0.9980356278862503,,,,,,,,,,1034.158531866291,None,1034.158531866291,None,j,1,0.8260056983726827,None,None,013,001,1,28,m,2021_Nov_10_1137,eye_tracking_exp,2021.2.3,84.84868973737237,
180,168,180,180,168,0,0,270,180,180,f,present,resp,freq_top,,,,,0,243,243,771,,,0.9334265730148836,,,,,,,,,,1036.8176233516297,None,1036.8176233516297,None,f,1,0.7109683662883981,None,None,013,001,1,28,m,2021_Nov_10_1137,eye_tracking_exp,2021.2.3,84.84868973737237,
180,0,12,0,90,0,12,0,0,0,j,present,resp,freq_top,,,,,0,244,244,555,,,0.9683689000386425,,,,,,,,,,1038.947240359702,None,1038.947240359702,None,j,1,0.8533241028962948,None,None,013,001,1,28,m,2021_Nov_10_1137,eye_tracking_exp,2021.2.3,84.84868973737237,
180,180,180,168,180,180,168,180,0,180,f,abs,resp,freq_top,,,,,0,245,245,211,,,0.7934563417254092,,,,,,,,,,1040.7720083622908,None,1040.7720083622908,None,f,1,0.9180165478583149,None,None,013,001,1,28,m,2021_Nov_10_1137,eye_tracking_exp,2021.2.3,84.84868973737237,
270,0,-12,0,0,0,0,0,-12,0,j,present,resp,freq_top,,,,,0,246,246,627,,,0.9868959457454625,,,,,,,,,,1043.4420462256203,None,1043.4420462256203,None,j,1,1.0617505048421663,None,None,013,001,1,28,m,2021_Nov_10_1137,eye_tracking_exp,2021.2.3,84.84868973737237,
180,-168,180,90,180,180,0,180,0,-168,f,present,resp,freq_top,,,,,0,247,247,832,,,0.8602337881466319,,,,,,,,,,1045.725367404696,None,1045.725367404696,None,f,1,0.9542462971348868,None,None,013,001,1,28,m,2021_Nov_10_1137,eye_tracking_exp,2021.2.3,84.84868973737237,
168,180,270,180,180,12,0,0,0,0,None,present,inhibit,freq_top,,,,,0,248,248,990,,,1.0799203048842814,,,,,,,,,,1048.2315467580738,None,1048.2315467580738,None,None,1,,None,None,013,001,1,28,m,2021_Nov_10_1137,eye_tracking_exp,2021.2.3,84.84868973737237,
180,0,180,0,-168,180,-168,180,180,180,f,abs,resp,freq_top,,,,,0,249,249,287,,,1.030670063765149,,,,,,,,,,1052.293208687799,None,1052.293208687799,None,f,1,1.6504398613342346,None,None,013,001,1,28,m,2021_Nov_10_1137,eye_tracking_exp,2021.2.3,84.84868973737237,
180,180,180,180,168,180,168,180,180,180,f,abs,resp,freq_top,,,,,0,250,250,217,,,1.0723731046956466,,,,,,,,,,1055.2811011153753,None,1055.2811011153753,None,f,1,0.7600038535010754,None,None,013,001,1,28,m,2021_Nov_10_1137,eye_tracking_exp,2021.2.3,84.84868973737237,
0,0,0,180,0,0,-168,0,180,168,f,abs,resp,freq_top,,,,,0,251,251,393,,,0.7201945955883163,,,,,,,,,,1059.315946909237,None,1059.315946909237,None,f,1,2.131860146710096,None,None,013,001,1,28,m,2021_Nov_10_1137,eye_tracking_exp,2021.2.3,84.84868973737237,
180,0,0,180,180,12,0,180,0,12,j,abs,resp,freq_top,,,,,0,252,252,16,,,0.9570875074332106,,,,,,,,,,1062.7431484397075,None,1062.7431484397075,None,j,1,0.6714391586410784,None,None,013,001,1,28,m,2021_Nov_10_1137,eye_tracking_exp,2021.2.3,84.84868973737237,
0,0,0,-168,180,180,180,180,0,12,None,abs,inhibit,freq_top,,,,,0,253,253,424,,,0.9619358412350834,,,,,,,,,,1064.7414771286658,None,1064.7414771286658,None,None,1,,None,None,013,001,1,28,m,2021_Nov_10_1137,eye_tracking_exp,2021.2.3,84.84868973737237,
180,0,12,0,0,0,12,0,0,0,j,abs,resp,freq_top,,,,,0,254,254,51,,,0.821972042002207,,,,,,,,,,1068.5772965510087,None,1068.5772965510087,None,j,1,1.1734174451812578,None,None,013,001,1,28,m,2021_Nov_10_1137,eye_tracking_exp,2021.2.3,84.84868973737237,
0,12,0,0,-12,180,180,180,270,0,j,present,resp,freq_top,,,,,0,255,255,656,,,1.075281919163941,,,,,,,,,,1071.3440679173482,None,1071.3440679173482,None,j,1,0.935001016165188,None,None,013,001,1,28,m,2021_Nov_10_1137,eye_tracking_exp,2021.2.3,84.84868973737237,
90,0,-168,0,0,180,180,180,168,0,f,present,resp,freq_top,,,,,0,256,256,907,,,1.0391837967455064,,,,,,,,,,1076.4601227660514,None,1076.4601227660514,None,f,1,1.0816112460270233,None,None,013,001,1,28,m,2021_Nov_10_1137,eye_tracking_exp,2021.2.3,84.84868973737237,
180,180,90,180,180,180,-168,180,-168,0,f,present,resp,freq_top,,,,,0,257,257,805,,,0.8582623130415155,,,,,,,,,,1078.484427256768,None,1078.484427256768,None,f,1,1.1372221061374148,None,None,013,001,1,28,m,2021_Nov_10_1137,eye_tracking_exp,2021.2.3,84.84868973737237,
180,-168,180,-168,0,180,0,180,0,180,f,abs,resp,freq_top,,,,,0,258,258,285,,,1.0191146257961838,,,,,,,,,,1080.9083462321405,None,1080.9083462321405,None,f,1,0.6653491511315224,None,None,013,001,1,28,m,2021_Nov_10_1137,eye_tracking_exp,2021.2.3,84.84868973737237,
-168,180,180,-168,0,180,180,180,180,0,f,abs,resp,freq_top,,,,,0,259,259,344,,,1.0962122917616963,,,,,,,,,,1083.0863639491845,None,1083.0863639491845,None,f,1,0.5833000640286627,None,None,013,001,1,28,m,2021_Nov_10_1137,eye_tracking_exp,2021.2.3,84.84868973737237,
270,0,180,0,180,12,0,-168,0,0,None,present,inhibit,freq_top,,,,,0,260,260,953,,,0.8664421205831527,,,,,,,,,,1084.8032431946222,None,1084.8032431946222,None,None,1,,None,None,013,001,1,28,m,2021_Nov_10_1137,eye_tracking_exp,2021.2.3,84.84868973737237,
270,0,180,0,180,-12,0,-12,0,0,j,present,resp,freq_top,,,,,0,261,261,603,,,0.9401347175460368,,,,,,,,,,1088.9693764020667,None,1088.9693764020667,None,f,0,0.9073871062219041,1089.89922902968,None,013,001,1,28,m,2021_Nov_10_1137,eye_tracking_exp,2021.2.3,84.84868973737237,
0,-12,180,270,180,0,180,-12,0,0,j,present,resp,freq_top,,,,,0,262,262,607,,,1.0864608538429232,,,,,,,,,,1091.5345840949867,None,1091.5345840949867,None,j,1,0.902112077908896,None,None,013,001,1,28,m,2021_Nov_10_1137,eye_tracking_exp,2021.2.3,84.84868973737237,
180,180,-168,0,0,0,0,-168,180,180,f,abs,resp,freq_top,,,,,0,263,263,312,,,0.7001076126321434,,,,,,,,,,1093.5717776326246,None,1093.5717776326246,None,f,1,1.360896768856037,None,None,013,001,1,28,m,2021_Nov_10_1137,eye_tracking_exp,2021.2.3,84.84868973737237,
12,0,168,0,0,90,0,0,180,180,None,present,inhibit,freq_top,,,,,0,264,264,979,,,0.8417249437274239,,,,,,,,,,1096.3244634418443,None,1096.3244634418443,None,None,1,,None,None,013,001,1,28,m,2021_Nov_10_1137,eye_tracking_exp,2021.2.3,84.84868973737237,
180,0,180,168,180,168,180,0,180,180,f,abs,resp,freq_top,,,,,0,265,265,227,,,0.7012299926265984,,,,,,,,,,1100.4436659213134,None,1100.4436659213134,None,f,1,0.9220491856622175,None,None,013,001,1,28,m,2021_Nov_10_1137,eye_tracking_exp,2021.2.3,84.84868973737237,
0,270,0,12,0,0,0,-12,0,0,j,present,resp,freq_top,,,,,0,266,266,646,,,1.0091780697366428,,,,,,,,,,1102.8675640694391,None,1102.8675640694391,None,j,1,0.9131471980790593,None,None,013,001,1,28,m,2021_Nov_10_1137,eye_tracking_exp,2021.2.3,84.84868973737237,
0,180,0,12,0,180,180,12,0,0,j,abs,resp,freq_top,,,,,0,267,267,2,,,0.920853318203287,,,,,,,,,,1105.6328071988628,None,1105.6328071988628,None,j,1,0.7563669333740108,None,None,013,001,1,28,m,2021_Nov_10_1137,eye_tracking_exp,2021.2.3,84.84868973737237,
0,270,0,0,12,0,180,180,180,12,j,present,resp,freq_top,,,,,0,268,268,514,,,1.0603840419562023,,,,,,,,,,1107.774727374367,None,1107.774727374367,None,j,1,0.7249829900338227,None,None,013,001,1,28,m,2021_Nov_10_1137,eye_tracking_exp,2021.2.3,84.84868973737237,
0,168,0,0,-168,0,0,0,0,0,f,abs,resp,freq_top,,,,,0,269,269,362,,,1.0021279021401268,,,,,,,,,,1109.799487649745,None,1109.799487649745,None,f,1,0.7802301279471067,None,None,013,001,1,28,m,2021_Nov_10_1137,eye_tracking_exp,2021.2.3,84.84868973737237,
180,0,0,-12,0,180,0,180,0,-12,j,abs,resp,freq_top,,,,,0,270,270,116,,,0.9435730129543711,,,,,,,,,,1111.8691879909502,None,1111.8691879909502,None,j,1,0.9345150470890076,None,None,013,001,1,28,m,2021_Nov_10_1137,eye_tracking_exp,2021.2.3,84.84868973737237,
0,0,270,0,168,0,180,0,180,168,f,present,resp,freq_top,,,,,0,271,271,759,,,0.8219955130747726,,,,,,,,,,1114.528643802174,None,1114.528643802174,None,f,1,1.0911057536695807,None,None,013,001,1,28,m,2021_Nov_10_1137,eye_tracking_exp,2021.2.3,84.84868973737237,
-12,0,0,180,12,180,180,180,180,180,j,abs,resp,freq_top,,,,,0,272,272,205,,,1.0224054083214533,,,,,,,,,,1117.0122829438742,None,1117.0122829438742,None,j,1,1.487436777694711,None,None,013,001,1,28,m,2021_Nov_10_1137,eye_tracking_exp,2021.2.3,84.84868973737237,
180,90,0,0,12,0,0,-168,180,180,None,present,inhibit,freq_top,,,,,0,273,273,954,,,0.7080126849913069,,,,,,,,,,1119.7317514084052,None,1119.7317514084052,None,f,0,0.9750832022900795,1120.719972846101,None,013,001,1,28,m,2021_Nov_10_1137,eye_tracking_exp,2021.2.3,84.84868973737237,
180,180,180,168,0,0,-168,180,180,180,f,abs,resp,freq_top,,,,,0,274,274,351,,,0.7671101212339227,,,,,,,,,,1122.036297362365,None,1122.036297362365,None,f,1,0.975303850362252,None,None,013,001,1,28,m,2021_Nov_10_1137,eye_tracking_exp,2021.2.3,84.84868973737237,
12,0,180,180,90,180,-12,180,180,180,j,present,resp,freq_top,,,,,0,275,275,671,,,0.7208972572540883,,,,,,,,,,1124.2862499728344,None,1124.2862499728344,None,j,1,1.348535647348399,None,None,013,001,1,28,m,2021_Nov_10_1137,eye_tracking_exp,2021.2.3,84.84868973737237,
0,270,180,180,180,-168,0,-168,0,0,f,present,resp,freq_top,,,,,0,276,276,798,,,0.825598579250108,,,,,,,,,,1126.9789774606943,None,1126.9789774606943,None,f,1,1.1517815585675635,None,None,013,001,1,28,m,2021_Nov_10_1137,eye_tracking_exp,2021.2.3,84.84868973737237,
-12,0,0,180,90,180,12,0,180,0,j,present,resp,freq_top,,,,,0,277,277,711,,,0.8896207447644188,,,,,,,,,,1129.2871953487029,None,1129.2871953487029,None,j,1,1.563552514398907,None,None,013,001,1,28,m,2021_Nov_10_1137,eye_tracking_exp,2021.2.3,84.84868973737237,
180,180,270,180,-168,180,168,180,180,180,f,present,resp,freq_top,,,,,0,278,278,861,,,0.8695887837818199,,,,,,,,,,1132.2048429082324,None,1132.2048429082324,None,j,0,1.4299653502621368,1133.6533546354813,None,013,001,1,28,m,2021_Nov_10_1137,eye_tracking_exp,2021.2.3,84.84868973737237,
180,90,180,-168,180,-168,180,0,180,180,f,present,resp,freq_top,,,,,0,279,279,801,,,0.9049572182060073,,,,,,,,,,1135.170080725199,None,1135.170080725199,None,f,1,1.072623534705599,None,None,013,001,1,28,m,2021_Nov_10_1137,eye_tracking_exp,2021.2.3,84.84868973737237,
-12,180,270,0,0,-12,180,180,180,0,j,present,resp,freq_top,,,,,0,280,280,640,,,0.7123186349583949,,,,,,,,,,1137.3234652432502,None,1137.3234652432502,None,j,1,1.190368710632356,None,None,013,001,1,28,m,2021_Nov_10_1137,eye_tracking_exp,2021.2.3,84.84868973737237,
180,0,180,-168,180,0,180,180,-12,0,None,abs,inhibit,freq_top,,,,,0,281,281,493,,,1.0945306713021794,,,,,,,,,,1139.8650315970453,None,1139.8650315970453,None,None,1,,None,None,013,001,1,28,m,2021_Nov_10_1137,eye_tracking_exp,2021.2.3,84.84868973737237,
180,-168,180,-168,180,180,90,0,0,180,f,present,resp,freq_top,,,,,0,282,282,789,,,0.7338694120792553,,,,,,,,,,1143.6314247526689,None,1143.6314247526689,None,f,1,1.0105535116927058,None,None,013,001,1,28,m,2021_Nov_10_1137,eye_tracking_exp,2021.2.3,84.84868973737237,
270,180,180,180,180,0,-12,0,0,12,j,present,resp,freq_top,,,,,0,283,283,666,,,0.7761712137607895,,,,,,,,,,1145.877887139266,None,1145.877887139266,None,j,1,0.9401130486394322,None,None,013,001,1,28,m,2021_Nov_10_1137,eye_tracking_exp,2021.2.3,84.84868973737237,
-12,0,0,-168,0,0,0,0,0,0,None,abs,inhibit,freq_top,,,,,0,284,284,496,,,1.0867962432451832,,,,,,,,,,1148.3017653656789,None,1148.3017653656789,None,None,1,,None,None,013,001,1,28,m,2021_Nov_10_1137,eye_tracking_exp,2021.2.3,84.84868973737237,
0,12,180,180,180,180,0,180,0,12,j,abs,resp,freq_top,,,,,0,285,285,48,,,1.0751743241287148,,,,,,,,,,1152.3984252187165,None,1152.3984252187165,None,j,1,1.0424816800295957,None,None,013,001,1,28,m,2021_Nov_10_1137,eye_tracking_exp,2021.2.3,84.84868973737237,
-168,0,-168,0,0,180,180,180,180,180,f,abs,resp,freq_top,,,,,0,286,286,335,,,0.7980476860103773,,,,,,,,,,1154.5284521311405,None,1154.5284521311405,None,f,1,0.753555858832442,None,None,013,001,1,28,m,2021_Nov_10_1137,eye_tracking_exp,2021.2.3,84.84868973737237,
180,0,180,-12,180,-12,180,0,180,0,j,abs,resp,freq_top,,,,,0,287,287,87,,,0.8577711418008083,,,,,,,,,,1156.3858793685904,None,1156.3858793685904,None,j,1,1.1989827388988488,None,None,013,001,1,28,m,2021_Nov_10_1137,eye_tracking_exp,2021.2.3,84.84868973737237,
180,0,-12,180,180,180,180,0,12,0,j,abs,resp,freq_top,,,,,0,288,288,193,,,0.8935654900950757,,,,,,,,,,1158.881896233227,None,1158.881896233227,None,j,1,0.9910767162627963,None,None,013,001,1,28,m,2021_Nov_10_1137,eye_tracking_exp,2021.2.3,84.84868973737237,
180,180,-168,180,90,0,0,180,0,-168,f,present,resp,freq_top,,,,,0,289,289,838,,,0.7516997519231267,,,,,,,,,,1160.9633361988408,None,1160.9633361988408,None,f,1,1.2774839498979418,None,None,013,001,1,28,m,2021_Nov_10_1137,eye_tracking_exp,2021.2.3,84.84868973737237,
270,180,0,0,12,0,0,12,0,180,j,present,resp,freq_top,,,,,0,290,290,534,,,1.07193317661378,,,,,,,,,,1163.8000871122213,None,1163.8000871122213,None,j,1,0.7768078190083543,None,None,013,001,1,28,m,2021_Nov_10_1137,eye_tracking_exp,2021.2.3,84.84868973737237,
-168,0,0,-168,0,0,0,0,0,0,f,abs,resp,freq_top,,,,,0,291,291,286,,,0.9703995297530877,,,,,,,,,,1165.9882860323432,None,1165.9882860323432,None,f,1,0.8445654912829923,None,None,013,001,1,28,m,2021_Nov_10_1137,eye_tracking_exp,2021.2.3,84.84868973737237,
-12,0,0,-12,0,0,0,0,0,0,j,abs,resp,freq_top,,,,,0,292,292,76,,,0.7721855984565813,,,,,,,,,,1168.0469476312483,None,1168.0469476312483,None,j,1,0.6890107138142412,None,None,013,001,1,28,m,2021_Nov_10_1137,eye_tracking_exp,2021.2.3,84.84868973737237,
270,180,180,-12,180,-12,180,0,180,180,j,present,resp,freq_top,,,,,0,293,293,591,,,0.7596103609366478,,,,,,,,,,1171.0363996875312,None,1171.0363996875312,None,j,1,0.8674784804816227,None,None,013,001,1,28,m,2021_Nov_10_1137,eye_tracking_exp,2021.2.3,84.84868973737237,
12,0,0,12,0,0,90,180,180,0,j,present,resp,freq_top,,,,,0,294,294,510,,,0.7520414221268634,,,,,,,,,,1172.9323612543194,None,1172.9323612543194,None,j,1,0.8915303276471604,None,None,013,001,1,28,m,2021_Nov_10_1137,eye_tracking_exp,2021.2.3,84.84868973737237,
180,12,180,12,0,180,0,180,180,180,j,abs,resp,freq_top,,,,,0,295,295,5,,,0.9096527407421584,,,,,,,,,,1175.0492760569987,None,1175.0492760569987,None,j,1,0.5506513937125419,None,None,013,001,1,28,m,2021_Nov_10_1137,eye_tracking_exp,2021.2.3,84.84868973737237,
0,180,12,0,180,12,180,0,180,180,j,abs,resp,freq_top,,,,,0,296,296,50,,,1.012949101430463,,,,,,,,,,1176.94358563077,None,1176.94358563077,None,j,1,0.5764156027244098,None,None,013,001,1,28,m,2021_Nov_10_1137,eye_tracking_exp,2021.2.3,84.84868973737237,
0,0,180,-168,0,-12,0,0,0,0,None,abs,inhibit,freq_top,,,,,0,297,297,490,,,0.9271196854430893,,,,,,,,,,1178.7437792939745,None,1178.7437792939745,None,None,1,,None,None,013,001,1,28,m,2021_Nov_10_1137,eye_tracking_exp,2021.2.3,84.84868973737237,
0,90,180,0,-12,0,0,0,180,-12,j,present,resp,freq_top,,,,,0,298,298,619,,,1.0746977138445728,,,,,,,,,,1182.8290517747237,None,1182.8290517747237,None,j,1,0.8179455541148855,None,None,013,001,1,28,m,2021_Nov_10_1137,eye_tracking_exp,2021.2.3,84.84868973737237,
90,180,0,12,180,0,-12,0,180,0,j,present,resp,freq_top,,,,,0,299,299,645,,,0.8532123904507064,,,,,,,,,,1184.945732648188,None,1184.945732648188,None,j,1,0.8615152475140349,None,None,013,001,1,28,m,2021_Nov_10_1137,eye_tracking_exp,2021.2.3,84.84868973737237,
-12,180,0,180,0,180,180,-12,0,0,j,abs,resp,freq_top,,,,,0,300,300,138,,,0.9144923265180647,,,,,,,,,,1187.1235780122242,None,1187.1235780122242,None,j,1,0.6673214007878414,None,None,013,001,1,28,m,2021_Nov_10_1137,eye_tracking_exp,2021.2.3,84.84868973737237,
180,90,180,180,180,180,-12,180,12,0,j,present,resp,freq_top,,,,,0,301,301,665,,,0.8740937100926093,,,,,,,,,,1188.9589606660857,None,1188.9589606660857,None,j,1,0.6240595884191862,None,None,013,001,1,28,m,2021_Nov_10_1137,eye_tracking_exp,2021.2.3,84.84868973737237,
0,180,0,0,180,0,180,168,0,168,f,abs,resp,freq_top,,,,,0,302,302,252,,,0.9330232283503723,,,,,,,,,,1190.900112225654,None,1190.900112225654,None,f,1,1.018839133527763,None,None,013,001,1,28,m,2021_Nov_10_1137,eye_tracking_exp,2021.2.3,84.84868973737237,
0,0,0,0,0,-168,0,12,0,0,None,abs,inhibit,freq_top,,,,,0,303,303,434,,,0.8428437474062274,,,,,,,,,,1193.112319225541,None,1193.112319225541,None,None,1,,None,None,013,001,1,28,m,2021_Nov_10_1137,eye_tracking_exp,2021.2.3,84.84868973737237,
180,168,0,180,0,180,180,180,168,180,f,abs,resp,freq_top,,,,,0,304,304,250,,,0.8448254406805911,,,,,,,,,,1196.971743463867,None,1196.971743463867,None,f,1,0.6752303211278559,None,None,013,001,1,28,m,2021_Nov_10_1137,eye_tracking_exp,2021.2.3,84.84868973737237,
12,0,0,0,270,180,12,180,180,180,j,present,resp,freq_top,,,,,0,305,305,571,,,1.0268200980815834,,,,,,,,,,1199.1364981490924,None,1199.1364981490924,None,j,1,0.669585835577891,None,None,013,001,1,28,m,2021_Nov_10_1137,eye_tracking_exp,2021.2.3,84.84868973737237,
180,270,0,180,180,180,180,168,0,168,f,present,resp,freq_top,,,,,0,306,306,756,,,0.7463127070925816,,,,,,,,,,1200.8200384066495,None,1200.8200384066495,None,f,1,0.7140456673669178,None,None,013,001,1,28,m,2021_Nov_10_1137,eye_tracking_exp,2021.2.3,84.84868973737237,
168,180,90,180,-168,180,180,180,180,180,f,present,resp,freq_top,,,,,0,307,307,867,,,0.9570579961628654,,,,,,,,,,1202.7844313618489,None,1202.7844313618489,None,f,1,0.7015339256295192,None,None,013,001,1,28,m,2021_Nov_10_1137,eye_tracking_exp,2021.2.3,84.84868973737237,
0,180,0,12,0,180,180,180,0,12,j,abs,resp,freq_top,,,,,0,308,308,4,,,1.0473750877783945,,,,,,,,,,1204.8433797126927,None,1204.8433797126927,None,j,1,0.610585567540511,None,None,013,001,1,28,m,2021_Nov_10_1137,eye_tracking_exp,2021.2.3,84.84868973737237,
0,90,180,180,180,180,12,0,168,0,None,present,inhibit,freq_top,,,,,0,309,309,959,,,1.0971228004542253,,,,,,,,,,1206.6910326329744,None,1206.6910326329744,None,None,1,,None,None,013,001,1,28,m,2021_Nov_10_1137,eye_tracking_exp,2021.2.3,84.84868973737237,
-168,0,0,168,0,0,0,0,0,0,f,abs,resp,freq_top,,,,,0,310,310,356,,,0.9584738419619279,,,,,,,,,,1211.0453964541766,None,1211.0453964541766,None,f,1,0.7126442049921025,None,None,013,001,1,28,m,2021_Nov_10_1137,eye_tracking_exp,2021.2.3,84.84868973737237,
270,0,-168,0,-168,0,180,180,180,0,f,present,resp,freq_top,,,,,0,311,311,833,,,0.8193706665252856,,,,,,,,,,1213.1164822600158,None,1213.1164822600158,None,f,1,0.6886575561629797,None,None,013,001,1,28,m,2021_Nov_10_1137,eye_tracking_exp,2021.2.3,84.84868973737237,
0,270,180,180,0,0,-168,0,-168,0,f,present,resp,freq_top,,,,,0,312,312,819,,,0.8905064706724259,,,,,,,,,,1215.3292259387963,None,1215.3292259387963,None,f,1,0.8278291388642174,None,None,013,001,1,28,m,2021_Nov_10_1137,eye_tracking_exp,2021.2.3,84.84868973737237,
0,180,0,-168,180,0,180,0,12,180,None,abs,inhibit,freq_top,,,,,0,313,313,423,,,0.7553337217961544,,,,,,,,,,1217.0477055619012,None,1217.0477055619012,None,None,1,,None,None,013,001,1,28,m,2021_Nov_10_1137,eye_tracking_exp,2021.2.3,84.84868973737237,
12,180,180,90,0,180,0,12,0,0,j,present,resp,freq_top,,,,,0,314,314,572,,,0.9087674230931232,,,,,,,,,,1220.9771072343592,None,1220.9771072343592,None,j,1,0.8605571941907328,None,None,013,001,1,28,m,2021_Nov_10_1137,eye_tracking_exp,2021.2.3,84.84868973737237,
0,0,90,0,0,0,168,0,0,168,f,present,resp,freq_top,,,,,0,315,315,736,,,0.8573355898468729,,,,,,,,,,1222.989568568124,None,1222.989568568124,None,f,1,0.6554344764344933,1223.6727858524446,None,013,001,1,28,m,2021_Nov_10_1137,eye_tracking_exp,2021.2.3,84.84868973737237,
180,180,180,0,0,180,168,180,12,180,None,abs,inhibit,freq_top,,,,,0,316,316,441,,,0.7161727514192819,,,,,,,,,,1224.9314828878523,None,1224.9314828878523,None,None,1,,None,None,013,001,1,28,m,2021_Nov_10_1137,eye_tracking_exp,2021.2.3,84.84868973737237,
-168,180,0,180,180,180,180,168,0,0,f,abs,resp,freq_top,,,,,0,317,317,418,,,0.9171845990844543,,,,,,,,,,1228.8504268679935,None,1228.8504268679935,None,f,1,1.5616931544536783,None,None,013,001,1,28,m,2021_Nov_10_1137,eye_tracking_exp,2021.2.3,84.84868973737237,
0,270,0,0,12,0,0,12,0,0,j,present,resp,freq_top,,,,,0,318,318,512,,,0.8783043094652395,,,,,,,,,,1231.6991495239317,None,1231.6991495239317,None,j,1,1.416861390307531,None,None,013,001,1,28,m,2021_Nov_10_1137,eye_tracking_exp,2021.2.3,84.84868973737237,
168,180,90,180,168,180,0,0,180,180,f,present,resp,freq_top,,,,,0,319,319,727,,,0.7239469135304428,,,,,,,,,,1234.3105979291076,None,1234.3105979291076,None,f,1,0.9174650786017082,None,None,013,001,1,28,m,2021_Nov_10_1137,eye_tracking_exp,2021.2.3,84.84868973737237,
90,0,0,12,0,12,180,180,180,0,j,present,resp,freq_top,,,,,0,320,320,504,,,1.0763526464511226,,,,,,,,,,1236.5472060098382,None,1236.5472060098382,None,j,1,0.9368860328640949,None,None,013,001,1,28,m,2021_Nov_10_1137,eye_tracking_exp,2021.2.3,84.84868973737237,
0,180,0,180,-168,180,168,0,180,0,f,abs,resp,freq_top,,,,,0,321,321,357,,,0.956682733347483,,,,,,,,,,1238.7112854697061,None,1238.7112854697061,None,f,1,1.1247978992032586,None,None,013,001,1,28,m,2021_Nov_10_1137,eye_tracking_exp,2021.2.3,84.84868973737237,
0,0,0,180,180,0,-168,0,-168,0,f,abs,resp,freq_top,,,,,0,322,322,315,,,0.8626771009437579,,,,,,,,,,1240.7484479173963,None,1240.7484479173963,None,f,1,0.7846479188829107,None,None,013,001,1,28,m,2021_Nov_10_1137,eye_tracking_exp,2021.2.3,84.84868973737237,
-168,180,90,0,0,180,180,168,0,0,f,present,resp,freq_top,,,,,0,323,323,922,,,0.96896236284702,,,,,,,,,,1242.5590229063491,None,1242.5590229063491,None,f,1,1.1490779405430658,None,None,013,001,1,28,m,2021_Nov_10_1137,eye_tracking_exp,2021.2.3,84.84868973737237,
12,0,0,-168,0,0,90,180,180,180,None,present,inhibit,freq_top,,,,,0,324,324,930,,,0.910463626101404,,,,,,,,,,1244.8892011634289,None,1244.8892011634289,None,None,1,,None,None,013,001,1,28,m,2021_Nov_10_1137,eye_tracking_exp,2021.2.3,84.84868973737237,
90,180,-168,180,180,168,0,180,0,180,f,present,resp,freq_top,,,,,0,325,325,904,,,0.7092706220597016,,,,,,,,,,1248.6107360529895,None,1248.6107360529895,None,f,1,0.88829667130085,None,None,013,001,1,28,m,2021_Nov_10_1137,eye_tracking_exp,2021.2.3,84.84868973737237,
0,180,0,-168,180,0,180,0,-168,180,f,abs,resp,freq_top,,,,,0,326,326,283,,,0.826987822678518,,,,,,,,,,1250.598227329694,None,1250.598227329694,None,f,1,0.7407066553387267,None,None,013,001,1,28,m,2021_Nov_10_1137,eye_tracking_exp,2021.2.3,84.84868973737237,
180,180,0,-168,180,180,-12,0,180,0,None,abs,inhibit,freq_top,,,,,0,327,327,491,,,0.8428806297959818,,,,,,,,,,1252.4454057509765,None,1252.4454057509765,None,None,1,,None,None,013,001,1,28,m,2021_Nov_10_1137,eye_tracking_exp,2021.2.3,84.84868973737237,
90,180,-168,0,-168,180,0,180,0,180,f,present,resp,freq_top,,,,,0,328,328,795,,,0.9603201735859888,,,,,,,,,,1256.424108835341,None,1256.424108835341,None,f,1,0.7867744108980332,None,None,013,001,1,28,m,2021_Nov_10_1137,eye_tracking_exp,2021.2.3,84.84868973737237,
-12,0,90,180,12,180,180,180,0,180,j,present,resp,freq_top,,,,,0,329,329,709,,,0.8897721653341149,,,,,,,,,,1258.4946564530665,None,1258.4946564530665,None,j,1,1.116437118174872,None,None,013,001,1,28,m,2021_Nov_10_1137,eye_tracking_exp,2021.2.3,84.84868973737237,
180,-12,0,-12,180,180,0,180,90,0,j,present,resp,freq_top,,,,,0,330,330,579,,,0.9835109652509553,,,,,,,,,,1260.9774833321662,None,1260.9774833321662,None,j,1,0.9687583600334619,None,None,013,001,1,28,m,2021_Nov_10_1137,eye_tracking_exp,2021.2.3,84.84868973737237,
0,168,0,180,180,180,0,-168,0,0,f,abs,resp,freq_top,,,,,0,331,331,410,,,0.7824792397366971,,,,,,,,,,1263.4495715020494,None,1263.4495715020494,None,f,1,0.848701661629093,None,None,013,001,1,28,m,2021_Nov_10_1137,eye_tracking_exp,2021.2.3,84.84868973737237,
180,180,-168,0,0,180,180,168,180,180,f,abs,resp,freq_top,,,,,0,332,332,382,,,1.0488854806041372,,,,,,,,,,1265.8253279234814,None,1265.8253279234814,None,f,1,0.7127993528838488,None,None,013,001,1,28,m,2021_Nov_10_1137,eye_tracking_exp,2021.2.3,84.84868973737237,
270,0,12,180,180,180,0,0,-12,0,j,present,resp,freq_top,,,,,0,333,333,683,,,0.852909304943795,,,,,,,,,,1267.8036935460896,None,1267.8036935460896,None,None,0,,1270.7921670236483,None,013,001,1,28,m,2021_Nov_10_1137,eye_tracking_exp,2021.2.3,84.84868973737237,
0,270,0,0,0,12,180,180,180,-12,j,present,resp,freq_top,,,,,0,334,334,660,,,1.0431478125500293,,,,,,,,,,1272.4157818608574,None,1272.4157818608574,None,j,1,1.0183667474375397,None,None,013,001,1,28,m,2021_Nov_10_1137,eye_tracking_exp,2021.2.3,84.84868973737237,
12,0,180,0,180,0,180,12,0,0,j,abs,resp,freq_top,,,,,0,335,335,68,,,0.8427033234748272,,,,,,,,,,1275.7695480306484,None,1275.7695480306484,None,j,1,0.8797756110307091,None,None,013,001,1,28,m,2021_Nov_10_1137,eye_tracking_exp,2021.2.3,84.84868973737237,
0,90,0,-168,180,180,180,-168,0,0,f,present,resp,freq_top,,,,,0,336,336,786,,,0.8473063066741056,,,,,,,,,,1277.9351925524188,None,1277.9351925524188,None,f,1,2.505973630450171,None,None,013,001,1,28,m,2021_Nov_10_1137,eye_tracking_exp,2021.2.3,84.84868973737237,
180,270,180,168,180,180,0,0,180,180,f,present,resp,freq_top,,,,,0,337,337,719,,,0.8346609513942481,,,,,,,,,,1281.781778151797,None,1281.781778151797,None,None,0,,1284.7589563195306,None,013,001,1,28,m,2021_Nov_10_1137,eye_tracking_exp,2021.2.3,84.84868973737237,
