ori10,ori11,ori12,ori13,ori14,ori16,ori17,ori18,ori19,ori20,corrAns,distractor,respon,dist_freq,practice_trials.thisRepN,practice_trials.thisTrialN,practice_trials.thisN,practice_trials.thisIndex,trials.thisRepN,trials.thisTrialN,trials.thisN,trials.thisIndex,key_resp.keys,key_resp.rt,fixdur,int14_2.started,int14_2.stopped,per15_2.started,per15_2.stopped,response_pract.keys,response_pract.corr,response_pract.rt,key_resp_2.keys,key_resp_2.rt,int14.started,int14.stopped,per15.started,per15.stopped,response.keys,response.corr,response.rt,text_7.started,text_7.stopped,participant,session,1=top 2=bottom,age,gender,date,expName,psychopyVersion,frameRate,
,,,,,,,,,,,,,,,,,,,,,,space,2.6550095531529223,,,,,,,,,,,,,,,,,,,,014,001,2,28,f,2021_Nov_10_1340,eye_tracking_exp,2021.2.3,84.97644080491783,
180,270,180,12,180,180,180,180,12,180,j,present,resp,pract,0,0,0,35,,,,,,,0.712538970331476,354.26992865611646,None,354.26992865611646,None,j,1,1.3240652156291617,,,,,,,,,,,,014,001,2,28,f,2021_Nov_10_1340,eye_tracking_exp,2021.2.3,84.97644080491783,
0,0,0,-168,0,12,0,0,0,0,None,abs,inhibit,pract,0,1,1,21,,,,,,,0.9580845629171,356.84697950599,None,356.84697950599,None,None,1,,,,,,,,,,,,,014,001,2,28,f,2021_Nov_10_1340,eye_tracking_exp,2021.2.3,84.97644080491783,
180,0,180,0,168,180,0,180,12,180,None,abs,inhibit,pract,0,2,2,30,,,,,,,0.7158916668487241,360.57734001656536,None,360.57734001656536,None,None,1,,,,,,,,,,,,,014,001,2,28,f,2021_Nov_10_1340,eye_tracking_exp,2021.2.3,84.97644080491783,
0,0,180,0,168,0,0,0,180,168,f,abs,resp,pract,0,3,3,17,,,,,,,0.763944201723062,364.5665581436333,None,364.5665581436333,None,f,1,1.2837388375901355,,,,,,,,,,,,014,001,2,28,f,2021_Nov_10_1340,eye_tracking_exp,2021.2.3,84.97644080491783,
0,180,0,-168,180,0,180,0,12,180,None,abs,inhibit,pract,0,4,4,24,,,,,,,0.8264331106603401,366.9551891234678,None,366.9551891234678,None,None,1,,,,,,,,,,,,,014,001,2,28,f,2021_Nov_10_1340,eye_tracking_exp,2021.2.3,84.97644080491783,
0,0,168,0,0,0,0,0,168,0,f,abs,resp,pract,0,5,5,11,,,,,,,0.979444974337826,371.22688688813105,None,371.22688688813105,None,f,1,2.0779372723482084,,,,,,,,,,,,014,001,2,28,f,2021_Nov_10_1340,eye_tracking_exp,2021.2.3,84.97644080491783,
90,0,0,12,0,0,0,12,0,0,j,present,resp,pract,0,6,6,34,,,,,,,0.8719987183287997,374.5329900560464,None,374.5329900560464,None,j,1,1.1717929932601692,,,,,,,,,,,,014,001,2,28,f,2021_Nov_10_1340,eye_tracking_exp,2021.2.3,84.97644080491783,
180,168,180,0,180,0,180,0,0,168,f,abs,resp,pract,0,7,7,20,,,,,,,1.0282698802186885,377.2037888684699,None,377.2037888684699,None,f,1,1.6690274971842882,,,,,,,,,,,,014,001,2,28,f,2021_Nov_10_1340,eye_tracking_exp,2021.2.3,84.97644080491783,
90,0,0,12,0,180,180,180,0,12,j,present,resp,pract,0,8,8,36,,,,,,,0.8190892022920708,379.99327461056055,None,379.99327461056055,None,j,1,1.295581692696942,,,,,,,,,,,,014,001,2,28,f,2021_Nov_10_1340,eye_tracking_exp,2021.2.3,84.97644080491783,
0,270,0,0,12,0,180,180,180,12,j,present,resp,pract,0,9,9,42,,,,,,,0.8694109760119471,382.5467097780602,None,382.5467097780602,None,j,1,1.0291320922187879,,,,,,,,,,,,014,001,2,28,f,2021_Nov_10_1340,eye_tracking_exp,2021.2.3,84.97644080491783,
0,0,0,-168,180,180,180,180,0,12,None,abs,inhibit,pract,0,10,10,25,,,,,,,0.8111292928390255,384.5823246708078,None,384.5823246708078,None,None,1,,,,,,,,,,,,,014,001,2,28,f,2021_Nov_10_1340,eye_tracking_exp,2021.2.3,84.97644080491783,
180,0,180,0,12,180,180,180,12,180,j,abs,resp,pract,0,11,11,9,,,,,,,0.9132393796862525,388.7245457849276,None,388.7245457849276,None,j,1,1.1233403670939879,,,,,,,,,,,,014,001,2,28,f,2021_Nov_10_1340,eye_tracking_exp,2021.2.3,84.97644080491783,
0,180,180,180,12,0,180,12,0,0,j,abs,resp,pract,0,12,12,8,,,,,,,0.9829047548776206,391.09086535094684,None,391.09086535094684,None,j,1,1.2050320707276114,,,,,,,,,,,,014,001,2,28,f,2021_Nov_10_1340,eye_tracking_exp,2021.2.3,84.97644080491783,
90,0,180,180,180,168,0,168,0,0,f,present,resp,pract,0,13,13,44,,,,,,,0.8957388576670557,393.5838876198013,None,393.5838876198013,None,f,1,1.544056172378987,,,,,,,,,,,,014,001,2,28,f,2021_Nov_10_1340,eye_tracking_exp,2021.2.3,84.97644080491783,
12,0,0,12,0,0,180,0,180,180,j,abs,resp,pract,0,14,14,6,,,,,,,0.9575486753340551,396.4320814447947,None,396.4320814447947,None,j,1,0.9677765343021747,,,,,,,,,,,,014,001,2,28,f,2021_Nov_10_1340,eye_tracking_exp,2021.2.3,84.97644080491783,
0,180,0,180,168,180,12,180,0,180,None,abs,inhibit,pract,0,15,15,28,,,,,,,0.9238066107305396,398.59699278713197,None,398.59699278713197,None,None,1,,,,,,,,,,,,,014,001,2,28,f,2021_Nov_10_1340,eye_tracking_exp,2021.2.3,84.97644080491783,
90,0,0,12,0,12,180,180,180,0,j,present,resp,pract,0,16,16,32,,,,,,,0.8733387370655793,402.72758988315036,None,402.72758988315036,None,j,1,0.9113051165277284,,,,,,,,,,,,014,001,2,28,f,2021_Nov_10_1340,eye_tracking_exp,2021.2.3,84.97644080491783,
180,0,90,180,12,0,180,180,12,180,j,present,resp,pract,0,17,17,41,,,,,,,0.9722271777154862,404.9867300257647,None,404.9867300257647,None,j,1,1.0041943324813474,,,,,,,,,,,,014,001,2,28,f,2021_Nov_10_1340,eye_tracking_exp,2021.2.3,84.97644080491783,
180,180,168,0,270,0,0,168,0,180,f,present,resp,pract,0,18,18,47,,,,,,,0.9654662662891393,407.22232723044726,None,407.22232723044726,None,f,1,1.2966139996806305,,,,,,,,,,,,014,001,2,28,f,2021_Nov_10_1340,eye_tracking_exp,2021.2.3,84.97644080491783,
180,270,0,0,0,0,0,168,0,168,f,present,resp,pract,0,19,19,43,,,,,,,0.7930932134142619,409.5756611594188,None,409.5756611594188,None,f,1,1.1352873584328336,,,,,,,,,,,,014,001,2,28,f,2021_Nov_10_1340,eye_tracking_exp,2021.2.3,84.97644080491783,
180,180,0,168,180,180,180,180,168,180,f,abs,resp,pract,0,20,20,10,,,,,,,0.7442374878311522,411.71702775275844,None,411.71702775275844,None,f,1,0.8489522655490873,,,,,,,,,,,,014,001,2,28,f,2021_Nov_10_1340,eye_tracking_exp,2021.2.3,84.97644080491783,
0,180,180,180,168,0,0,0,0,12,None,abs,inhibit,pract,0,21,21,31,,,,,,,0.9911639592795463,413.6939611248872,None,413.6939611248872,None,None,1,,,,,,,,,,,,,014,001,2,28,f,2021_Nov_10_1340,eye_tracking_exp,2021.2.3,84.97644080491783,
180,180,90,180,12,180,12,0,0,180,j,present,resp,pract,0,22,22,39,,,,,,,0.7133058431242152,417.41239245293036,None,417.41239245293036,None,j,1,0.8175619834819372,,,,,,,,,,,,014,001,2,28,f,2021_Nov_10_1340,eye_tracking_exp,2021.2.3,84.97644080491783,
12,0,0,12,0,0,90,180,180,0,j,present,resp,pract,0,23,23,38,,,,,,,0.7397385669294255,419.1669626751591,None,419.1669626751591,None,j,1,1.7989620453008683,,,,,,,,,,,,014,001,2,28,f,2021_Nov_10_1340,eye_tracking_exp,2021.2.3,84.97644080491783,
0,180,0,12,0,12,0,180,180,180,j,abs,resp,pract,0,24,24,0,,,,,,,0.9368503253106062,422.22663364089203,None,422.22663364089203,None,j,1,0.8672920140761562,,,,,,,,,,,,014,001,2,28,f,2021_Nov_10_1340,eye_tracking_exp,2021.2.3,84.97644080491783,
180,12,180,-168,180,180,0,180,180,180,None,abs,inhibit,pract,0,25,25,26,,,,,,,0.790849287722306,424.26110273325867,None,424.26110273325867,None,None,1,,,,,,,,,,,,,014,001,2,28,f,2021_Nov_10_1340,eye_tracking_exp,2021.2.3,84.97644080491783,
180,0,180,12,180,180,12,180,180,180,j,abs,resp,pract,0,26,26,1,,,,,,,0.7965284888570368,428.4151356125385,None,428.4151356125385,None,j,1,1.0298652716501238,,,,,,,,,,,,014,001,2,28,f,2021_Nov_10_1340,eye_tracking_exp,2021.2.3,84.97644080491783,
0,180,0,0,180,168,180,0,0,168,f,abs,resp,pract,0,27,27,16,,,,,,,0.9262452778205283,430.73431647996586,None,430.73431647996586,None,f,1,0.9506764596862922,,,,,,,,,,,,014,001,2,28,f,2021_Nov_10_1340,eye_tracking_exp,2021.2.3,84.97644080491783,
180,270,0,0,168,0,0,168,180,0,f,present,resp,pract,0,28,28,45,,,,,,,0.7235707962862313,432.7575838341927,None,432.7575838341927,None,f,1,1.0234042976844648,,,,,,,,,,,,014,001,2,28,f,2021_Nov_10_1340,eye_tracking_exp,2021.2.3,84.97644080491783,
180,180,180,-168,180,180,12,180,0,180,None,abs,inhibit,pract,0,29,29,22,,,,,,,1.0264698002205082,435.08745632315186,None,435.08745632315186,None,None,1,,,,,,,,,,,,,014,001,2,28,f,2021_Nov_10_1340,eye_tracking_exp,2021.2.3,84.97644080491783,
180,168,0,180,0,180,180,180,168,180,f,abs,resp,pract,0,30,30,12,,,,,,,1.0995074397196953,439.1949025767826,None,439.1949025767826,None,f,1,0.9220513718501024,,,,,,,,,,,,014,001,2,28,f,2021_Nov_10_1340,eye_tracking_exp,2021.2.3,84.97644080491783,
0,270,0,0,12,0,0,12,0,0,j,present,resp,pract,0,31,31,40,,,,,,,1.0785628836303798,446.6660456726404,None,446.6660456726404,None,j,1,1.0979842513697804,,,,,,,,,,,,014,001,2,28,f,2021_Nov_10_1340,eye_tracking_exp,2021.2.3,84.97644080491783,
0,180,0,0,180,0,180,168,0,168,f,abs,resp,pract,0,32,32,14,,,,,,,0.8576209385259277,448.97425299610404,None,448.97425299610404,None,f,1,1.2217328055357939,,,,,,,,,,,,014,001,2,28,f,2021_Nov_10_1340,eye_tracking_exp,2021.2.3,84.97644080491783,
168,0,270,180,180,180,180,168,180,180,f,present,resp,pract,0,33,33,49,,,,,,,0.7639829431241207,451.27977511403697,None,451.27977511403697,None,f,1,1.204215582309189,,,,,,,,,,,,014,001,2,28,f,2021_Nov_10_1340,eye_tracking_exp,2021.2.3,84.97644080491783,
0,180,0,12,0,180,180,180,0,12,j,abs,resp,pract,0,34,34,4,,,,,,,0.9427744291192232,453.6799516324936,None,453.6799516324936,None,j,1,1.5881592243858904,,,,,,,,,,,,014,001,2,28,f,2021_Nov_10_1340,eye_tracking_exp,2021.2.3,84.97644080491783,
90,0,180,168,180,180,0,168,0,0,f,present,resp,pract,0,35,35,46,,,,,,,0.9545055709108978,456.37445758606736,None,456.37445758606736,None,f,1,0.8137744431260217,,,,,,,,,,,,014,001,2,28,f,2021_Nov_10_1340,eye_tracking_exp,2021.2.3,84.97644080491783,
180,12,180,12,180,90,180,180,0,180,j,present,resp,pract,0,36,36,37,,,,,,,1.0005346500747458,458.3980328213238,None,458.3980328213238,None,j,1,1.3490413095732947,,,,,,,,,,,,014,001,2,28,f,2021_Nov_10_1340,eye_tracking_exp,2021.2.3,84.97644080491783,
0,0,180,0,0,0,168,0,180,168,f,abs,resp,pract,0,37,37,15,,,,,,,0.9237782887625166,461.0588629289505,None,461.0588629289505,None,f,1,1.5841887664755632,,,,,,,,,,,,014,001,2,28,f,2021_Nov_10_1340,eye_tracking_exp,2021.2.3,84.97644080491783,
0,168,180,90,0,180,0,168,0,0,f,present,resp,pract,0,38,38,48,,,,,,,0.9903101639115794,463.94038940309656,None,463.94038940309656,None,f,1,1.1506237576977583,,,,,,,,,,,,014,001,2,28,f,2021_Nov_10_1340,eye_tracking_exp,2021.2.3,84.97644080491783,
0,0,0,0,168,0,0,12,0,0,None,abs,inhibit,pract,0,39,39,29,,,,,,,0.8680702975345471,466.08199083118234,None,466.08199083118234,None,j,0,2.8810542961145984,,,,,,,,,,,,014,001,2,28,f,2021_Nov_10_1340,eye_tracking_exp,2021.2.3,84.97644080491783,
12,0,0,-168,0,0,180,180,180,180,None,abs,inhibit,pract,0,40,40,27,,,,,,,1.0551945081204357,470.63621501928174,None,470.63621501928174,None,None,1,,,,,,,,,,,,,014,001,2,28,f,2021_Nov_10_1340,eye_tracking_exp,2021.2.3,84.97644080491783,
0,0,168,0,0,0,0,0,180,168,f,abs,resp,pract,0,41,41,19,,,,,,,0.7709192455185914,474.41441692162334,None,474.41441692162334,None,f,1,1.1086939835495286,,,,,,,,,,,,014,001,2,28,f,2021_Nov_10_1340,eye_tracking_exp,2021.2.3,84.97644080491783,
180,270,180,12,180,0,12,180,0,180,j,present,resp,pract,0,42,42,33,,,,,,,0.9886585692366321,476.5674485838681,None,476.5674485838681,None,j,1,1.4838080806366634,,,,,,,,,,,,014,001,2,28,f,2021_Nov_10_1340,eye_tracking_exp,2021.2.3,84.97644080491783,
0,0,0,-168,0,0,0,12,0,0,None,abs,inhibit,pract,0,43,43,23,,,,,,,0.878134288572657,478.97009026347405,None,478.97009026347405,None,None,1,,,,,,,,,,,,,014,001,2,28,f,2021_Nov_10_1340,eye_tracking_exp,2021.2.3,84.97644080491783,
180,0,180,0,12,0,12,180,180,180,j,abs,resp,pract,0,44,44,7,,,,,,,0.7185786811462798,482.70006260247465,None,482.70006260247465,None,j,1,0.8700215906974336,,,,,,,,,,,,014,001,2,28,f,2021_Nov_10_1340,eye_tracking_exp,2021.2.3,84.97644080491783,
180,12,180,12,0,180,0,180,180,180,j,abs,resp,pract,0,45,45,5,,,,,,,0.8838192050633795,484.82995187396955,None,484.82995187396955,None,j,1,0.9161651091380918,,,,,,,,,,,,014,001,2,28,f,2021_Nov_10_1340,eye_tracking_exp,2021.2.3,84.97644080491783,
180,180,0,168,180,180,180,0,0,168,f,abs,resp,pract,0,46,46,18,,,,,,,1.0817298192457234,487.0656508001284,None,487.0656508001284,None,f,1,0.8726216761806427,,,,,,,,,,,,014,001,2,28,f,2021_Nov_10_1340,eye_tracking_exp,2021.2.3,84.97644080491783,
0,180,0,12,0,180,180,12,0,0,j,abs,resp,pract,0,47,47,2,,,,,,,0.9967061011718787,489.01874180492996,None,489.01874180492996,None,j,1,0.935424274937759,,,,,,,,,,,,014,001,2,28,f,2021_Nov_10_1340,eye_tracking_exp,2021.2.3,84.97644080491783,
180,0,180,12,0,180,180,0,12,180,j,abs,resp,pract,0,48,48,3,,,,,,,0.9358374634915843,491.18410530979963,None,491.18410530979963,None,j,1,0.8169933091085113,,,,,,,,,,,,014,001,2,28,f,2021_Nov_10_1340,eye_tracking_exp,2021.2.3,84.97644080491783,
168,0,180,0,0,180,180,0,168,0,f,abs,resp,pract,0,49,49,13,,,,,,,0.8905906373732598,493.03175460795137,None,493.03175460795137,None,f,1,1.1133825286851788,,,,,,,,,,,,014,001,2,28,f,2021_Nov_10_1340,eye_tracking_exp,2021.2.3,84.97644080491783,
,,,,,,,,,,,,,,,,,,,,,,,,,,,,,,,,space,10.110458262588509,,,,,,,,,,014,001,2,28,f,2021_Nov_10_1340,eye_tracking_exp,2021.2.3,84.97644080491783,
12,0,-12,0,0,0,0,0,0,0,j,abs,resp,freq_bottom,,,,,0,0,0,154,,,0.9767009432934712,,,,,,,,,,506.5160221891656,None,506.5160221891656,None,j,1,2.10813617556596,None,None,014,001,2,28,f,2021_Nov_10_1340,eye_tracking_exp,2021.2.3,84.97644080491783,
180,12,180,0,180,12,0,0,90,0,j,present,resp,freq_bottom,,,,,0,1,1,531,,,1.081852850541358,,,,,,,,,,510.127130717834,None,510.127130717834,None,j,1,1.633075142679445,None,None,014,001,2,28,f,2021_Nov_10_1340,eye_tracking_exp,2021.2.3,84.97644080491783,
168,0,0,0,0,168,180,180,0,0,f,abs,resp,freq_bottom,,,,,0,2,2,276,,,0.9726452052179189,,,,,,,,,,512.9864130894111,None,512.9864130894111,None,f,1,0.9817084527512634,None,None,014,001,2,28,f,2021_Nov_10_1340,eye_tracking_exp,2021.2.3,84.97644080491783,
180,-168,0,180,180,-168,0,0,180,0,f,abs,resp,freq_bottom,,,,,0,3,3,307,,,0.9314781303925058,,,,,,,,,,515.1513377128904,None,515.1513377128904,None,f,1,0.8018778597597702,None,None,014,001,2,28,f,2021_Nov_10_1340,eye_tracking_exp,2021.2.3,84.97644080491783,
0,180,180,180,0,0,12,0,0,168,None,abs,inhibit,freq_bottom,,,,,0,4,4,502,,,0.9135274452809066,,,,,,,,,,517.1282270157753,None,517.1282270157753,None,None,1,,None,None,014,001,2,28,f,2021_Nov_10_1340,eye_tracking_exp,2021.2.3,84.97644080491783,
0,180,180,0,180,12,0,12,180,180,j,abs,resp,freq_bottom,,,,,0,5,5,63,,,1.0373051947355532,,,,,,,,,,521.1771266731212,None,521.1771266731212,None,j,1,0.8070949339962681,None,None,014,001,2,28,f,2021_Nov_10_1340,eye_tracking_exp,2021.2.3,84.97644080491783,
180,0,180,-12,0,0,12,180,0,270,j,present,resp,freq_bottom,,,,,0,6,6,705,,,0.9271171974417499,,,,,,,,,,523.3078460160195,None,523.3078460160195,None,j,1,1.6353887780678633,None,None,014,001,2,28,f,2021_Nov_10_1340,eye_tracking_exp,2021.2.3,84.97644080491783,
180,12,0,180,-168,90,0,180,0,180,None,present,inhibit,freq_bottom,,,,,0,7,7,967,,,0.9708757490328797,,,,,,,,,,526.3432861410074,None,526.3432861410074,None,None,1,,None,None,014,001,2,28,f,2021_Nov_10_1340,eye_tracking_exp,2021.2.3,84.97644080491783,
180,180,180,168,0,180,0,168,0,270,f,present,resp,freq_bottom,,,,,0,8,8,767,,,0.8279187240922548,,,,,,,,,,530.2371535131024,None,530.2371535131024,None,f,1,1.1381286173873377,None,None,014,001,2,28,f,2021_Nov_10_1340,eye_tracking_exp,2021.2.3,84.97644080491783,
180,-12,0,-12,0,0,0,180,0,180,j,abs,resp,freq_bottom,,,,,0,9,9,105,,,0.9469449215704477,,,,,,,,,,532.5787822278999,None,532.5787822278999,None,j,1,0.9724345931772405,None,None,014,001,2,28,f,2021_Nov_10_1340,eye_tracking_exp,2021.2.3,84.97644080491783,
0,0,0,168,0,0,90,180,180,12,None,present,inhibit,freq_bottom,,,,,0,10,10,961,,,0.7781050482683513,,,,,,,,,,534.6025388714879,None,534.6025388714879,None,None,1,,None,None,014,001,2,28,f,2021_Nov_10_1340,eye_tracking_exp,2021.2.3,84.97644080491783,
180,168,0,168,0,0,90,180,180,180,f,present,resp,freq_bottom,,,,,0,11,11,749,,,1.0922226733999505,,,,,,,,,,538.7796308325342,None,538.7796308325342,None,f,1,0.7706916243369051,None,None,014,001,2,28,f,2021_Nov_10_1340,eye_tracking_exp,2021.2.3,84.97644080491783,
180,0,180,-168,180,180,180,0,-168,180,f,abs,resp,freq_bottom,,,,,0,12,12,318,,,0.8803462451913086,,,,,,,,,,540.7328292938528,None,540.7328292938528,None,f,1,0.8334154417716491,None,None,014,001,2,28,f,2021_Nov_10_1340,eye_tracking_exp,2021.2.3,84.97644080491783,
180,0,180,0,180,-12,0,-12,180,270,j,present,resp,freq_bottom,,,,,0,13,13,637,,,0.9248052640287486,,,,,,,,,,542.6275448480028,None,542.6275448480028,None,j,1,1.499721002222941,None,None,014,001,2,28,f,2021_Nov_10_1340,eye_tracking_exp,2021.2.3,84.97644080491783,
0,0,168,0,0,0,168,0,0,0,f,abs,resp,freq_bottom,,,,,0,14,14,270,,,0.949729159614321,,,,,,,,,,545.4287282581663,None,545.4287282581663,None,f,1,1.385623914657117,None,None,014,001,2,28,f,2021_Nov_10_1340,eye_tracking_exp,2021.2.3,84.97644080491783,
0,0,270,-168,0,0,0,180,180,168,f,present,resp,freq_bottom,,,,,0,15,15,891,,,1.0968648334608042,,,,,,,,,,548.0897207579419,None,548.0897207579419,None,f,1,1.6685883139507496,None,None,014,001,2,28,f,2021_Nov_10_1340,eye_tracking_exp,2021.2.3,84.97644080491783,
180,180,180,180,0,0,0,-12,0,12,j,abs,resp,freq_bottom,,,,,0,16,16,189,,,0.853408756566117,,,,,,,,,,550.7242892174017,None,550.7242892174017,None,j,1,1.1780758791792323,None,None,014,001,2,28,f,2021_Nov_10_1340,eye_tracking_exp,2021.2.3,84.97644080491783,
0,0,0,0,0,0,0,-168,0,-168,f,abs,resp,freq_bottom,,,,,0,17,17,329,,,1.068220453689256,,,,,,,,,,553.3716597926687,None,553.3716597926687,None,f,1,0.9456438122215332,None,None,014,001,2,28,f,2021_Nov_10_1340,eye_tracking_exp,2021.2.3,84.97644080491783,
0,180,0,180,180,12,180,180,0,168,None,abs,inhibit,freq_bottom,,,,,0,18,18,433,,,1.037537198832357,,,,,,,,,,555.6073970530342,None,555.6073970530342,None,None,1,,None,None,014,001,2,28,f,2021_Nov_10_1340,eye_tracking_exp,2021.2.3,84.97644080491783,
0,0,168,0,168,180,270,0,0,0,f,present,resp,freq_bottom,,,,,0,19,19,742,,,0.8079969507800726,,,,,,,,,,559.7975706375673,None,559.7975706375673,None,f,1,1.1917596817384037,None,None,014,001,2,28,f,2021_Nov_10_1340,eye_tracking_exp,2021.2.3,84.97644080491783,
180,90,180,0,180,180,-12,0,12,180,j,present,resp,freq_bottom,,,,,0,20,20,649,,,0.835300246470897,,,,,,,,,,562.2098064333841,None,562.2098064333841,None,j,1,0.891599221389697,None,None,014,001,2,28,f,2021_Nov_10_1340,eye_tracking_exp,2021.2.3,84.97644080491783,
-12,180,180,0,12,180,0,0,180,180,j,abs,resp,freq_bottom,,,,,0,21,21,184,,,0.9874634230584225,,,,,,,,,,564.4003778485021,None,564.4003778485021,None,j,1,1.3729102391844208,None,None,014,001,2,28,f,2021_Nov_10_1340,eye_tracking_exp,2021.2.3,84.97644080491783,
0,0,-12,180,180,-12,0,0,0,0,j,abs,resp,freq_bottom,,,,,0,22,22,104,,,0.7268219593197276,,,,,,,,,,566.7875240569774,None,566.7875240569774,None,j,1,1.1618125165387028,None,None,014,001,2,28,f,2021_Nov_10_1340,eye_tracking_exp,2021.2.3,84.97644080491783,
180,180,180,0,12,0,12,0,90,180,j,present,resp,freq_bottom,,,,,0,23,23,566,,,0.8115027926241197,,,,,,,,,,568.8583913276543,None,568.8583913276543,None,j,1,0.834891157805032,None,None,014,001,2,28,f,2021_Nov_10_1340,eye_tracking_exp,2021.2.3,84.97644080491783,
180,180,180,-12,0,0,0,270,180,12,j,present,resp,freq_bottom,,,,,0,24,24,681,,,0.9959349530289405,,,,,,,,,,570.9644641904179,None,570.9644641904179,None,j,1,1.3038775772329245,None,None,014,001,2,28,f,2021_Nov_10_1340,eye_tracking_exp,2021.2.3,84.97644080491783,
0,0,-12,0,0,0,270,0,0,-12,j,present,resp,freq_bottom,,,,,0,25,25,582,,,0.8217925751897441,,,,,,,,,,573.4943247263473,None,573.4943247263473,None,j,1,0.8700007634524809,None,None,014,001,2,28,f,2021_Nov_10_1340,eye_tracking_exp,2021.2.3,84.97644080491783,
180,12,0,168,0,0,90,180,180,180,None,present,inhibit,freq_bottom,,,,,0,26,26,959,,,0.9217490757909927,,,,,,,,,,575.4592754895311,None,575.4592754895311,None,None,1,,None,None,014,001,2,28,f,2021_Nov_10_1340,eye_tracking_exp,2021.2.3,84.97644080491783,
-168,180,180,0,168,180,180,0,180,180,f,abs,resp,freq_bottom,,,,,0,27,27,394,,,0.9811070205580157,,,,,,,,,,579.4499678234133,None,579.4499678234133,None,f,1,0.7703964207594254,None,None,014,001,2,28,f,2021_Nov_10_1340,eye_tracking_exp,2021.2.3,84.97644080491783,
180,168,0,0,12,0,180,180,180,180,None,abs,inhibit,freq_bottom,,,,,0,28,28,442,,,0.8868863128700908,,,,,,,,,,581.2482019144154,None,581.2482019144154,None,None,1,,None,None,014,001,2,28,f,2021_Nov_10_1340,eye_tracking_exp,2021.2.3,84.97644080491783,
168,180,180,0,168,180,180,0,180,90,f,present,resp,freq_bottom,,,,,0,29,29,758,,,0.9899691034725477,,,,,,,,,,585.7429772940759,None,585.7429772940759,None,f,1,0.9403995720131206,None,None,014,001,2,28,f,2021_Nov_10_1340,eye_tracking_exp,2021.2.3,84.97644080491783,
-12,0,0,0,0,0,270,0,-168,0,None,present,inhibit,freq_bottom,,,,,0,30,30,994,,,0.7319616119612672,,,,,,,,,,587.7664559392051,None,587.7664559392051,None,None,1,,None,None,014,001,2,28,f,2021_Nov_10_1340,eye_tracking_exp,2021.2.3,84.97644080491783,
180,180,0,12,0,0,0,12,0,180,j,abs,resp,freq_bottom,,,,,0,31,31,39,,,1.0847492885909544,,,,,,,,,,592.0852619162033,None,592.0852619162033,None,j,1,1.1421452574522846,None,None,014,001,2,28,f,2021_Nov_10_1340,eye_tracking_exp,2021.2.3,84.97644080491783,
0,0,0,0,0,0,0,-12,0,-12,j,abs,resp,freq_bottom,,,,,0,32,32,119,,,0.9956675881653143,,,,,,,,,,594.4621436126145,None,594.4621436126145,None,j,1,1.197242076979819,None,None,014,001,2,28,f,2021_Nov_10_1340,eye_tracking_exp,2021.2.3,84.97644080491783,
180,180,180,168,180,270,180,180,180,-168,f,present,resp,freq_bottom,,,,,0,33,33,863,,,1.0697942047316384,,,,,,,,,,596.9684859618319,None,596.9684859618319,None,f,1,1.1228987691083603,None,None,014,001,2,28,f,2021_Nov_10_1340,eye_tracking_exp,2021.2.3,84.97644080491783,
180,0,168,0,0,90,0,180,168,180,f,present,resp,freq_bottom,,,,,0,34,34,745,,,0.8314512971998047,,,,,,,,,,599.3571262988353,None,599.3571262988353,None,f,1,1.0062658888618898,None,None,014,001,2,28,f,2021_Nov_10_1340,eye_tracking_exp,2021.2.3,84.97644080491783,
0,0,-168,0,0,0,0,0,168,0,f,abs,resp,freq_bottom,,,,,0,35,35,352,,,0.8527978856088081,,,,,,,,,,601.557426754498,None,601.557426754498,None,f,1,0.9169662035055808,None,None,014,001,2,28,f,2021_Nov_10_1340,eye_tracking_exp,2021.2.3,84.97644080491783,
180,180,0,-168,0,-168,0,180,0,180,f,abs,resp,freq_bottom,,,,,0,36,36,321,,,0.8380560151408236,,,,,,,,,,603.4520082898471,None,603.4520082898471,None,f,1,0.6878061271036131,None,None,014,001,2,28,f,2021_Nov_10_1340,eye_tracking_exp,2021.2.3,84.97644080491783,
-168,180,0,0,0,0,-168,0,0,0,f,abs,resp,freq_bottom,,,,,0,37,37,338,,,0.7358999476319129,,,,,,,,,,605.1343571685557,None,605.1343571685557,None,f,1,0.6680431834211049,None,None,014,001,2,28,f,2021_Nov_10_1340,eye_tracking_exp,2021.2.3,84.97644080491783,
180,180,180,0,12,90,0,0,12,0,j,present,resp,freq_bottom,,,,,0,38,38,508,,,1.0561114446451316,,,,,,,,,,607.1344893762925,None,607.1344893762925,None,j,1,1.3556565258986666,None,None,014,001,2,28,f,2021_Nov_10_1340,eye_tracking_exp,2021.2.3,84.97644080491783,
-168,180,180,0,180,180,12,0,270,180,None,present,inhibit,freq_bottom,,,,,0,39,39,943,,,0.7438005754557574,,,,,,,,,,609.5110293851303,None,609.5110293851303,None,None,1,,None,None,014,001,2,28,f,2021_Nov_10_1340,eye_tracking_exp,2021.2.3,84.97644080491783,
0,180,0,0,12,180,0,12,180,180,j,abs,resp,freq_bottom,,,,,0,40,40,54,,,1.0765835635822225,,,,,,,,,,613.6883700657527,None,613.6883700657527,None,j,1,1.1061011423262244,None,None,014,001,2,28,f,2021_Nov_10_1340,eye_tracking_exp,2021.2.3,84.97644080491783,
0,0,0,180,180,180,12,180,180,12,j,abs,resp,freq_bottom,,,,,0,41,41,57,,,1.0996319706360085,,,,,,,,,,616.1726080662411,None,616.1726080662411,None,j,1,0.6688811027725023,None,None,014,001,2,28,f,2021_Nov_10_1340,eye_tracking_exp,2021.2.3,84.97644080491783,
0,180,180,0,168,0,0,0,168,0,f,abs,resp,freq_bottom,,,,,0,42,42,214,,,0.9862696226553036,,,,,,,,,,626.3965347688227,None,626.3965347688227,None,f,1,0.9569521013454505,None,None,014,001,2,28,f,2021_Nov_10_1340,eye_tracking_exp,2021.2.3,84.97644080491783,
-12,0,0,0,0,0,0,0,-12,0,j,abs,resp,freq_bottom,,,,,0,43,43,70,,,0.8560784812616636,,,,,,,,,,628.6311887105458,None,628.6311887105458,None,j,1,1.1863192428336333,None,None,014,001,2,28,f,2021_Nov_10_1340,eye_tracking_exp,2021.2.3,84.97644080491783,
168,0,180,-168,180,90,180,180,0,180,f,present,resp,freq_bottom,,,,,0,44,44,869,,,1.0009171457622854,,,,,,,,,,631.0794942782413,None,631.0794942782413,None,None,0,,634.0683200079202,None,014,001,2,28,f,2021_Nov_10_1340,eye_tracking_exp,2021.2.3,84.97644080491783,
180,-168,180,180,180,-168,0,0,180,90,f,present,resp,freq_bottom,,,,,0,45,45,851,,,0.9457008321276985,,,,,,,,,,635.5507182683323,None,635.5507182683323,None,f,1,1.4338241991154064,None,None,014,001,2,28,f,2021_Nov_10_1340,eye_tracking_exp,2021.2.3,84.97644080491783,
180,168,180,180,180,180,0,168,180,0,f,abs,resp,freq_bottom,,,,,0,46,46,235,,,0.8423051749323962,,,,,,,,,,637.8690156379416,None,637.8690156379416,None,f,1,1.1955073786684807,None,None,014,001,2,28,f,2021_Nov_10_1340,eye_tracking_exp,2021.2.3,84.97644080491783,
168,180,0,168,180,180,180,90,180,180,f,present,resp,freq_bottom,,,,,0,47,47,729,,,0.7611675418544417,,,,,,,,,,640.0928231120852,None,640.0928231120852,None,f,1,1.5488216877711238,None,None,014,001,2,28,f,2021_Nov_10_1340,eye_tracking_exp,2021.2.3,84.97644080491783,
0,0,0,180,180,180,-168,180,180,-168,f,abs,resp,freq_bottom,,,,,0,48,48,337,,,0.7808110622839785,,,,,,,,,,642.8114533554199,None,642.8114533554199,None,f,1,1.3411194099353452,None,None,014,001,2,28,f,2021_Nov_10_1340,eye_tracking_exp,2021.2.3,84.97644080491783,
0,0,12,0,-12,180,180,0,0,0,j,abs,resp,freq_bottom,,,,,0,49,49,168,,,0.9956472039860965,,,,,,,,,,645.4823575114515,None,645.4823575114515,None,j,1,1.0542234906261,None,None,014,001,2,28,f,2021_Nov_10_1340,eye_tracking_exp,2021.2.3,84.97644080491783,
0,0,0,0,0,-12,0,0,-12,0,j,abs,resp,freq_bottom,,,,,0,50,50,76,,,0.8413642223110905,,,,,,,,,,647.8481935231484,None,647.8481935231484,None,j,1,0.9274051814845734,None,None,014,001,2,28,f,2021_Nov_10_1340,eye_tracking_exp,2021.2.3,84.97644080491783,
12,180,0,180,180,180,0,180,12,0,j,abs,resp,freq_bottom,,,,,0,51,51,17,,,1.0683474468128757,,,,,,,,,,650.2835460529641,None,650.2835460529641,None,j,1,0.6357971731958969,None,None,014,001,2,28,f,2021_Nov_10_1340,eye_tracking_exp,2021.2.3,84.97644080491783,
0,-168,0,0,0,180,0,-168,0,0,f,abs,resp,freq_bottom,,,,,0,52,52,331,,,0.7497095897238903,,,,,,,,,,651.8486493078108,None,651.8486493078108,None,f,1,0.9108873642271647,None,None,014,001,2,28,f,2021_Nov_10_1340,eye_tracking_exp,2021.2.3,84.97644080491783,
-12,0,-12,0,0,0,0,180,180,180,j,abs,resp,freq_bottom,,,,,0,53,53,84,,,0.7134854790063467,,,,,,,,,,653.6255553932297,None,653.6255553932297,None,j,1,0.7339762078281638,None,None,014,001,2,28,f,2021_Nov_10_1340,eye_tracking_exp,2021.2.3,84.97644080491783,
0,0,0,-12,0,270,0,-12,0,0,j,present,resp,freq_bottom,,,,,0,54,54,627,,,0.7533297021518186,,,,,,,,,,655.3793978692211,None,655.3793978692211,None,j,1,1.2195655645609804,None,None,014,001,2,28,f,2021_Nov_10_1340,eye_tracking_exp,2021.2.3,84.97644080491783,
0,0,0,0,0,0,0,168,0,168,f,abs,resp,freq_bottom,,,,,0,55,55,259,,,0.8702542162420956,,,,,,,,,,657.8507875717478,None,657.8507875717478,None,f,1,0.668764289088358,None,None,014,001,2,28,f,2021_Nov_10_1340,eye_tracking_exp,2021.2.3,84.97644080491783,
180,168,0,168,0,0,0,180,0,180,f,abs,resp,freq_bottom,,,,,0,56,56,245,,,0.7215739221649307,,,,,,,,,,659.4981427529638,None,659.4981427529638,None,f,1,0.7333088304167177,None,None,014,001,2,28,f,2021_Nov_10_1340,eye_tracking_exp,2021.2.3,84.97644080491783,
180,180,180,12,0,180,-168,180,270,0,None,present,inhibit,freq_bottom,,,,,0,57,57,985,,,0.7311648073953521,,,,,,,,,,661.2631000359797,None,661.2631000359797,None,None,1,,None,None,014,001,2,28,f,2021_Nov_10_1340,eye_tracking_exp,2021.2.3,84.97644080491783,
0,180,180,180,168,0,90,0,168,0,f,present,resp,freq_bottom,,,,,0,58,58,718,,,0.93136318886339,,,,,,,,,,665.2280559305127,None,665.2280559305127,None,f,1,1.2905414991309954,None,None,014,001,2,28,f,2021_Nov_10_1340,eye_tracking_exp,2021.2.3,84.97644080491783,
180,-12,180,180,180,180,270,180,180,-12,j,present,resp,freq_bottom,,,,,0,59,59,597,,,0.9901401745984313,,,,,,,,,,667.7700059282179,None,667.7700059282179,None,j,1,0.8139066508629185,None,None,014,001,2,28,f,2021_Nov_10_1340,eye_tracking_exp,2021.2.3,84.97644080491783,
180,180,180,12,180,168,0,0,90,0,None,present,inhibit,freq_bottom,,,,,0,60,60,993,,,0.9670889025308373,,,,,,,,,,670.0055702318878,None,670.0055702318878,None,None,1,,None,None,014,001,2,28,f,2021_Nov_10_1340,eye_tracking_exp,2021.2.3,84.97644080491783,
0,0,270,0,0,0,-168,0,0,-168,f,present,resp,freq_bottom,,,,,0,61,61,796,,,0.8156487842138461,,,,,,,,,,673.8306120071175,None,673.8306120071175,None,f,1,1.0879947193261614,None,None,014,001,2,28,f,2021_Nov_10_1340,eye_tracking_exp,2021.2.3,84.97644080491783,
0,0,0,168,0,0,0,168,0,90,f,present,resp,freq_bottom,,,,,0,62,62,753,,,0.8474951078048868,,,,,,,,,,676.0298792502672,None,676.0298792502672,None,f,1,0.760740124653239,None,None,014,001,2,28,f,2021_Nov_10_1340,eye_tracking_exp,2021.2.3,84.97644080491783,
270,180,0,0,0,0,-12,0,-12,180,j,present,resp,freq_bottom,,,,,0,63,63,630,,,1.096022289832368,,,,,,,,,,678.159670120569,None,678.159670120569,None,j,1,1.2383408741916355,None,None,014,001,2,28,f,2021_Nov_10_1340,eye_tracking_exp,2021.2.3,84.97644080491783,
180,90,0,0,180,180,-168,180,-168,180,f,present,resp,freq_bottom,,,,,0,64,64,789,,,0.8655123032695939,,,,,,,,,,680.5131311259265,None,680.5131311259265,None,f,1,0.8695845203728823,None,None,014,001,2,28,f,2021_Nov_10_1340,eye_tracking_exp,2021.2.3,84.97644080491783,
-12,0,0,0,0,-12,0,0,0,0,j,abs,resp,freq_bottom,,,,,0,65,65,90,,,0.7631239483074053,,,,,,,,,,682.478139239498,None,682.478139239498,None,j,1,0.9195068256904051,None,None,014,001,2,28,f,2021_Nov_10_1340,eye_tracking_exp,2021.2.3,84.97644080491783,
0,0,0,0,0,-168,0,0,-168,0,f,abs,resp,freq_bottom,,,,,0,66,66,286,,,1.0897562076760554,,,,,,,,,,684.8431708365424,None,684.8431708365424,None,j,0,0.6834293869706016,685.5492075383754,None,014,001,2,28,f,2021_Nov_10_1340,eye_tracking_exp,2021.2.3,84.97644080491783,
168,180,180,0,0,0,168,0,270,0,f,present,resp,freq_bottom,,,,,0,67,67,772,,,0.7456791195885771,,,,,,,,,,686.9375028675186,None,686.9375028675186,None,f,1,1.2277038864522183,None,None,014,001,2,28,f,2021_Nov_10_1340,eye_tracking_exp,2021.2.3,84.97644080491783,
12,0,0,0,-12,0,0,180,180,180,j,abs,resp,freq_bottom,,,,,0,68,68,156,,,0.8612918221784225,,,,,,,,,,689.3283460631064,None,689.3283460631064,None,j,1,0.8060061821579438,None,None,014,001,2,28,f,2021_Nov_10_1340,eye_tracking_exp,2021.2.3,84.97644080491783,
-12,180,0,180,0,180,-12,180,0,180,j,abs,resp,freq_bottom,,,,,0,69,69,89,,,0.7359918526773164,,,,,,,,,,691.0207726123517,None,691.0207726123517,None,j,1,0.7288922468596866,None,None,014,001,2,28,f,2021_Nov_10_1340,eye_tracking_exp,2021.2.3,84.97644080491783,
0,-12,0,180,-12,0,0,180,0,0,j,abs,resp,freq_bottom,,,,,0,70,70,113,,,1.082982799589297,,,,,,,,,,693.1401715923603,None,693.1401715923603,None,j,1,0.6091328649399657,None,None,014,001,2,28,f,2021_Nov_10_1340,eye_tracking_exp,2021.2.3,84.97644080491783,
12,0,180,0,180,180,90,0,12,180,j,present,resp,freq_bottom,,,,,0,71,71,521,,,0.7503900844657804,,,,,,,,,,694.7980756228244,None,694.7980756228244,None,j,1,1.046571741499065,None,None,014,001,2,28,f,2021_Nov_10_1340,eye_tracking_exp,2021.2.3,84.97644080491783,
12,0,180,0,180,90,180,168,180,180,None,present,inhibit,freq_bottom,,,,,0,72,72,974,,,0.8297740446660558,,,,,,,,,,696.9630594077571,None,696.9630594077571,None,None,1,,None,None,014,001,2,28,f,2021_Nov_10_1340,eye_tracking_exp,2021.2.3,84.97644080491783,
0,0,168,180,180,-168,0,0,180,0,f,abs,resp,freq_bottom,,,,,0,73,73,384,,,0.7980795591588759,,,,,,,,,,701.0706451133847,None,701.0706451133847,None,f,1,1.8940366128790629,None,None,014,001,2,28,f,2021_Nov_10_1340,eye_tracking_exp,2021.2.3,84.97644080491783,
180,180,180,0,12,0,180,168,0,180,None,abs,inhibit,freq_bottom,,,,,0,74,74,474,,,0.8458326032660675,,,,,,,,,,704.0585834212707,None,704.0585834212707,None,None,1,,None,None,014,001,2,28,f,2021_Nov_10_1340,eye_tracking_exp,2021.2.3,84.97644080491783,
0,0,0,-12,0,0,0,12,0,0,j,abs,resp,freq_bottom,,,,,0,75,75,179,,,0.9163480397263218,,,,,,,,,,707.9766562792029,None,707.9766562792029,None,j,1,1.786994226715251,None,None,014,001,2,28,f,2021_Nov_10_1340,eye_tracking_exp,2021.2.3,84.97644080491783,
180,-12,180,180,180,180,0,180,-12,180,j,abs,resp,freq_bottom,,,,,0,76,76,71,,,0.9971371334739216,,,,,,,,,,711.1428776251378,None,711.1428776251378,None,j,1,0.7168426285097667,None,None,014,001,2,28,f,2021_Nov_10_1340,eye_tracking_exp,2021.2.3,84.97644080491783,
180,180,180,168,180,90,180,0,0,168,f,present,resp,freq_bottom,,,,,0,77,77,723,,,0.7703355228700837,,,,,,,,,,713.0837065133128,None,713.0837065133128,None,f,1,1.2719998168704478,None,None,014,001,2,28,f,2021_Nov_10_1340,eye_tracking_exp,2021.2.3,84.97644080491783,
0,180,0,180,168,0,0,270,0,168,f,present,resp,freq_bottom,,,,,0,78,78,759,,,0.9422037749623199,,,,,,,,,,715.7902823087934,None,715.7902823087934,None,f,1,1.3173452593837283,None,None,014,001,2,28,f,2021_Nov_10_1340,eye_tracking_exp,2021.2.3,84.97644080491783,
180,180,0,-168,0,270,0,-168,0,0,f,present,resp,freq_bottom,,,,,0,79,79,837,,,0.8376103505705518,,,,,,,,,,718.1801399832402,None,718.1801399832402,None,f,1,1.007546009890575,None,None,014,001,2,28,f,2021_Nov_10_1340,eye_tracking_exp,2021.2.3,84.97644080491783,
12,0,0,180,180,12,180,180,90,0,j,present,resp,freq_bottom,,,,,0,80,80,570,,,1.0575101267104152,,,,,,,,,,720.4146722817713,None,720.4146722817713,None,j,1,1.4771397397416877,None,None,014,001,2,28,f,2021_Nov_10_1340,eye_tracking_exp,2021.2.3,84.97644080491783,
168,0,0,0,0,168,0,0,0,90,f,present,resp,freq_bottom,,,,,0,81,81,734,,,1.0258209579329458,,,,,,,,,,723.0859057497673,None,723.0859057497673,None,f,1,0.9498159020222374,None,None,014,001,2,28,f,2021_Nov_10_1340,eye_tracking_exp,2021.2.3,84.97644080491783,
0,0,0,180,180,180,-12,0,180,-12,j,abs,resp,freq_bottom,,,,,0,82,82,127,,,0.9218800230812104,,,,,,,,,,725.239460206074,None,725.239460206074,None,j,1,1.0512696438036073,None,None,014,001,2,28,f,2021_Nov_10_1340,eye_tracking_exp,2021.2.3,84.97644080491783,
0,180,180,0,180,168,0,168,180,0,f,abs,resp,freq_bottom,,,,,0,83,83,273,,,0.729628958366397,,,,,,,,,,784.4062973140699,None,784.4062973140699,None,f,1,1.2895885771595204,None,None,014,001,2,28,f,2021_Nov_10_1340,eye_tracking_exp,2021.2.3,84.97644080491783,
0,180,180,0,180,180,0,168,180,168,f,abs,resp,freq_bottom,,,,,0,84,84,221,,,1.0991636224756671,,,,,,,,,,787.053902422238,None,787.053902422238,None,f,1,0.8491113374147972,None,None,014,001,2,28,f,2021_Nov_10_1340,eye_tracking_exp,2021.2.3,84.97644080491783,
180,180,168,180,180,0,0,168,180,0,f,abs,resp,freq_bottom,,,,,0,85,85,262,,,0.8464484035936592,,,,,,,,,,788.9129345650181,None,788.9129345650181,None,f,1,0.8459775914798229,None,None,014,001,2,28,f,2021_Nov_10_1340,eye_tracking_exp,2021.2.3,84.97644080491783,
180,180,0,0,168,180,180,0,168,180,f,abs,resp,freq_bottom,,,,,0,86,86,256,,,1.0167808376119223,,,,,,,,,,791.1248952600799,None,791.1248952600799,None,f,1,0.7619782893434603,None,None,014,001,2,28,f,2021_Nov_10_1340,eye_tracking_exp,2021.2.3,84.97644080491783,
180,0,180,0,180,90,180,12,180,168,None,present,inhibit,freq_bottom,,,,,0,87,87,1005,,,1.0337816307783685,,,,,,,,,,793.1257857003147,None,793.1257857003147,None,None,1,,None,None,014,001,2,28,f,2021_Nov_10_1340,eye_tracking_exp,2021.2.3,84.97644080491783,
168,180,180,180,180,90,180,180,168,0,f,present,resp,freq_bottom,,,,,0,88,88,731,,,0.9871182682350208,,,,,,,,,,797.1157720207375,None,797.1157720207375,None,f,1,0.9471482034514338,None,None,014,001,2,28,f,2021_Nov_10_1340,eye_tracking_exp,2021.2.3,84.97644080491783,
180,168,0,180,180,180,168,0,180,0,f,abs,resp,freq_bottom,,,,,0,89,89,269,,,1.0137331539902272,,,,,,,,,,799.3394943748317,None,799.3394943748317,None,f,1,0.7554762645740993,None,None,014,001,2,28,f,2021_Nov_10_1340,eye_tracking_exp,2021.2.3,84.97644080491783,
-168,180,180,180,180,180,12,180,180,180,None,abs,inhibit,freq_bottom,,,,,0,90,90,439,,,0.9574475293330214,,,,,,,,,,801.22249928161,None,801.22249928161,None,None,1,,None,None,014,001,2,28,f,2021_Nov_10_1340,eye_tracking_exp,2021.2.3,84.97644080491783,
180,0,180,12,180,180,12,0,270,180,j,present,resp,freq_bottom,,,,,0,91,91,544,,,0.9144343908714507,,,,,,,,,,805.188565057073,None,805.188565057073,None,j,1,1.017411483990145,None,None,014,001,2,28,f,2021_Nov_10_1340,eye_tracking_exp,2021.2.3,84.97644080491783,
0,-168,0,0,0,0,0,0,168,0,f,abs,resp,freq_bottom,,,,,0,92,92,374,,,0.902444322441616,,,,,,,,,,807.5064968934203,None,807.5064968934203,None,f,1,1.003472623126072,None,None,014,001,2,28,f,2021_Nov_10_1340,eye_tracking_exp,2021.2.3,84.97644080491783,
0,0,-168,180,180,180,90,0,0,-168,f,present,resp,freq_bottom,,,,,0,93,93,814,,,1.0225845724869598,,,,,,,,,,809.8481485483699,None,809.8481485483699,None,f,1,1.190081428281701,None,None,014,001,2,28,f,2021_Nov_10_1340,eye_tracking_exp,2021.2.3,84.97644080491783,
0,168,0,0,0,0,0,0,168,0,f,abs,resp,freq_bottom,,,,,0,94,94,234,,,0.8839741095593161,,,,,,,,,,812.2248319331793,None,812.2248319331793,None,f,1,0.6691883801140648,None,None,014,001,2,28,f,2021_Nov_10_1340,eye_tracking_exp,2021.2.3,84.97644080491783,
-168,180,0,-168,180,90,180,0,0,0,f,present,resp,freq_bottom,,,,,0,95,95,820,,,1.0904479145791535,,,,,,,,,,814.2720774846002,None,814.2720774846002,None,f,1,0.7182712568592251,None,None,014,001,2,28,f,2021_Nov_10_1340,eye_tracking_exp,2021.2.3,84.97644080491783,
0,180,12,0,0,0,12,180,0,0,j,abs,resp,freq_bottom,,,,,0,96,96,33,,,0.8750572576189568,,,,,,,,,,816.3665190850006,None,816.3665190850006,None,j,1,1.2314796548871527,None,None,014,001,2,28,f,2021_Nov_10_1340,eye_tracking_exp,2021.2.3,84.97644080491783,
168,0,168,0,0,90,0,180,180,180,f,present,resp,freq_bottom,,,,,0,97,97,743,,,0.7882644813225845,,,,,,,,,,818.6630109315865,None,818.6630109315865,None,f,1,0.7419518357237394,None,None,014,001,2,28,f,2021_Nov_10_1340,eye_tracking_exp,2021.2.3,84.97644080491783,
12,180,180,0,12,180,270,0,180,180,j,present,resp,freq_bottom,,,,,0,98,98,548,,,0.8333021768122182,,,,,,,,,,820.4972809879237,None,820.4972809879237,None,j,1,0.6677328876376123,None,None,014,001,2,28,f,2021_Nov_10_1340,eye_tracking_exp,2021.2.3,84.97644080491783,
180,12,180,0,180,0,180,0,180,168,None,abs,inhibit,freq_bottom,,,,,0,99,99,427,,,1.0781089188352329,,,,,,,,,,822.4033322990126,None,822.4033322990126,None,None,1,,None,None,014,001,2,28,f,2021_Nov_10_1340,eye_tracking_exp,2021.2.3,84.97644080491783,
180,0,180,0,-12,180,0,0,-12,0,j,abs,resp,freq_bottom,,,,,0,100,100,116,,,0.7767404506388896,,,,,,,,,,826.1812036820156,None,826.1812036820156,None,j,1,0.8077598966519872,None,None,014,001,2,28,f,2021_Nov_10_1340,eye_tracking_exp,2021.2.3,84.97644080491783,
180,180,180,180,-12,0,0,0,12,0,j,abs,resp,freq_bottom,,,,,0,101,101,144,,,1.0207610854577074,,,,,,,,,,828.1118785330855,None,828.1118785330855,None,j,1,0.7332037886553735,None,None,014,001,2,28,f,2021_Nov_10_1340,eye_tracking_exp,2021.2.3,84.97644080491783,
180,180,180,168,180,180,12,0,180,180,None,abs,inhibit,freq_bottom,,,,,0,102,102,460,,,0.9321896265963562,,,,,,,,,,830.0410538224332,None,830.0410538224332,None,None,1,,None,None,014,001,2,28,f,2021_Nov_10_1340,eye_tracking_exp,2021.2.3,84.97644080491783,
180,0,168,180,180,168,0,180,180,180,f,abs,resp,freq_bottom,,,,,0,103,103,244,,,0.8138657235963542,,,,,,,,,,833.8895977866359,None,833.8895977866359,None,f,1,0.762450675434593,None,None,014,001,2,28,f,2021_Nov_10_1340,eye_tracking_exp,2021.2.3,84.97644080491783,
0,180,180,180,0,0,0,12,0,12,j,abs,resp,freq_bottom,,,,,0,104,104,49,,,0.7113670607884552,,,,,,,,,,835.6310809521856,None,835.6310809521856,None,j,1,0.7489292650261632,None,None,014,001,2,28,f,2021_Nov_10_1340,eye_tracking_exp,2021.2.3,84.97644080491783,
180,0,-168,180,180,180,180,12,180,180,None,abs,inhibit,freq_bottom,,,,,0,105,105,452,,,0.9975450250786997,,,,,,,,,,837.654669468584,None,837.654669468584,None,None,1,,None,None,014,001,2,28,f,2021_Nov_10_1340,eye_tracking_exp,2021.2.3,84.97644080491783,
-12,0,0,0,0,0,0,0,12,0,j,abs,resp,freq_bottom,,,,,0,106,106,140,,,0.7761514492967416,,,,,,,,,,841.4216804991775,None,841.4216804991775,None,j,1,1.0223922142595256,None,None,014,001,2,28,f,2021_Nov_10_1340,eye_tracking_exp,2021.2.3,84.97644080491783,
180,0,12,0,0,0,-12,180,270,180,j,present,resp,freq_bottom,,,,,0,107,107,677,,,0.7806014379543492,,,,,,,,,,843.6338865935304,None,843.6338865935304,None,j,1,0.9079742663652723,None,None,014,001,2,28,f,2021_Nov_10_1340,eye_tracking_exp,2021.2.3,84.97644080491783,
180,180,12,0,0,0,-12,0,180,0,j,abs,resp,freq_bottom,,,,,0,108,108,173,,,0.9519527385634206,,,,,,,,,,845.8687753699996,None,845.8687753699996,None,j,1,0.8470452142282738,None,None,014,001,2,28,f,2021_Nov_10_1340,eye_tracking_exp,2021.2.3,84.97644080491783,
0,180,0,168,180,180,12,0,270,180,None,present,inhibit,freq_bottom,,,,,0,109,109,964,,,1.0261294526085216,,,,,,,,,,848.0102684360354,None,848.0102684360354,None,None,1,,None,None,014,001,2,28,f,2021_Nov_10_1340,eye_tracking_exp,2021.2.3,84.97644080491783,
180,180,-168,0,12,180,180,0,0,180,None,abs,inhibit,freq_bottom,,,,,0,110,110,448,,,0.7636942728974216,,,,,,,,,,852.0696472166346,None,852.0696472166346,None,None,1,,None,None,014,001,2,28,f,2021_Nov_10_1340,eye_tracking_exp,2021.2.3,84.97644080491783,
0,180,0,0,-168,180,12,180,270,180,None,present,inhibit,freq_bottom,,,,,0,111,111,972,,,1.0067098218239532,,,,,,,,,,856.3652923903883,None,856.3652923903883,None,None,1,,None,None,014,001,2,28,f,2021_Nov_10_1340,eye_tracking_exp,2021.2.3,84.97644080491783,
0,180,0,0,-168,90,180,0,-168,180,f,present,resp,freq_bottom,,,,,0,112,112,830,,,0.8394327926134493,,,,,,,,,,860.4722360735141,None,860.4722360735141,None,f,1,1.7313317512562207,None,None,014,001,2,28,f,2021_Nov_10_1340,eye_tracking_exp,2021.2.3,84.97644080491783,
0,180,180,180,180,90,0,-168,0,168,f,present,resp,freq_bottom,,,,,0,113,113,903,,,0.7071713683154557,,,,,,,,,,863.1789344177178,None,863.1789344177178,None,f,1,1.6001611513584066,None,None,014,001,2,28,f,2021_Nov_10_1340,eye_tracking_exp,2021.2.3,84.97644080491783,
0,-168,0,0,0,0,-168,0,0,0,f,abs,resp,freq_bottom,,,,,0,114,114,306,,,0.7106433886751089,,,,,,,,,,865.8851175139625,None,865.8851175139625,None,f,1,0.8930619581260544,None,None,014,001,2,28,f,2021_Nov_10_1340,eye_tracking_exp,2021.2.3,84.97644080491783,
180,-12,180,0,0,180,180,-12,180,0,j,abs,resp,freq_bottom,,,,,0,115,115,95,,,0.797270216537601,,,,,,,,,,867.8853067702421,None,867.8853067702421,None,j,1,0.893938513529065,None,None,014,001,2,28,f,2021_Nov_10_1340,eye_tracking_exp,2021.2.3,84.97644080491783,
-168,180,180,0,0,180,-168,180,0,90,f,present,resp,freq_bottom,,,,,0,116,116,803,,,0.8013878060609987,,,,,,,,,,869.7211313239368,None,869.7211313239368,None,f,1,1.5051351806869206,None,None,014,001,2,28,f,2021_Nov_10_1340,eye_tracking_exp,2021.2.3,84.97644080491783,
-168,180,180,180,180,270,0,-168,0,0,f,present,resp,freq_bottom,,,,,0,117,117,802,,,0.9781326860825734,,,,,,,,,,872.2864763559446,None,872.2864763559446,None,f,1,0.9716247453325195,None,None,014,001,2,28,f,2021_Nov_10_1340,eye_tracking_exp,2021.2.3,84.97644080491783,
0,0,-12,180,180,180,90,0,0,-12,j,present,resp,freq_bottom,,,,,0,118,118,604,,,0.7792217319351464,,,,,,,,,,874.4164127151234,None,874.4164127151234,None,j,1,0.9377686984280444,None,None,014,001,2,28,f,2021_Nov_10_1340,eye_tracking_exp,2021.2.3,84.97644080491783,
168,0,180,0,180,0,180,-168,0,180,f,abs,resp,freq_bottom,,,,,0,119,119,400,,,1.0001702414745304,,,,,,,,,,876.3949995894909,None,876.3949995894909,None,f,1,1.1031518231666269,None,None,014,001,2,28,f,2021_Nov_10_1340,eye_tracking_exp,2021.2.3,84.97644080491783,
180,-168,180,-168,0,180,180,90,180,180,f,present,resp,freq_bottom,,,,,0,120,120,805,,,1.0524611379055382,,,,,,,,,,878.6410581086202,None,878.6410581086202,None,f,1,0.6810405923915823,None,None,014,001,2,28,f,2021_Nov_10_1340,eye_tracking_exp,2021.2.3,84.97644080491783,
180,0,180,0,0,12,180,180,180,168,None,abs,inhibit,freq_bottom,,,,,0,121,121,503,,,0.9284486276119264,,,,,,,,,,880.5118670026386,None,880.5118670026386,None,None,1,,None,None,014,001,2,28,f,2021_Nov_10_1340,eye_tracking_exp,2021.2.3,84.97644080491783,
0,0,12,0,12,180,0,180,180,0,j,abs,resp,freq_bottom,,,,,0,122,122,28,,,0.7373447847343891,,,,,,,,,,884.5247620864429,None,884.5247620864429,None,j,1,0.9564386644506158,None,None,014,001,2,28,f,2021_Nov_10_1340,eye_tracking_exp,2021.2.3,84.97644080491783,
0,0,0,0,168,0,0,0,0,-168,f,abs,resp,freq_bottom,,,,,0,123,123,360,,,1.039773976436149,,,,,,,,,,887.0660287089995,None,887.0660287089995,None,f,1,0.9911658335640823,None,None,014,001,2,28,f,2021_Nov_10_1340,eye_tracking_exp,2021.2.3,84.97644080491783,
0,0,0,12,0,0,270,180,180,12,j,present,resp,freq_bottom,,,,,0,124,124,541,,,1.0329691612662146,,,,,,,,,,889.3608552814276,None,889.3608552814276,None,j,1,1.0804311086903908,None,None,014,001,2,28,f,2021_Nov_10_1340,eye_tracking_exp,2021.2.3,84.97644080491783,
0,0,180,0,-168,180,270,0,12,180,None,present,inhibit,freq_bottom,,,,,0,125,125,970,,,0.7919199945263108,,,,,,,,,,896.7496773286057,None,896.7496773286057,None,None,1,,None,None,014,001,2,28,f,2021_Nov_10_1340,eye_tracking_exp,2021.2.3,84.97644080491783,
-168,0,0,0,0,-168,0,0,270,0,f,present,resp,freq_bottom,,,,,0,126,126,804,,,1.0734588594320333,,,,,,,,,,900.8562449139263,None,900.8562449139263,None,f,1,0.87997037378409,None,None,014,001,2,28,f,2021_Nov_10_1340,eye_tracking_exp,2021.2.3,84.97644080491783,
0,0,0,168,0,0,0,180,180,12,None,abs,inhibit,freq_bottom,,,,,0,127,127,457,,,0.8734389073713619,,,,,,,,,,902.7505647503986,None,902.7505647503986,None,None,1,,None,None,014,001,2,28,f,2021_Nov_10_1340,eye_tracking_exp,2021.2.3,84.97644080491783,
0,0,0,12,0,12,0,180,0,90,j,present,resp,freq_bottom,,,,,0,128,128,545,,,0.8947130475059172,,,,,,,,,,906.6584518775908,None,906.6584518775908,None,j,1,1.3977511069515458,None,None,014,001,2,28,f,2021_Nov_10_1340,eye_tracking_exp,2021.2.3,84.97644080491783,
0,0,0,0,0,0,168,0,0,168,f,abs,resp,freq_bottom,,,,,0,129,129,222,,,0.748195272796174,,,,,,,,,,909.06056683916,None,909.06056683916,None,f,1,0.9637025438496494,None,None,014,001,2,28,f,2021_Nov_10_1340,eye_tracking_exp,2021.2.3,84.97644080491783,
0,0,0,0,0,0,168,0,0,-168,f,abs,resp,freq_bottom,,,,,0,130,130,362,,,0.7388748980165717,,,,,,,,,,911.0714440948414,None,911.0714440948414,None,f,1,0.6807689326578839,None,None,014,001,2,28,f,2021_Nov_10_1340,eye_tracking_exp,2021.2.3,84.97644080491783,
0,0,168,0,0,0,0,0,168,0,f,abs,resp,freq_bottom,,,,,0,131,131,212,,,0.7206246666546061,,,,,,,,,,912.7196661724465,None,912.7196661724465,None,f,1,1.4795445320614817,None,None,014,001,2,28,f,2021_Nov_10_1340,eye_tracking_exp,2021.2.3,84.97644080491783,
0,180,168,0,168,0,180,0,0,180,f,abs,resp,freq_bottom,,,,,0,132,132,252,,,0.97771016429434,,,,,,,,,,915.508047466803,None,915.508047466803,None,f,1,0.7407166894736292,None,None,014,001,2,28,f,2021_Nov_10_1340,eye_tracking_exp,2021.2.3,84.97644080491783,
180,180,180,0,-168,0,-168,0,0,180,f,abs,resp,freq_bottom,,,,,0,133,133,342,,,0.7865955597934393,,,,,,,,,,917.332052709231,None,917.332052709231,None,f,1,1.2192238769857795,None,None,014,001,2,28,f,2021_Nov_10_1340,eye_tracking_exp,2021.2.3,84.97644080491783,
180,180,180,180,90,168,0,0,168,0,f,present,resp,freq_bottom,,,,,0,134,134,720,,,0.7390482595629767,,,,,,,,,,919.4154320234902,None,919.4154320234902,None,f,1,1.1518990492186276,None,None,014,001,2,28,f,2021_Nov_10_1340,eye_tracking_exp,2021.2.3,84.97644080491783,
12,0,0,0,0,-12,0,270,0,0,j,present,resp,freq_bottom,,,,,0,135,135,664,,,0.8977719947896556,,,,,,,,,,921.5694247574975,None,921.5694247574975,None,j,1,1.3188581022495782,None,None,014,001,2,28,f,2021_Nov_10_1340,eye_tracking_exp,2021.2.3,84.97644080491783,
0,0,-168,0,180,180,180,0,0,12,None,abs,inhibit,freq_bottom,,,,,0,136,136,450,,,0.8406776126882525,,,,,,,,,,924.0628101448601,None,924.0628101448601,None,None,1,,None,None,014,001,2,28,f,2021_Nov_10_1340,eye_tracking_exp,2021.2.3,84.97644080491783,
0,0,12,0,12,180,180,270,0,0,j,present,resp,freq_bottom,,,,,0,137,137,532,,,0.9106087199594195,,,,,,,,,,928.3108741165015,None,928.3108741165015,None,j,1,0.7673855253942747,None,None,014,001,2,28,f,2021_Nov_10_1340,eye_tracking_exp,2021.2.3,84.97644080491783,
0,180,180,180,12,0,90,0,-168,0,None,present,inhibit,freq_bottom,,,,,0,138,138,928,,,1.042729544429719,,,,,,,,,,930.2879719936918,None,930.2879719936918,None,None,1,,None,None,014,001,2,28,f,2021_Nov_10_1340,eye_tracking_exp,2021.2.3,84.97644080491783,
180,0,180,0,180,180,180,12,180,12,j,abs,resp,freq_bottom,,,,,0,139,139,11,,,1.0042668854647443,,,,,,,,,,934.323502671923,None,934.323502671923,None,j,1,1.634912166156937,None,None,014,001,2,28,f,2021_Nov_10_1340,eye_tracking_exp,2021.2.3,84.97644080491783,
180,180,180,180,-12,0,270,0,-12,0,j,present,resp,freq_bottom,,,,,0,140,140,578,,,0.8971779057681273,,,,,,,,,,937.0300081377172,None,937.0300081377172,None,j,1,1.0722894665123022,None,None,014,001,2,28,f,2021_Nov_10_1340,eye_tracking_exp,2021.2.3,84.97644080491783,
168,0,168,0,0,0,0,0,0,0,f,abs,resp,freq_bottom,,,,,0,141,141,224,,,0.9082338982250036,,,,,,,,,,939.277909415363,None,939.277909415363,None,f,1,1.0323799352408969,None,None,014,001,2,28,f,2021_Nov_10_1340,eye_tracking_exp,2021.2.3,84.97644080491783,
0,0,270,-168,0,168,0,180,0,0,f,present,resp,freq_bottom,,,,,0,142,142,895,,,0.891846638182542,,,,,,,,,,941.3367986047542,None,941.3367986047542,None,f,1,1.3735057776884787,None,None,014,001,2,28,f,2021_Nov_10_1340,eye_tracking_exp,2021.2.3,84.97644080491783,
0,180,0,12,180,180,180,0,12,180,j,abs,resp,freq_bottom,,,,,0,143,143,38,,,0.8664489864255156,,,,,,,,,,943.8431859287502,None,943.8431859287502,None,j,1,0.7232936416203302,None,None,014,001,2,28,f,2021_Nov_10_1340,eye_tracking_exp,2021.2.3,84.97644080491783,
-12,180,180,0,0,0,12,0,90,0,j,present,resp,freq_bottom,,,,,0,144,144,702,,,1.0028778656946236,,,,,,,,,,945.8082269433326,None,945.8082269433326,None,j,1,1.1090718924206158,None,None,014,001,2,28,f,2021_Nov_10_1340,eye_tracking_exp,2021.2.3,84.97644080491783,
0,0,12,180,0,180,180,270,0,-12,j,present,resp,freq_bottom,,,,,0,145,145,674,,,1.0217984518727636,,,,,,,,,,948.2441279239629,None,948.2441279239629,None,j,1,0.9452438687276299,None,None,014,001,2,28,f,2021_Nov_10_1340,eye_tracking_exp,2021.2.3,84.97644080491783,
90,0,168,180,180,180,180,-168,0,0,f,present,resp,freq_bottom,,,,,0,146,146,886,,,0.8378099141216868,,,,,,,,,,950.3993548986891,None,950.3993548986891,None,f,1,1.1740181883105834,None,None,014,001,2,28,f,2021_Nov_10_1340,eye_tracking_exp,2021.2.3,84.97644080491783,
0,0,-168,180,180,180,180,0,0,-168,f,abs,resp,freq_bottom,,,,,0,147,147,310,,,0.7203625735982497,,,,,,,,,,952.6459093477497,None,952.6459093477497,None,f,1,0.7514246105893108,None,None,014,001,2,28,f,2021_Nov_10_1340,eye_tracking_exp,2021.2.3,84.97644080491783,
0,180,0,0,168,180,180,168,180,0,f,abs,resp,freq_bottom,,,,,0,148,148,264,,,0.7154424732863489,,,,,,,,,,954.2577362654865,None,954.2577362654865,None,f,1,0.6115808209706302,None,None,014,001,2,28,f,2021_Nov_10_1340,eye_tracking_exp,2021.2.3,84.97644080491783,
180,180,180,-168,180,180,-168,180,90,180,f,present,resp,freq_bottom,,,,,0,149,149,845,,,1.0479656663793917,,,,,,,,,,956.1285487816349,None,956.1285487816349,None,f,1,0.7888282317526318,None,None,014,001,2,28,f,2021_Nov_10_1340,eye_tracking_exp,2021.2.3,84.97644080491783,
0,180,180,180,180,0,12,0,0,12,j,abs,resp,freq_bottom,,,,,0,150,150,12,,,0.9736679315597853,,,,,,,,,,958.107035443747,None,958.107035443747,None,j,1,1.6093399300243618,None,None,014,001,2,28,f,2021_Nov_10_1340,eye_tracking_exp,2021.2.3,84.97644080491783,
0,0,0,180,-168,0,0,180,0,-168,f,abs,resp,freq_bottom,,,,,0,151,151,325,,,1.0119975581870573,,,,,,,,,,960.8713190106264,None,960.8713190106264,None,f,1,1.1810119171968836,None,None,014,001,2,28,f,2021_Nov_10_1340,eye_tracking_exp,2021.2.3,84.97644080491783,
180,0,180,-168,180,180,180,0,180,-168,f,abs,resp,freq_bottom,,,,,0,152,152,289,,,0.8498948494762575,,,,,,,,,,963.1773485285703,None,963.1773485285703,None,f,1,0.9085245282458345,None,None,014,001,2,28,f,2021_Nov_10_1340,eye_tracking_exp,2021.2.3,84.97644080491783,
180,0,-168,0,0,0,-168,0,180,180,f,abs,resp,freq_bottom,,,,,0,153,153,340,,,0.8204569047287089,,,,,,,,,,965.1672533510737,None,965.1672533510737,None,f,1,0.7731350527046743,None,None,014,001,2,28,f,2021_Nov_10_1340,eye_tracking_exp,2021.2.3,84.97644080491783,
180,168,180,180,180,180,180,270,180,-168,f,present,resp,freq_bottom,,,,,0,154,154,861,,,1.0117455246955984,,,,,,,,,,967.0843219735289,None,967.0843219735289,None,f,1,1.192082051287798,None,None,014,001,2,28,f,2021_Nov_10_1340,eye_tracking_exp,2021.2.3,84.97644080491783,
0,180,180,180,168,0,90,0,0,-168,f,present,resp,freq_bottom,,,,,0,155,155,864,,,1.0570181267861685,,,,,,,,,,969.579025514282,None,969.579025514282,None,f,1,1.11343776616377,None,None,014,001,2,28,f,2021_Nov_10_1340,eye_tracking_exp,2021.2.3,84.97644080491783,
180,0,0,180,-168,90,0,12,0,180,None,present,inhibit,freq_bottom,,,,,0,156,156,971,,,0.9364233153540487,,,,,,,,,,971.8381357743256,None,971.8381357743256,None,None,1,,None,None,014,001,2,28,f,2021_Nov_10_1340,eye_tracking_exp,2021.2.3,84.97644080491783,
180,168,0,180,180,180,168,0,0,90,f,present,resp,freq_bottom,,,,,0,157,157,773,,,0.7130605338572717,,,,,,,,,,975.8395405569863,None,975.8395405569863,None,f,1,1.1559012007637648,None,None,014,001,2,28,f,2021_Nov_10_1340,eye_tracking_exp,2021.2.3,84.97644080491783,
0,-12,0,180,180,180,-12,180,0,180,j,abs,resp,freq_bottom,,,,,0,158,158,129,,,0.8496500707533261,,,,,,,,,,978.1107608042093,None,978.1107608042093,None,j,1,1.0127051300496532,None,None,014,001,2,28,f,2021_Nov_10_1340,eye_tracking_exp,2021.2.3,84.97644080491783,
0,0,180,12,180,90,180,0,12,180,j,present,resp,freq_bottom,,,,,0,159,159,542,,,1.0615662453195205,,,,,,,,,,980.4304234148949,None,980.4304234148949,None,j,1,1.061019813439998,None,None,014,001,2,28,f,2021_Nov_10_1340,eye_tracking_exp,2021.2.3,84.97644080491783,
180,0,180,0,180,90,180,-168,0,-168,f,present,resp,freq_bottom,,,,,0,160,160,795,,,0.7849268620965175,,,,,,,,,,982.5239474090904,None,982.5239474090904,None,f,1,1.0795273873136466,None,None,014,001,2,28,f,2021_Nov_10_1340,eye_tracking_exp,2021.2.3,84.97644080491783,
180,180,-12,180,0,0,180,-12,180,90,j,present,resp,freq_bottom,,,,,0,161,161,626,,,0.8140899643258726,,,,,,,,,,984.6654003298554,None,984.6654003298554,None,j,1,1.0821132861201477,None,None,014,001,2,28,f,2021_Nov_10_1340,eye_tracking_exp,2021.2.3,84.97644080491783,
-12,180,180,0,0,0,-12,0,270,0,j,present,resp,freq_bottom,,,,,0,162,162,632,,,1.0100569460997137,,,,,,,,,,987.0305635309487,None,987.0305635309487,None,j,1,1.100897047388571,None,None,014,001,2,28,f,2021_Nov_10_1340,eye_tracking_exp,2021.2.3,84.97644080491783,
180,0,180,0,-12,180,0,-12,180,0,j,abs,resp,freq_bottom,,,,,0,163,163,124,,,0.8103540116238293,,,,,,,,,,989.0782576227721,None,989.0782576227721,None,j,1,0.7001741910262353,None,None,014,001,2,28,f,2021_Nov_10_1340,eye_tracking_exp,2021.2.3,84.97644080491783,
0,0,0,0,0,0,0,168,0,12,None,abs,inhibit,freq_bottom,,,,,0,164,164,469,,,0.7223161601228021,,,,,,,,,,990.702025193119,None,990.702025193119,None,None,1,,None,None,014,001,2,28,f,2021_Nov_10_1340,eye_tracking_exp,2021.2.3,84.97644080491783,
180,180,180,90,0,-168,180,180,-168,180,f,present,resp,freq_bottom,,,,,0,165,165,848,,,0.8036621166333127,,,,,,,,,,994.7747669159489,None,994.7747669159489,None,f,1,1.0850067641131318,None,None,014,001,2,28,f,2021_Nov_10_1340,eye_tracking_exp,2021.2.3,84.97644080491783,
180,180,-12,0,12,180,180,0,270,180,j,present,resp,freq_bottom,,,,,0,166,166,686,,,1.0884751120272531,,,,,,,,,,997.2455287826506,None,997.2455287826506,None,j,1,1.0449514421197819,None,None,014,001,2,28,f,2021_Nov_10_1340,eye_tracking_exp,2021.2.3,84.97644080491783,
168,180,180,-168,180,180,0,180,0,180,f,abs,resp,freq_bottom,,,,,0,167,167,365,,,0.7452452359852987,,,,,,,,,,1004.0698974454317,None,1004.0698974454317,None,f,1,2.843588495057702,None,None,014,001,2,28,f,2021_Nov_10_1340,eye_tracking_exp,2021.2.3,84.97644080491783,
0,-12,0,180,180,180,90,180,0,12,j,present,resp,freq_bottom,,,,,0,168,168,667,,,0.7521707736022996,,,,,,,,,,1007.9772838131848,None,1007.9772838131848,None,j,1,0.9682012290159037,None,None,014,001,2,28,f,2021_Nov_10_1340,eye_tracking_exp,2021.2.3,84.97644080491783,
0,168,0,0,0,270,0,168,0,0,f,present,resp,freq_bottom,,,,,0,169,169,765,,,0.738646746394162,,,,,,,,,,1010.0022900915428,None,1010.0022900915428,None,f,1,0.9591763908647408,None,None,014,001,2,28,f,2021_Nov_10_1340,eye_tracking_exp,2021.2.3,84.97644080491783,
-12,180,180,0,180,180,-12,180,270,180,j,present,resp,freq_bottom,,,,,0,170,170,593,,,1.0761144023616345,,,,,,,,,,1012.3072254244526,None,1012.3072254244526,None,j,1,1.054257599014818,None,None,014,001,2,28,f,2021_Nov_10_1340,eye_tracking_exp,2021.2.3,84.97644080491783,
180,0,180,0,180,180,180,-12,180,-12,j,abs,resp,freq_bottom,,,,,0,171,171,81,,,0.9442981849579696,,,,,,,,,,1014.7082311087815,None,1014.7082311087815,None,j,1,0.6212425502726546,None,None,014,001,2,28,f,2021_Nov_10_1340,eye_tracking_exp,2021.2.3,84.97644080491783,
180,12,180,180,180,12,180,0,180,0,j,abs,resp,freq_bottom,,,,,0,172,172,27,,,0.889545148337348,,,,,,,,,,1016.4260364120619,None,1016.4260364120619,None,j,1,0.7114876114974322,None,None,014,001,2,28,f,2021_Nov_10_1340,eye_tracking_exp,2021.2.3,84.97644080491783,
0,0,0,180,-168,0,0,-168,0,0,f,abs,resp,freq_bottom,,,,,0,173,173,327,,,1.0248465291795963,,,,,,,,,,1018.3557483803033,None,1018.3557483803033,None,f,1,0.6061147253130912,None,None,014,001,2,28,f,2021_Nov_10_1340,eye_tracking_exp,2021.2.3,84.97644080491783,
180,0,180,168,180,180,168,180,180,0,f,abs,resp,freq_bottom,,,,,0,174,174,271,,,0.7100526875135571,,,,,,,,,,1019.9205766551313,None,1019.9205766551313,None,f,1,0.7855251512519317,None,None,014,001,2,28,f,2021_Nov_10_1340,eye_tracking_exp,2021.2.3,84.97644080491783,
180,180,180,0,12,0,12,0,0,0,j,abs,resp,freq_bottom,,,,,0,175,175,62,,,0.8918168841841904,,,,,,,,,,1021.8857942485411,None,1021.8857942485411,None,j,1,0.6747275220550364,None,None,014,001,2,28,f,2021_Nov_10_1340,eye_tracking_exp,2021.2.3,84.97644080491783,
180,180,12,0,0,0,12,0,0,180,j,abs,resp,freq_bottom,,,,,0,176,176,60,,,0.8137339367123919,,,,,,,,,,1023.5220162102378,None,1023.5220162102378,None,j,1,0.654555881401393,None,None,014,001,2,28,f,2021_Nov_10_1340,eye_tracking_exp,2021.2.3,84.97644080491783,
0,270,0,0,0,-12,0,0,-168,0,None,present,inhibit,freq_bottom,,,,,0,177,177,1000,,,0.75005239727436,,,,,,,,,,1025.1687441593149,None,1025.1687441593149,None,None,1,,None,None,014,001,2,28,f,2021_Nov_10_1340,eye_tracking_exp,2021.2.3,84.97644080491783,
0,180,12,0,0,0,90,180,-12,180,j,present,resp,freq_bottom,,,,,0,178,178,675,,,1.075168651615679,,,,,,,,,,1029.2526894313487,None,1029.2526894313487,None,j,1,1.4365244968539628,None,None,014,001,2,28,f,2021_Nov_10_1340,eye_tracking_exp,2021.2.3,84.97644080491783,
0,180,180,0,0,0,-168,0,-168,180,f,abs,resp,freq_bottom,,,,,0,179,179,336,,,0.8281945177651499,,,,,,,,,,1032.0650157200434,None,1032.0650157200434,None,f,1,1.26358077992154,None,None,014,001,2,28,f,2021_Nov_10_1340,eye_tracking_exp,2021.2.3,84.97644080491783,
168,0,0,0,0,0,0,-168,0,0,f,abs,resp,freq_bottom,,,,,0,180,180,368,,,0.7365657930722272,,,,,,,,,,1034.4654282806223,None,1034.4654282806223,None,f,1,0.7830962114021531,None,None,014,001,2,28,f,2021_Nov_10_1340,eye_tracking_exp,2021.2.3,84.97644080491783,
180,180,180,-12,0,0,270,180,180,-12,j,present,resp,freq_bottom,,,,,0,181,181,611,,,0.7100210272861495,,,,,,,,,,1036.137079199074,None,1036.137079199074,None,j,1,0.966584551766573,None,None,014,001,2,28,f,2021_Nov_10_1340,eye_tracking_exp,2021.2.3,84.97644080491783,
180,12,0,168,0,0,0,180,180,180,None,abs,inhibit,freq_bottom,,,,,0,182,182,455,,,0.7112440054223341,,,,,,,,,,1038.0908792357786,None,1038.0908792357786,None,None,1,,None,None,014,001,2,28,f,2021_Nov_10_1340,eye_tracking_exp,2021.2.3,84.97644080491783,
0,0,0,0,-168,0,0,0,0,-168,f,abs,resp,freq_bottom,,,,,0,183,183,290,,,1.0691299842879713,,,,,,,,,,1042.1642515110307,None,1042.1642515110307,None,f,1,0.6673087966100866,None,None,014,001,2,28,f,2021_Nov_10_1340,eye_tracking_exp,2021.2.3,84.97644080491783,
0,0,0,-12,0,12,0,180,0,0,j,abs,resp,freq_bottom,,,,,0,184,184,181,,,0.9120942596913956,,,,,,,,,,1043.9285682807676,None,1043.9285682807676,None,j,1,0.7430792236136767,None,None,014,001,2,28,f,2021_Nov_10_1340,eye_tracking_exp,2021.2.3,84.97644080491783,
12,180,180,0,-168,180,180,0,180,180,None,abs,inhibit,freq_bottom,,,,,0,185,185,464,,,0.8739338488306954,,,,,,,,,,1045.799388041176,None,1045.799388041176,None,None,1,,None,None,014,001,2,28,f,2021_Nov_10_1340,eye_tracking_exp,2021.2.3,84.97644080491783,
12,180,180,12,180,180,180,0,0,0,j,abs,resp,freq_bottom,,,,,0,186,186,36,,,1.0094212881799167,,,,,,,,,,1050.036441342023,None,1050.036441342023,None,j,1,0.6666921290197934,None,None,014,001,2,28,f,2021_Nov_10_1340,eye_tracking_exp,2021.2.3,84.97644080491783,
180,180,-168,180,180,-168,0,90,0,180,f,present,resp,freq_bottom,,,,,0,187,187,818,,,0.9843856228187269,,,,,,,,,,1052.0952909898315,None,1052.0952909898315,None,f,1,0.7353613706181932,None,None,014,001,2,28,f,2021_Nov_10_1340,eye_tracking_exp,2021.2.3,84.97644080491783,
12,180,180,180,180,270,180,-12,180,180,j,present,resp,freq_bottom,,,,,0,188,188,694,,,0.9741590666777067,,,,,,,,,,1054.0837508844033,None,1054.0837508844033,None,j,1,1.0829527146925102,None,None,014,001,2,28,f,2021_Nov_10_1340,eye_tracking_exp,2021.2.3,84.97644080491783,
180,180,180,168,180,180,180,0,168,180,f,abs,resp,freq_bottom,,,,,0,189,189,248,,,0.9971213895824746,,,,,,,,,,1056.3429305686022,None,1056.3429305686022,None,f,1,0.6796659941446705,None,None,014,001,2,28,f,2021_Nov_10_1340,eye_tracking_exp,2021.2.3,84.97644080491783,
180,180,168,180,180,180,180,-168,0,0,f,abs,resp,freq_bottom,,,,,0,190,190,382,,,1.0378538897425433,,,,,,,,,,1058.2611253715695,None,1058.2611253715695,None,f,1,1.04950325185564,None,None,014,001,2,28,f,2021_Nov_10_1340,eye_tracking_exp,2021.2.3,84.97644080491783,
0,180,0,180,180,180,-12,180,12,180,j,abs,resp,freq_bottom,,,,,0,191,191,145,,,0.8013904286999669,,,,,,,,,,1060.4729713658562,None,1060.4729713658562,None,j,1,0.6456895114260988,None,None,014,001,2,28,f,2021_Nov_10_1340,eye_tracking_exp,2021.2.3,84.97644080491783,
180,180,168,180,180,168,0,270,180,180,f,present,resp,freq_bottom,,,,,0,192,192,748,,,0.9576564867337451,,,,,,,,,,1062.332185520656,None,1062.332185520656,None,f,1,1.2345385434728087,None,None,014,001,2,28,f,2021_Nov_10_1340,eye_tracking_exp,2021.2.3,84.97644080491783,
0,180,12,180,180,0,180,168,0,180,None,abs,inhibit,freq_bottom,,,,,0,193,193,472,,,1.019467384871293,,,,,,,,,,1065.0266558566218,None,1065.0266558566218,None,None,1,,None,None,014,001,2,28,f,2021_Nov_10_1340,eye_tracking_exp,2021.2.3,84.97644080491783,
12,0,180,180,180,0,0,12,0,0,j,abs,resp,freq_bottom,,,,,0,194,194,18,,,0.740554092238681,,,,,,,,,,1068.769479210181,None,1068.769479210181,None,j,1,0.764165150189001,None,None,014,001,2,28,f,2021_Nov_10_1340,eye_tracking_exp,2021.2.3,84.97644080491783,
168,0,180,0,180,90,180,180,-168,180,f,present,resp,freq_bottom,,,,,0,195,195,871,,,0.9924945931718585,,,,,,,,,,1070.688698774029,None,1070.688698774029,None,f,1,1.197651075799513,None,None,014,001,2,28,f,2021_Nov_10_1340,eye_tracking_exp,2021.2.3,84.97644080491783,
168,0,0,0,-168,0,0,0,0,0,f,abs,resp,freq_bottom,,,,,0,196,196,366,,,0.9675529625445733,,,,,,,,,,1073.1114097691243,None,1073.1114097691243,None,f,1,0.6632589536911837,None,None,014,001,2,28,f,2021_Nov_10_1340,eye_tracking_exp,2021.2.3,84.97644080491783,
180,0,180,0,180,12,180,90,0,168,None,present,inhibit,freq_bottom,,,,,0,197,197,937,,,0.8135334473336697,,,,,,,,,,1074.8880230657214,None,1074.8880230657214,None,None,1,,None,None,014,001,2,28,f,2021_Nov_10_1340,eye_tracking_exp,2021.2.3,84.97644080491783,
0,168,180,180,180,90,0,0,168,0,f,present,resp,freq_bottom,,,,,0,198,198,738,,,0.9566524416711142,,,,,,,,,,1079.1251147007752,None,1079.1251147007752,None,f,1,0.7921225587724621,None,None,014,001,2,28,f,2021_Nov_10_1340,eye_tracking_exp,2021.2.3,84.97644080491783,
180,168,180,180,180,0,180,0,180,168,f,abs,resp,freq_bottom,,,,,0,199,199,233,,,0.9345674853774781,,,,,,,,,,1081.0901747315402,None,1081.0901747315402,None,f,1,0.6194794786115381,None,None,014,001,2,28,f,2021_Nov_10_1340,eye_tracking_exp,2021.2.3,84.97644080491783,
0,0,180,0,0,0,168,0,-168,180,f,abs,resp,freq_bottom,,,,,0,200,200,406,,,0.8618175468926703,,,,,,,,,,1082.7847178119428,None,1082.7847178119428,None,f,1,0.651967567840984,None,None,014,001,2,28,f,2021_Nov_10_1340,eye_tracking_exp,2021.2.3,84.97644080491783,
-168,180,0,0,0,0,168,0,0,0,f,abs,resp,freq_bottom,,,,,0,201,201,408,,,0.8183400962625234,,,,,,,,,,1084.5735992620503,None,1084.5735992620503,None,f,1,0.6241665145244042,None,None,014,001,2,28,f,2021_Nov_10_1340,eye_tracking_exp,2021.2.3,84.97644080491783,
-168,0,12,0,0,0,0,0,0,0,None,abs,inhibit,freq_bottom,,,,,0,202,202,434,,,0.8743765887576446,,,,,,,,,,1086.326409732903,None,1086.326409732903,None,f,0,0.6302631626058428,1086.9746683336507,None,014,001,2,28,f,2021_Nov_10_1340,eye_tracking_exp,2021.2.3,84.97644080491783,
180,180,180,0,-12,0,270,0,0,-12,j,present,resp,freq_bottom,,,,,0,203,203,584,,,0.7783955716357615,,,,,,,,,,1088.2912934866854,None,1088.2912934866854,None,j,1,1.0021481310086529,None,None,014,001,2,28,f,2021_Nov_10_1340,eye_tracking_exp,2021.2.3,84.97644080491783,
180,0,180,0,-12,270,180,0,-12,180,j,present,resp,freq_bottom,,,,,0,204,204,620,,,0.9871240312123299,,,,,,,,,,1090.4326329140513,None,1090.4326329140513,None,j,1,1.3720258358334831,None,None,014,001,2,28,f,2021_Nov_10_1340,eye_tracking_exp,2021.2.3,84.97644080491783,
0,180,180,-12,180,180,12,0,180,0,j,abs,resp,freq_bottom,,,,,0,205,205,180,,,0.7976421089313566,,,,,,,,,,1092.8566016937075,None,1092.8566016937075,None,j,1,1.923699742736062,None,None,014,001,2,28,f,2021_Nov_10_1340,eye_tracking_exp,2021.2.3,84.97644080491783,
0,180,180,0,180,180,0,-168,180,-168,f,abs,resp,freq_bottom,,,,,0,206,206,291,,,0.8323424187800235,,,,,,,,,,1096.0454365994483,None,1096.0454365994483,None,f,1,0.9593894928329973,None,None,014,001,2,28,f,2021_Nov_10_1340,eye_tracking_exp,2021.2.3,84.97644080491783,
180,0,12,0,0,0,0,180,12,0,j,abs,resp,freq_bottom,,,,,0,207,207,31,,,0.8339698929896545,,,,,,,,,,1098.0347356207476,None,1098.0347356207476,None,j,1,1.0010192338995694,None,None,014,001,2,28,f,2021_Nov_10_1340,eye_tracking_exp,2021.2.3,84.97644080491783,
180,180,0,-12,0,180,0,-12,0,180,j,abs,resp,freq_bottom,,,,,0,208,208,123,,,0.862819398917998,,,,,,,,,,1100.0342418037235,None,1100.0342418037235,None,j,1,0.8094601847333251,None,None,014,001,2,28,f,2021_Nov_10_1340,eye_tracking_exp,2021.2.3,84.97644080491783,
180,-168,180,180,180,90,180,168,180,180,f,present,resp,freq_bottom,,,,,0,209,209,879,,,0.747229437008603,,,,,,,,,,1115.4942788460376,None,1115.4942788460376,None,f,1,1.06047649397442,None,None,014,001,2,28,f,2021_Nov_10_1340,eye_tracking_exp,2021.2.3,84.97644080491783,
180,0,180,0,180,180,180,12,180,168,None,abs,inhibit,freq_bottom,,,,,0,210,210,431,,,0.9692812506269823,,,,,,,,,,1117.8122242653717,None,1117.8122242653717,None,None,1,,None,None,014,001,2,28,f,2021_Nov_10_1340,eye_tracking_exp,2021.2.3,84.97644080491783,
0,180,-168,0,180,0,180,-168,180,90,f,present,resp,freq_bottom,,,,,0,211,211,836,,,0.7901197457394954,,,,,,,,,,1121.8718463323512,None,1121.8718463323512,None,f,1,1.3069693668312539,None,None,014,001,2,28,f,2021_Nov_10_1340,eye_tracking_exp,2021.2.3,84.97644080491783,
168,180,0,-168,180,90,180,0,180,180,f,present,resp,freq_bottom,,,,,0,212,212,890,,,0.831350842151751,,,,,,,,,,1124.4384289253612,None,1124.4384289253612,None,f,1,1.156491004227064,None,None,014,001,2,28,f,2021_Nov_10_1340,eye_tracking_exp,2021.2.3,84.97644080491783,
180,-12,180,180,180,12,0,180,180,90,j,present,resp,freq_bottom,,,,,0,213,213,671,,,0.7344485669085278,,,,,,,,,,1126.8963907891648,None,1126.8963907891648,None,j,1,1.67443684614409,None,None,014,001,2,28,f,2021_Nov_10_1340,eye_tracking_exp,2021.2.3,84.97644080491783,
0,-168,180,180,180,168,0,90,180,180,f,present,resp,freq_bottom,,,,,0,214,214,881,,,0.8125924548521001,,,,,,,,,,1129.5561279191334,None,1129.5561279191334,None,f,1,1.269779149479291,None,None,014,001,2,28,f,2021_Nov_10_1340,eye_tracking_exp,2021.2.3,84.97644080491783,
12,0,0,0,0,12,0,0,180,0,j,abs,resp,freq_bottom,,,,,0,215,215,20,,,0.7852091190340972,,,,,,,,,,1132.1089877716895,None,1132.1089877716895,None,j,1,0.7968415901668777,None,None,014,001,2,28,f,2021_Nov_10_1340,eye_tracking_exp,2021.2.3,84.97644080491783,
0,0,0,0,168,0,168,0,0,0,f,abs,resp,freq_bottom,,,,,0,216,216,272,,,0.7765117209982295,,,,,,,,,,1133.7447678335557,None,1133.7447678335557,None,f,1,1.0010983170650434,None,None,014,001,2,28,f,2021_Nov_10_1340,eye_tracking_exp,2021.2.3,84.97644080491783,
180,168,0,-168,0,0,270,180,180,180,f,present,resp,freq_bottom,,,,,0,217,217,889,,,0.9692550445337814,,,,,,,,,,1135.8158853330297,None,1135.8158853330297,None,f,1,1.1219772389267746,None,None,014,001,2,28,f,2021_Nov_10_1340,eye_tracking_exp,2021.2.3,84.97644080491783,
-168,180,0,-168,180,180,0,180,0,180,f,abs,resp,freq_bottom,,,,,0,218,218,295,,,0.8583766307026768,,,,,,,,,,1137.9930035545167,None,1137.9930035545167,None,f,1,0.8328703112420044,None,None,014,001,2,28,f,2021_Nov_10_1340,eye_tracking_exp,2021.2.3,84.97644080491783,
0,168,0,0,0,180,0,168,0,0,f,abs,resp,freq_bottom,,,,,0,219,219,261,,,0.9892538537282585,,,,,,,,,,1140.0873742215426,None,1140.0873742215426,None,f,1,1.2184055775032903,None,None,014,001,2,28,f,2021_Nov_10_1340,eye_tracking_exp,2021.2.3,84.97644080491783,
12,0,180,12,0,180,180,90,0,0,j,present,resp,freq_bottom,,,,,0,220,220,540,,,1.0424768048421735,,,,,,,,,,1142.5935496509464,None,1142.5935496509464,None,j,1,0.6802823598936811,None,None,014,001,2,28,f,2021_Nov_10_1340,eye_tracking_exp,2021.2.3,84.97644080491783,
0,0,0,0,-12,0,270,0,12,0,j,present,resp,freq_bottom,,,,,0,221,221,648,,,0.7366698053233881,,,,,,,,,,1144.3702996829415,None,1144.3702996829415,None,j,1,1.4785306375724758,None,None,014,001,2,28,f,2021_Nov_10_1340,eye_tracking_exp,2021.2.3,84.97644080491783,
-168,0,0,0,12,0,270,0,0,0,None,present,inhibit,freq_bottom,,,,,0,222,222,940,,,0.7486134665372295,,,,,,,,,,1146.8412405432227,None,1146.8412405432227,None,None,1,,None,None,014,001,2,28,f,2021_Nov_10_1340,eye_tracking_exp,2021.2.3,84.97644080491783,
12,0,-168,0,0,270,0,180,0,180,None,present,inhibit,freq_bottom,,,,,0,223,223,953,,,0.7082210234839138,,,,,,,,,,1150.5725956302613,None,1150.5725956302613,None,None,1,,None,None,014,001,2,28,f,2021_Nov_10_1340,eye_tracking_exp,2021.2.3,84.97644080491783,
-12,0,-12,0,0,0,90,0,0,0,j,present,resp,freq_bottom,,,,,0,224,224,588,,,1.043158614614828,,,,,,,,,,1154.9052248618154,None,1154.9052248618154,None,j,1,0.8156359159802378,None,None,014,001,2,28,f,2021_Nov_10_1340,eye_tracking_exp,2021.2.3,84.97644080491783,
180,0,180,180,180,180,12,180,12,0,j,abs,resp,freq_bottom,,,,,0,225,225,5,,,0.7840729935934858,,,,,,,,,,1156.657157268044,None,1156.657157268044,None,j,1,0.9677303521475551,None,None,014,001,2,28,f,2021_Nov_10_1340,eye_tracking_exp,2021.2.3,84.97644080491783,
-12,180,180,180,180,0,270,0,12,0,j,present,resp,freq_bottom,,,,,0,226,226,644,,,0.929553737555057,,,,,,,,,,1158.7996874705696,None,1158.7996874705696,None,j,1,0.9211778348872031,None,None,014,001,2,28,f,2021_Nov_10_1340,eye_tracking_exp,2021.2.3,84.97644080491783,
0,0,0,0,0,-12,0,0,-168,0,None,abs,inhibit,freq_bottom,,,,,0,227,227,496,,,0.8990763182911042,,,,,,,,,,1160.917210489204,None,1160.917210489204,None,None,1,,None,None,014,001,2,28,f,2021_Nov_10_1340,eye_tracking_exp,2021.2.3,84.97644080491783,
12,180,0,180,0,180,-12,180,0,180,j,abs,resp,freq_bottom,,,,,0,228,228,159,,,0.8223370950402658,,,,,,,,,,1164.7417988945253,None,1164.7417988945253,None,j,1,1.154180990970417,None,None,014,001,2,28,f,2021_Nov_10_1340,eye_tracking_exp,2021.2.3,84.97644080491783,
0,0,0,168,0,0,0,168,0,0,f,abs,resp,freq_bottom,,,,,0,229,229,249,,,0.7706906260573957,,,,,,,,,,1166.97740213609,None,1166.97740213609,None,f,1,0.854492916712843,None,None,014,001,2,28,f,2021_Nov_10_1340,eye_tracking_exp,2021.2.3,84.97644080491783,
12,0,180,180,180,0,180,0,12,0,j,abs,resp,freq_bottom,,,,,0,230,230,0,,,0.8237153521608059,,,,,,,,,,1168.9209593935102,None,1168.9209593935102,None,j,1,0.622956723183961,None,None,014,001,2,28,f,2021_Nov_10_1340,eye_tracking_exp,2021.2.3,84.97644080491783,
-12,0,0,0,0,0,270,0,-12,0,j,present,resp,freq_bottom,,,,,0,231,231,574,,,0.8179246145685061,,,,,,,,,,1170.5685107734207,None,1170.5685107734207,None,j,1,1.1996867127272708,None,None,014,001,2,28,f,2021_Nov_10_1340,eye_tracking_exp,2021.2.3,84.97644080491783,
180,0,180,0,12,0,12,180,180,180,j,abs,resp,freq_bottom,,,,,0,232,232,48,,,1.038926114811722,,,,,,,,,,1173.062572291672,None,1173.062572291672,None,j,1,0.6584511801174813,None,None,014,001,2,28,f,2021_Nov_10_1340,eye_tracking_exp,2021.2.3,84.97644080491783,
0,180,12,0,0,-12,180,180,0,180,j,abs,resp,freq_bottom,,,,,0,233,233,208,,,0.8641588874006298,,,,,,,,,,1174.7103729948485,None,1174.7103729948485,None,j,1,1.2015889345420874,None,None,014,001,2,28,f,2021_Nov_10_1340,eye_tracking_exp,2021.2.3,84.97644080491783,
0,180,0,168,180,180,168,0,270,180,f,present,resp,freq_bottom,,,,,0,234,234,754,,,0.8987985029728939,,,,,,,,,,1177.1108516592976,None,1177.1108516592976,None,f,1,0.8801264272078697,None,None,014,001,2,28,f,2021_Nov_10_1340,eye_tracking_exp,2021.2.3,84.97644080491783,
180,180,180,168,180,180,180,180,180,168,f,abs,resp,freq_bottom,,,,,0,235,235,219,,,1.0180272725801411,,,,,,,,,,1179.1112594507395,None,1179.1112594507395,None,f,1,0.6557406196770899,None,None,014,001,2,28,f,2021_Nov_10_1340,eye_tracking_exp,2021.2.3,84.97644080491783,
180,168,0,180,0,0,180,0,180,-168,f,abs,resp,freq_bottom,,,,,0,236,236,357,,,0.9048374189684656,,,,,,,,,,1180.9232171877302,None,1180.9232171877302,None,f,1,0.6517487308337877,None,None,014,001,2,28,f,2021_Nov_10_1340,eye_tracking_exp,2021.2.3,84.97644080491783,
0,0,0,180,168,0,0,168,0,0,f,abs,resp,freq_bottom,,,,,0,237,237,257,,,0.8737397545440525,,,,,,,,,,1182.746875007546,None,1182.746875007546,None,f,1,0.6360869435775385,None,None,014,001,2,28,f,2021_Nov_10_1340,eye_tracking_exp,2021.2.3,84.97644080491783,
180,180,12,0,0,0,90,0,-168,180,None,present,inhibit,freq_bottom,,,,,0,238,238,926,,,0.8632329756975079,,,,,,,,,,1184.4304735210244,None,1184.4304735210244,None,None,1,,None,None,014,001,2,28,f,2021_Nov_10_1340,eye_tracking_exp,2021.2.3,84.97644080491783,
180,180,0,12,0,180,0,-12,180,180,j,abs,resp,freq_bottom,,,,,0,239,239,193,,,1.0197209096285154,,,,,,,,,,1188.724396975762,None,1188.724396975762,None,j,1,1.1705662986460084,None,None,014,001,2,28,f,2021_Nov_10_1340,eye_tracking_exp,2021.2.3,84.97644080491783,
180,12,180,180,180,12,0,0,0,270,j,present,resp,freq_bottom,,,,,0,240,240,571,,,0.7900417575225009,,,,,,,,,,1190.9489663045333,None,1190.9489663045333,None,j,1,0.9139743243194971,None,None,014,001,2,28,f,2021_Nov_10_1340,eye_tracking_exp,2021.2.3,84.97644080491783,
0,0,0,0,12,0,180,180,180,168,None,abs,inhibit,freq_bottom,,,,,0,241,241,430,,,1.0428185600813455,,,,,,,,,,1193.0434504649602,None,1193.0434504649602,None,None,1,,None,None,014,001,2,28,f,2021_Nov_10_1340,eye_tracking_exp,2021.2.3,84.97644080491783,
180,168,0,-168,0,0,0,180,180,0,f,abs,resp,freq_bottom,,,,,0,242,242,385,,,0.9968356982945155,,,,,,,,,,1197.291590501327,None,1197.291590501327,None,f,1,0.7143838060892449,None,None,014,001,2,28,f,2021_Nov_10_1340,eye_tracking_exp,2021.2.3,84.97644080491783,
0,180,168,0,0,0,0,180,-168,180,f,abs,resp,freq_bottom,,,,,0,243,243,381,,,0.7482225720321343,,,,,,,,,,1199.1040719379107,None,1199.1040719379107,None,f,1,0.9179142959710589,None,None,014,001,2,28,f,2021_Nov_10_1340,eye_tracking_exp,2021.2.3,84.97644080491783,
0,0,270,0,0,-168,0,0,-168,0,f,present,resp,freq_bottom,,,,,0,244,244,790,,,1.0796425161756111,,,,,,,,,,1201.457788303418,None,1201.457788303418,None,f,1,1.2846999093526392,None,None,014,001,2,28,f,2021_Nov_10_1340,eye_tracking_exp,2021.2.3,84.97644080491783,
0,12,180,180,180,180,0,180,0,12,j,abs,resp,freq_bottom,,,,,0,245,245,7,,,0.8337482878751921,,,,,,,,,,1203.6349916449526,None,1203.6349916449526,None,j,1,0.6749750342569314,None,None,014,001,2,28,f,2021_Nov_10_1340,eye_tracking_exp,2021.2.3,84.97644080491783,
-12,180,180,180,0,-12,180,270,0,0,j,present,resp,freq_bottom,,,,,0,246,246,640,,,0.7287526709119501,,,,,,,,,,1205.4244535413563,None,1205.4244535413563,None,j,1,1.3646436335311591,None,None,014,001,2,28,f,2021_Nov_10_1340,eye_tracking_exp,2021.2.3,84.97644080491783,
0,0,0,-12,0,12,0,180,0,90,j,present,resp,freq_bottom,,,,,0,247,247,685,,,0.8353454698636511,,,,,,,,,,1207.894494906077,None,1207.894494906077,None,j,1,1.118609563778591,None,None,014,001,2,28,f,2021_Nov_10_1340,eye_tracking_exp,2021.2.3,84.97644080491783,
180,0,180,0,12,180,-12,0,180,0,j,abs,resp,freq_bottom,,,,,0,248,248,188,,,1.0431431598177037,,,,,,,,,,1210.3888953953065,None,1210.3888953953065,None,j,1,0.9280985174900707,None,None,014,001,2,28,f,2021_Nov_10_1340,eye_tracking_exp,2021.2.3,84.97644080491783,
0,0,0,0,180,180,-168,180,90,12,None,present,inhibit,freq_bottom,,,,,0,249,249,981,,,0.701913939293398,,,,,,,,,,1212.307039790303,None,1212.307039790303,None,f,0,1.0269886969290383,1213.366078694391,None,014,001,2,28,f,2021_Nov_10_1340,eye_tracking_exp,2021.2.3,84.97644080491783,
0,0,0,180,180,12,0,-12,0,270,j,present,resp,freq_bottom,,,,,0,250,250,699,,,0.8969987566587905,,,,,,,,,,1214.9792322171543,None,1214.9792322171543,None,j,1,1.0097850897709577,None,None,014,001,2,28,f,2021_Nov_10_1340,eye_tracking_exp,2021.2.3,84.97644080491783,
0,0,0,-12,0,0,0,180,0,-12,j,abs,resp,freq_bottom,,,,,0,251,251,107,,,0.9069839398833318,,,,,,,,,,1218.449000714767,None,1218.449000714767,None,j,1,0.7720619967640232,None,None,014,001,2,28,f,2021_Nov_10_1340,eye_tracking_exp,2021.2.3,84.97644080491783,
-168,0,0,0,0,-168,180,180,0,0,f,abs,resp,freq_bottom,,,,,0,252,252,346,,,1.0779208654850576,,,,,,,,,,1220.4726003994,None,1220.4726003994,None,f,1,0.6377362199964409,None,None,014,001,2,28,f,2021_Nov_10_1340,eye_tracking_exp,2021.2.3,84.97644080491783,
0,180,180,-12,180,180,-12,180,0,180,j,abs,resp,freq_bottom,,,,,0,253,253,131,,,0.980044110735723,,,,,,,,,,1222.2373614837197,None,1222.2373614837197,None,j,1,0.6787559340427833,None,None,014,001,2,28,f,2021_Nov_10_1340,eye_tracking_exp,2021.2.3,84.97644080491783,
168,0,0,0,0,0,90,0,168,0,f,present,resp,freq_bottom,,,,,0,254,254,714,,,0.858587339919095,,,,,,,,,,1223.9201344534558,None,1223.9201344534558,None,f,1,0.9167322742923716,None,None,014,001,2,28,f,2021_Nov_10_1340,eye_tracking_exp,2021.2.3,84.97644080491783,
12,180,180,168,180,270,180,0,0,0,None,present,inhibit,freq_bottom,,,,,0,255,255,960,,,0.9122388874103015,,,,,,,,,,1225.8503381258124,None,1225.8503381258124,None,None,1,,None,None,014,001,2,28,f,2021_Nov_10_1340,eye_tracking_exp,2021.2.3,84.97644080491783,
0,0,168,0,180,180,180,168,0,0,f,abs,resp,freq_bottom,,,,,0,256,256,242,,,1.0976318826357454,,,,,,,,,,1230.0165383426574,None,1230.0165383426574,None,f,1,0.9475472414142132,None,None,014,001,2,28,f,2021_Nov_10_1340,eye_tracking_exp,2021.2.3,84.97644080491783,
180,180,-12,0,12,180,180,0,0,180,j,abs,resp,freq_bottom,,,,,0,257,257,182,,,0.7839694802676669,,,,,,,,,,1231.7931797107594,None,1231.7931797107594,None,j,1,0.8668981074642943,None,None,014,001,2,28,f,2021_Nov_10_1340,eye_tracking_exp,2021.2.3,84.97644080491783,
180,12,180,180,180,270,180,180,-168,180,None,present,inhibit,freq_bottom,,,,,0,258,258,925,,,0.9950302200843036,,,,,,,,,,1233.911553628046,None,1233.911553628046,None,None,1,,None,None,014,001,2,28,f,2021_Nov_10_1340,eye_tracking_exp,2021.2.3,84.97644080491783,
0,0,12,0,0,0,90,0,0,168,None,present,inhibit,freq_bottom,,,,,0,259,259,932,,,1.0597293337997156,,,,,,,,,,1237.9836071462196,None,1237.9836071462196,None,None,1,,None,None,014,001,2,28,f,2021_Nov_10_1340,eye_tracking_exp,2021.2.3,84.97644080491783,
0,180,0,0,0,0,168,0,168,180,f,abs,resp,freq_bottom,,,,,0,260,260,266,,,0.7437465566328676,,,,,,,,,,1241.7383720579237,None,1241.7383720579237,None,f,1,1.3527313542690536,None,None,014,001,2,28,f,2021_Nov_10_1340,eye_tracking_exp,2021.2.3,84.97644080491783,
-168,180,0,0,0,0,-168,0,0,270,f,present,resp,freq_bottom,,,,,0,261,261,842,,,0.8469935241096864,,,,,,,,,,1244.021258581428,None,1244.021258581428,None,f,1,1.2299487013733597,None,None,014,001,2,28,f,2021_Nov_10_1340,eye_tracking_exp,2021.2.3,84.97644080491783,
0,12,0,0,0,180,0,12,0,90,j,present,resp,freq_bottom,,,,,0,262,262,555,,,0.8529629616520399,,,,,,,,,,1246.4706951591434,None,1246.4706951591434,None,j,1,1.2604431100116926,None,None,014,001,2,28,f,2021_Nov_10_1340,eye_tracking_exp,2021.2.3,84.97644080491783,
180,-12,180,0,180,12,0,0,180,0,j,abs,resp,freq_bottom,,,,,0,263,263,167,,,0.9287441181263802,,,,,,,,,,1248.952286288306,None,1248.952286288306,None,j,1,0.7468435219707317,None,None,014,001,2,28,f,2021_Nov_10_1340,eye_tracking_exp,2021.2.3,84.97644080491783,
-168,0,0,0,0,0,270,0,168,0,f,present,resp,freq_bottom,,,,,0,264,264,854,,,1.041224689230364,,,,,,,,,,1250.9878441325109,None,1250.9878441325109,None,f,1,1.2073275954662677,None,None,014,001,2,28,f,2021_Nov_10_1340,eye_tracking_exp,2021.2.3,84.97644080491783,
0,90,180,180,180,12,0,0,-168,0,None,present,inhibit,freq_bottom,,,,,0,265,265,930,,,0.9335890720845499,,,,,,,,,,1253.4360316791463,None,1253.4360316791463,None,None,1,,None,None,014,001,2,28,f,2021_Nov_10_1340,eye_tracking_exp,2021.2.3,84.97644080491783,
0,180,180,180,-168,0,-168,0,0,270,f,present,resp,freq_bottom,,,,,0,266,266,846,,,0.9432423140715689,,,,,,,,,,1257.707928057258,None,1257.707928057258,None,f,1,1.1582573961750313,None,None,014,001,2,28,f,2021_Nov_10_1340,eye_tracking_exp,2021.2.3,84.97644080491783,
180,180,0,168,0,168,0,180,0,0,f,abs,resp,freq_bottom,,,,,0,267,267,251,,,0.7893796758434283,,,,,,,,,,1259.8261148311722,None,1259.8261148311722,None,f,1,0.7040993723130669,None,None,014,001,2,28,f,2021_Nov_10_1340,eye_tracking_exp,2021.2.3,84.97644080491783,
12,0,12,0,180,0,90,180,180,180,j,present,resp,freq_bottom,,,,,0,268,268,533,,,0.8743783047003615,,,,,,,,,,1261.6866000516748,None,1261.6866000516748,None,j,1,0.6836944061324175,None,None,014,001,2,28,f,2021_Nov_10_1340,eye_tracking_exp,2021.2.3,84.97644080491783,
-12,0,12,0,0,0,0,180,90,180,j,present,resp,freq_bottom,,,,,0,269,269,673,,,0.8781330278819112,,,,,,,,,,1263.5210789841603,None,1263.5210789841603,None,j,1,0.9610568799016619,None,None,014,001,2,28,f,2021_Nov_10_1340,eye_tracking_exp,2021.2.3,84.97644080491783,
180,0,0,-12,180,180,180,0,12,0,j,abs,resp,freq_bottom,,,,,0,270,270,178,,,0.7991374395079669,,,,,,,,,,1265.5334461425518,None,1265.5334461425518,None,j,1,0.8527090178013168,None,None,014,001,2,28,f,2021_Nov_10_1340,eye_tracking_exp,2021.2.3,84.97644080491783,
180,180,12,0,-168,180,180,0,180,180,None,abs,inhibit,freq_bottom,,,,,0,271,271,462,,,0.7696007024792106,,,,,,,,,,1267.3339513089159,None,1267.3339513089159,None,None,1,,None,None,014,001,2,28,f,2021_Nov_10_1340,eye_tracking_exp,2021.2.3,84.97644080491783,
0,0,168,0,0,0,0,0,0,168,f,abs,resp,freq_bottom,,,,,0,272,272,218,,,0.8902749521746072,,,,,,,,,,1271.2534763390413,None,1271.2534763390413,None,f,1,0.6360546462547063,None,None,014,001,2,28,f,2021_Nov_10_1340,eye_tracking_exp,2021.2.3,84.97644080491783,
0,-12,180,0,180,-12,0,180,0,180,j,abs,resp,freq_bottom,,,,,0,273,273,97,,,1.071219596962521,,,,,,,,,,1273.2427427611728,None,1273.2427427611728,None,j,1,0.7269990803688415,None,None,014,001,2,28,f,2021_Nov_10_1340,eye_tracking_exp,2021.2.3,84.97644080491783,
0,0,0,0,0,-168,0,0,168,0,f,abs,resp,freq_bottom,,,,,0,274,274,356,,,1.0743237159707169,,,,,,,,,,1275.1949949410919,None,1275.1949949410919,None,f,1,0.6142862500601041,None,None,014,001,2,28,f,2021_Nov_10_1340,eye_tracking_exp,2021.2.3,84.97644080491783,
168,180,180,168,180,180,180,0,0,0,f,abs,resp,freq_bottom,,,,,0,275,275,246,,,1.0256054580585736,,,,,,,,,,1277.0075823249717,None,1277.0075823249717,None,f,1,0.5778554725820868,None,None,014,001,2,28,f,2021_Nov_10_1340,eye_tracking_exp,2021.2.3,84.97644080491783,
180,0,180,0,180,180,-168,180,-168,0,f,abs,resp,freq_bottom,,,,,0,276,276,285,,,0.8881241454040293,,,,,,,,,,1278.7249291269945,None,1278.7249291269945,None,f,1,0.5563004802006617,None,None,014,001,2,28,f,2021_Nov_10_1340,eye_tracking_exp,2021.2.3,84.97644080491783,
-12,180,0,180,0,180,0,180,-12,180,j,abs,resp,freq_bottom,,,,,0,277,277,87,,,1.0159850912900952,,,,,,,,,,1280.4779973727473,None,1280.4779973727473,None,j,1,0.5151826668097783,None,None,014,001,2,28,f,2021_Nov_10_1340,eye_tracking_exp,2021.2.3,84.97644080491783,
180,180,180,12,180,270,180,180,-168,180,None,present,inhibit,freq_bottom,,,,,0,278,278,927,,,1.0801696861656578,,,,,,,,,,1282.231302566157,None,1282.231302566157,None,None,1,,None,None,014,001,2,28,f,2021_Nov_10_1340,eye_tracking_exp,2021.2.3,84.97644080491783,
180,180,-168,0,168,180,180,0,180,180,f,abs,resp,freq_bottom,,,,,0,279,279,392,,,1.012829736687847,,,,,,,,,,1286.2677599059207,None,1286.2677599059207,None,f,1,0.9644354214378836,None,None,014,001,2,28,f,2021_Nov_10_1340,eye_tracking_exp,2021.2.3,84.97644080491783,
0,270,0,180,180,180,12,180,0,-12,j,present,resp,freq_bottom,,,,,0,280,280,701,,,0.7626124143064398,,,,,,,,,,1288.53994726179,None,1288.53994726179,None,j,1,1.3002762747146335,None,None,014,001,2,28,f,2021_Nov_10_1340,eye_tracking_exp,2021.2.3,84.97644080491783,
0,0,12,0,0,0,-168,0,0,0,None,abs,inhibit,freq_bottom,,,,,0,281,281,480,,,0.8059647174219506,,,,,,,,,,1290.7995220599769,None,1290.7995220599769,None,j,0,0.7367235932524636,1291.5646692029622,None,014,001,2,28,f,2021_Nov_10_1340,eye_tracking_exp,2021.2.3,84.97644080491783,
0,0,0,-12,180,-12,0,0,90,0,j,present,resp,freq_bottom,,,,,0,282,282,643,,,0.714152469892222,,,,,,,,,,1292.8107838651013,None,1292.8107838651013,None,j,1,1.3334522667555575,None,None,014,001,2,28,f,2021_Nov_10_1340,eye_tracking_exp,2021.2.3,84.97644080491783,
0,0,-168,180,180,-168,0,0,0,0,f,abs,resp,freq_bottom,,,,,0,283,283,314,,,0.7467492899350436,,,,,,,,,,1295.317603731759,None,1295.317603731759,None,f,1,0.8427155617846438,None,None,014,001,2,28,f,2021_Nov_10_1340,eye_tracking_exp,2021.2.3,84.97644080491783,
0,-168,0,0,-168,0,180,180,0,0,f,abs,resp,freq_bottom,,,,,0,284,284,302,,,0.8849675549495176,,,,,,,,,,1297.5552395918094,None,1297.5552395918094,None,f,1,0.654210269853138,None,None,014,001,2,28,f,2021_Nov_10_1340,eye_tracking_exp,2021.2.3,84.97644080491783,
180,180,-168,0,0,0,270,0,168,180,f,present,resp,freq_bottom,,,,,0,285,285,856,,,0.9638550979857743,,,,,,,,,,1299.2947163993122,None,1299.2947163993122,None,f,1,1.1215250763943914,None,None,014,001,2,28,f,2021_Nov_10_1340,eye_tracking_exp,2021.2.3,84.97644080491783,
0,0,12,0,0,0,270,0,0,12,j,present,resp,freq_bottom,,,,,0,286,286,512,,,0.7131118644203538,,,,,,,,,,1301.2479275380865,None,1301.2479275380865,None,j,1,1.0233659634777723,None,None,014,001,2,28,f,2021_Nov_10_1340,eye_tracking_exp,2021.2.3,84.97644080491783,
-12,180,180,180,180,90,0,-12,0,0,j,present,resp,freq_bottom,,,,,0,287,287,592,,,0.749089992667731,,,,,,,,,,1303.4372387538897,None,1303.4372387538897,None,j,1,0.8660460014380078,None,None,014,001,2,28,f,2021_Nov_10_1340,eye_tracking_exp,2021.2.3,84.97644080491783,
180,0,-168,0,0,0,-168,180,270,0,f,present,resp,freq_bottom,,,,,0,288,288,817,,,0.7557279698941065,,,,,,,,,,1305.1549806699004,None,1305.1549806699004,None,f,1,1.0856167911333614,None,None,014,001,2,28,f,2021_Nov_10_1340,eye_tracking_exp,2021.2.3,84.97644080491783,
-168,180,180,180,180,180,0,180,12,180,None,abs,inhibit,freq_bottom,,,,,0,289,289,437,,,1.0281318877613352,,,,,,,,,,1307.485176735785,None,1307.485176735785,None,f,0,0.6100900127294153,1308.1204521142372,None,014,001,2,28,f,2021_Nov_10_1340,eye_tracking_exp,2021.2.3,84.97644080491783,
0,0,0,180,-12,0,90,180,0,-12,j,present,resp,freq_bottom,,,,,0,290,290,619,,,0.8551763955361944,,,,,,,,,,1309.5096653514302,None,1309.5096653514302,None,j,1,1.226829443960014,None,None,014,001,2,28,f,2021_Nov_10_1340,eye_tracking_exp,2021.2.3,84.97644080491783,
0,180,0,0,0,0,-12,0,-12,0,j,abs,resp,freq_bottom,,,,,0,291,291,126,,,1.0142027266421774,,,,,,,,,,1312.003261727852,None,1312.003261727852,None,j,1,0.8440276782912406,None,None,014,001,2,28,f,2021_Nov_10_1340,eye_tracking_exp,2021.2.3,84.97644080491783,
-12,0,180,0,-12,180,180,270,0,180,j,present,resp,freq_bottom,,,,,0,292,292,618,,,1.0375150694156283,,,,,,,,,,1314.0506941208005,None,1314.0506941208005,None,j,1,0.6206442951734061,None,None,014,001,2,28,f,2021_Nov_10_1340,eye_tracking_exp,2021.2.3,84.97644080491783,
180,-168,180,180,0,90,180,180,180,-168,f,present,resp,freq_bottom,,,,,0,293,293,807,,,0.8498130377337594,,,,,,,,,,1332.6749226071606,None,1332.6749226071606,None,f,1,0.826457934183054,None,None,014,001,2,28,f,2021_Nov_10_1340,eye_tracking_exp,2021.2.3,84.97644080491783,
0,0,0,12,0,0,0,0,180,12,j,abs,resp,freq_bottom,,,,,0,294,294,37,,,0.9749060522558934,,,,,,,,,,1334.5927871926324,None,1334.5927871926324,None,j,1,0.6685424336392316,None,None,014,001,2,28,f,2021_Nov_10_1340,eye_tracking_exp,2021.2.3,84.97644080491783,
0,180,12,0,0,0,180,180,180,12,j,abs,resp,freq_bottom,,,,,0,295,295,8,,,1.0463030514649458,,,,,,,,,,1336.6877159694868,None,1336.6877159694868,None,j,1,0.8296212608420319,None,None,014,001,2,28,f,2021_Nov_10_1340,eye_tracking_exp,2021.2.3,84.97644080491783,
180,180,180,168,0,90,0,-168,0,0,f,present,resp,freq_bottom,,,,,0,296,296,907,,,0.8685948103221246,,,,,,,,,,1338.5579528688468,None,1338.5579528688468,None,f,1,1.7273938925136463,None,None,014,001,2,28,f,2021_Nov_10_1340,eye_tracking_exp,2021.2.3,84.97644080491783,
0,0,180,-12,180,180,90,180,180,168,None,present,inhibit,freq_bottom,,,,,0,297,297,1003,,,0.9870757861178692,,,,,,,,,,1341.4653688173257,None,1341.4653688173257,None,None,1,,None,None,014,001,2,28,f,2021_Nov_10_1340,eye_tracking_exp,2021.2.3,84.97644080491783,
12,0,0,0,0,0,0,-12,0,0,j,abs,resp,freq_bottom,,,,,0,298,298,158,,,1.0002821805459594,,,,,,,,,,1345.4796182758182,None,1345.4796182758182,None,j,1,0.917751300130476,None,None,014,001,2,28,f,2021_Nov_10_1340,eye_tracking_exp,2021.2.3,84.97644080491783,
0,0,0,-168,0,168,0,180,0,0,f,abs,resp,freq_bottom,,,,,0,299,299,391,,,0.7943776068214222,,,,,,,,,,1347.5605119035245,None,1347.5605119035245,None,f,1,1.0439713541727542,None,None,014,001,2,28,f,2021_Nov_10_1340,eye_tracking_exp,2021.2.3,84.97644080491783,
180,-12,0,180,180,180,12,180,0,180,j,abs,resp,freq_bottom,,,,,0,300,300,199,,,1.0453921824087358,,,,,,,,,,1349.891966659503,None,1349.891966659503,None,j,1,0.6964941071837529,None,None,014,001,2,28,f,2021_Nov_10_1340,eye_tracking_exp,2021.2.3,84.97644080491783,
180,180,0,12,0,180,0,168,180,180,None,abs,inhibit,freq_bottom,,,,,0,301,301,473,,,0.8405060562407868,,,,,,,,,,1351.8081445398802,None,1351.8081445398802,None,None,1,,None,None,014,001,2,28,f,2021_Nov_10_1340,eye_tracking_exp,2021.2.3,84.97644080491783,
0,0,-168,180,180,12,180,180,180,180,None,abs,inhibit,freq_bottom,,,,,0,302,302,454,,,1.0102836543259495,,,,,,,,,,1355.8336123379395,None,1355.8336123379395,None,None,1,,None,None,014,001,2,28,f,2021_Nov_10_1340,eye_tracking_exp,2021.2.3,84.97644080491783,
180,12,180,180,180,180,0,180,12,180,j,abs,resp,freq_bottom,,,,,0,303,303,1,,,0.9379630798677592,,,,,,,,,,1359.8699196611615,None,1359.8699196611615,None,j,1,0.8305723717512592,None,None,014,001,2,28,f,2021_Nov_10_1340,eye_tracking_exp,2021.2.3,84.97644080491783,
180,0,180,0,180,180,-168,180,168,0,f,abs,resp,freq_bottom,,,,,0,304,304,355,,,0.9034967966611793,,,,,,,,,,1361.9303177694437,None,1361.9303177694437,None,f,1,1.9691137038735178,None,None,014,001,2,28,f,2021_Nov_10_1340,eye_tracking_exp,2021.2.3,84.97644080491783,
180,168,180,0,180,12,0,180,180,180,None,abs,inhibit,freq_bottom,,,,,0,305,305,447,,,0.9588388552052696,,,,,,,,,,1365.1068706368424,None,1365.1068706368424,None,None,1,,None,None,014,001,2,28,f,2021_Nov_10_1340,eye_tracking_exp,2021.2.3,84.97644080491783,
-168,0,-168,0,0,0,0,0,180,0,f,abs,resp,freq_bottom,,,,,0,306,306,309,,,0.7302477215707168,,,,,,,,,,1369.1077556438813,None,1369.1077556438813,None,f,1,1.0477166363489232,None,None,014,001,2,28,f,2021_Nov_10_1340,eye_tracking_exp,2021.2.3,84.97644080491783,
180,168,0,0,0,0,12,0,90,180,None,present,inhibit,freq_bottom,,,,,0,307,307,950,,,0.9881152013851946,,,,,,,,,,1371.4377826770433,None,1371.4377826770433,None,None,1,,None,None,014,001,2,28,f,2021_Nov_10_1340,eye_tracking_exp,2021.2.3,84.97644080491783,
90,0,168,180,180,180,0,180,180,-168,f,present,resp,freq_bottom,,,,,0,308,308,884,,,0.8287777976746514,,,,,,,,,,1375.5927364828149,None,1375.5927364828149,None,f,1,1.5067645353938133,None,None,014,001,2,28,f,2021_Nov_10_1340,eye_tracking_exp,2021.2.3,84.97644080491783,
0,180,0,180,180,180,180,12,180,-12,j,abs,resp,freq_bottom,,,,,0,309,309,151,,,0.7336050088200098,,,,,,,,,,1378.1116047604446,None,1378.1116047604446,None,j,1,1.5308655831540818,None,None,014,001,2,28,f,2021_Nov_10_1340,eye_tracking_exp,2021.2.3,84.97644080491783,
180,0,0,180,180,180,270,180,168,180,f,present,resp,freq_bottom,,,,,0,310,310,719,,,0.7427826632988324,,,,,,,,,,1380.5459047597196,None,1380.5459047597196,None,None,0,,1383.5348282869018,None,014,001,2,28,f,2021_Nov_10_1340,eye_tracking_exp,2021.2.3,84.97644080491783,
180,180,0,12,180,180,0,180,12,0,j,abs,resp,freq_bottom,,,,,0,311,311,3,,,1.0684680155381017,,,,,,,,,,1385.1348926400733,None,1385.1348926400733,None,j,1,0.7956013125658501,None,None,014,001,2,28,f,2021_Nov_10_1340,eye_tracking_exp,2021.2.3,84.97644080491783,
0,12,0,0,0,180,0,-12,0,90,j,present,resp,freq_bottom,,,,,0,312,312,695,,,0.7964188245060478,,,,,,,,,,1386.8295483083439,None,1386.8295483083439,None,j,1,1.3574968696630094,None,None,014,001,2,28,f,2021_Nov_10_1340,eye_tracking_exp,2021.2.3,84.97644080491783,
0,-168,180,0,180,180,180,-168,0,180,f,abs,resp,freq_bottom,,,,,0,313,313,305,,,0.8004806704308156,,,,,,,,,,1389.195861837481,None,1389.195861837481,None,f,1,0.7346716567408293,None,None,014,001,2,28,f,2021_Nov_10_1340,eye_tracking_exp,2021.2.3,84.97644080491783,
0,180,12,0,0,12,0,180,0,180,j,abs,resp,freq_bottom,,,,,0,314,314,68,,,0.8570746704864484,,,,,,,,,,1390.9616075374106,None,1390.9616075374106,None,j,1,0.7129132214049605,None,None,014,001,2,28,f,2021_Nov_10_1340,eye_tracking_exp,2021.2.3,84.97644080491783,
180,-168,180,168,180,180,270,0,180,0,f,present,resp,freq_bottom,,,,,0,315,315,875,,,0.88576323790211,,,,,,,,,,1392.7259786390932,None,1392.7259786390932,None,f,1,0.7715730092440936,None,None,014,001,2,28,f,2021_Nov_10_1340,eye_tracking_exp,2021.2.3,84.97644080491783,
12,180,180,-12,180,180,180,0,0,0,j,abs,resp,freq_bottom,,,,,0,316,316,176,,,0.8356423106048868,,,,,,,,,,1394.6085256483002,None,1394.6085256483002,None,j,1,0.7453403381168755,None,None,014,001,2,28,f,2021_Nov_10_1340,eye_tracking_exp,2021.2.3,84.97644080491783,
0,0,180,0,-168,180,180,-168,180,90,f,present,resp,freq_bottom,,,,,0,317,317,838,,,1.0655045496176505,,,,,,,,,,1396.7631625177182,None,1396.7631625177182,None,f,1,0.9743618680568034,None,None,014,001,2,28,f,2021_Nov_10_1340,eye_tracking_exp,2021.2.3,84.97644080491783,
180,12,0,180,180,168,0,0,90,0,None,present,inhibit,freq_bottom,,,,,0,318,318,991,,,0.879975378840644,,,,,,,,,,1398.8450081618648,None,1398.8450081618648,None,None,1,,None,None,014,001,2,28,f,2021_Nov_10_1340,eye_tracking_exp,2021.2.3,84.97644080491783,
12,180,180,180,0,90,0,0,12,0,j,present,resp,freq_bottom,,,,,0,319,319,504,,,1.0081471349384263,,,,,,,,,,1402.987680532984,None,1402.987680532984,None,j,1,1.0538899528437469,None,None,014,001,2,28,f,2021_Nov_10_1340,eye_tracking_exp,2021.2.3,84.97644080491783,
0,0,0,0,-12,0,0,0,-168,0,None,abs,inhibit,freq_bottom,,,,,0,320,320,494,,,0.883824808760104,,,,,,,,,,1405.070365002015,None,1405.070365002015,None,None,1,,None,None,014,001,2,28,f,2021_Nov_10_1340,eye_tracking_exp,2021.2.3,84.97644080491783,
0,0,0,168,180,-168,0,0,0,0,f,abs,resp,freq_bottom,,,,,0,321,321,419,,,1.0366478687662004,,,,,,,,,,1409.1184363990233,None,1409.1184363990233,None,f,1,1.0501428596016922,None,None,014,001,2,28,f,2021_Nov_10_1340,eye_tracking_exp,2021.2.3,84.97644080491783,
0,0,0,180,12,0,0,12,0,0,j,abs,resp,freq_bottom,,,,,0,322,322,47,,,0.8863288243716221,,,,,,,,,,1411.3073238256438,None,1411.3073238256438,None,j,1,0.861221928280429,None,None,014,001,2,28,f,2021_Nov_10_1340,eye_tracking_exp,2021.2.3,84.97644080491783,
0,-12,0,0,0,0,12,0,0,0,j,abs,resp,freq_bottom,,,,,0,323,323,166,,,0.934136112837041,,,,,,,,,,1413.3906273770226,None,1413.3906273770226,None,j,1,1.0182720416541997,None,None,014,001,2,28,f,2021_Nov_10_1340,eye_tracking_exp,2021.2.3,84.97644080491783,
180,180,12,180,180,180,0,12,0,180,j,abs,resp,freq_bottom,,,,,0,324,324,32,,,1.0418445449923182,,,,,,,,,,1415.7087469604285,None,1415.7087469604285,None,j,1,0.9877900086248701,None,None,014,001,2,28,f,2021_Nov_10_1340,eye_tracking_exp,2021.2.3,84.97644080491783,
0,-12,0,0,0,270,0,-12,0,0,j,present,resp,freq_bottom,,,,,0,325,325,625,,,1.0409365365545926,,,,,,,,,,1418.027041311596,None,1418.027041311596,None,j,1,1.213573958242705,None,None,014,001,2,28,f,2021_Nov_10_1340,eye_tracking_exp,2021.2.3,84.97644080491783,
-168,180,180,0,180,180,-168,180,180,0,f,abs,resp,freq_bottom,,,,,0,326,326,299,,,0.8747448716964711,,,,,,,,,,1420.439200137158,None,1420.439200137158,None,f,1,1.0414594071826286,None,None,014,001,2,28,f,2021_Nov_10_1340,eye_tracking_exp,2021.2.3,84.97644080491783,
0,0,0,180,-12,0,0,0,0,-12,j,abs,resp,freq_bottom,,,,,0,327,327,115,,,0.7450609812886033,,,,,,,,,,1422.3231588714407,None,1422.3231588714407,None,j,1,1.0936555044572742,None,None,014,001,2,28,f,2021_Nov_10_1340,eye_tracking_exp,2021.2.3,84.97644080491783,
180,12,0,0,0,0,12,0,180,180,j,abs,resp,freq_bottom,,,,,0,328,328,26,,,0.7860880425071044,,,,,,,,,,1424.3338803755414,None,1424.3338803755414,None,j,1,0.6500460280003608,None,None,014,001,2,28,f,2021_Nov_10_1340,eye_tracking_exp,2021.2.3,84.97644080491783,
180,180,0,-168,0,-168,0,90,0,180,f,present,resp,freq_bottom,,,,,0,329,329,825,,,0.8899686003624815,,,,,,,,,,1426.0048937991542,None,1426.0048937991542,None,f,1,0.8827464344030886,None,None,014,001,2,28,f,2021_Nov_10_1340,eye_tracking_exp,2021.2.3,84.97644080491783,
180,168,0,0,12,90,0,180,180,180,None,present,inhibit,freq_bottom,,,,,0,330,330,946,,,1.083614580227985,,,,,,,,,,1428.0882272331037,None,1428.0882272331037,None,None,1,,None,None,014,001,2,28,f,2021_Nov_10_1340,eye_tracking_exp,2021.2.3,84.97644080491783,
180,180,0,180,180,-12,0,0,180,-12,j,abs,resp,freq_bottom,,,,,0,331,331,135,,,0.9902400323561349,,,,,,,,,,1432.4422804566784,None,1432.4422804566784,None,j,1,1.101305140675322,None,None,014,001,2,28,f,2021_Nov_10_1340,eye_tracking_exp,2021.2.3,84.97644080491783,
180,180,0,168,0,180,0,168,0,0,f,abs,resp,freq_bottom,,,,,0,332,332,263,,,1.0766565571842508,,,,,,,,,,1434.8778322036305,None,1434.8778322036305,None,f,1,0.8897404651324905,None,None,014,001,2,28,f,2021_Nov_10_1340,eye_tracking_exp,2021.2.3,84.97644080491783,
180,0,180,168,180,270,180,0,12,0,None,present,inhibit,freq_bottom,,,,,0,333,333,962,,,0.9857604586188335,,,,,,,,,,1437.0435316610365,None,1437.0435316610365,None,None,1,,None,None,014,001,2,28,f,2021_Nov_10_1340,eye_tracking_exp,2021.2.3,84.97644080491783,
12,0,180,0,12,180,0,0,180,180,j,abs,resp,freq_bottom,,,,,0,334,334,16,,,0.9053280283822571,,,,,,,,,,1440.97400669128,None,1440.97400669128,None,j,1,0.5526677858906623,None,None,014,001,2,28,f,2021_Nov_10_1340,eye_tracking_exp,2021.2.3,84.97644080491783,
0,0,0,-168,0,180,0,-168,0,0,f,abs,resp,freq_bottom,,,,,0,335,335,333,,,0.7640039064679622,,,,,,,,,,1443.550630431684,None,1443.550630431684,None,f,1,1.4160009059214644,None,None,014,001,2,28,f,2021_Nov_10_1340,eye_tracking_exp,2021.2.3,84.97644080491783,
