ori10,ori11,ori12,ori13,ori14,ori16,ori17,ori18,ori19,ori20,corrAns,distractor,respon,dist_freq,practice_trials.thisRepN,practice_trials.thisTrialN,practice_trials.thisN,practice_trials.thisIndex,trials.thisRepN,trials.thisTrialN,trials.thisN,trials.thisIndex,key_resp.keys,key_resp.rt,fixdur,int14_2.started,int14_2.stopped,per15_2.started,per15_2.stopped,response_pract.keys,response_pract.corr,response_pract.rt,key_resp_2.keys,key_resp_2.rt,int14.started,int14.stopped,per15.started,per15.stopped,response.keys,response.corr,text_7.started,text_7.stopped,response.rt,participant,session,1=top 2=bottom,age,gender,date,expName,psychopyVersion,frameRate,
,,,,,,,,,,,,,,,,,,,,,,space,1.3260780380842334,,,,,,,,,,,,,,,,,,,,015,001,2,28,f,2021_Nov_10_1439,eye_tracking_exp,2021.2.3,84.98995656917724,
0,180,180,180,168,0,0,0,0,12,None,abs,inhibit,pract,0,0,0,31,,,,,,,0.996381260415695,484.824999215205,None,484.824999215205,None,None,1,,,,,,,,,,,,,015,001,2,28,f,2021_Nov_10_1439,eye_tracking_exp,2021.2.3,84.98995656917724,
0,0,180,0,0,0,168,0,180,168,f,abs,resp,pract,0,1,1,15,,,,,,,0.9189938177903234,489.04959601179144,None,489.04959601179144,None,None,0,,,,,,,,,,,,,015,001,2,28,f,2021_Nov_10_1439,eye_tracking_exp,2021.2.3,84.98995656917724,
180,12,180,-168,180,180,0,180,180,180,None,abs,inhibit,pract,0,2,2,26,,,,,,,0.8085555770417251,493.3680307204886,None,493.3680307204886,None,None,1,,,,,,,,,,,,,015,001,2,28,f,2021_Nov_10_1439,eye_tracking_exp,2021.2.3,84.98995656917724,
180,12,180,12,0,180,0,180,180,180,j,abs,resp,pract,0,3,3,5,,,,,,,0.881813604610002,497.68684816756286,None,497.68684816756286,None,f,0,1.8473342047582264,,,,,,,,,,,,015,001,2,28,f,2021_Nov_10_1439,eye_tracking_exp,2021.2.3,84.98995656917724,
0,0,0,-168,0,12,0,0,0,0,None,abs,inhibit,pract,0,4,4,21,,,,,,,1.0113617617425683,501.0878206490379,None,501.0878206490379,None,None,1,,,,,,,,,,,,,015,001,2,28,f,2021_Nov_10_1439,eye_tracking_exp,2021.2.3,84.98995656917724,
0,270,0,0,12,0,0,12,0,0,j,present,resp,pract,0,5,5,40,,,,,,,0.7511938372520435,505.3834410715717,None,505.3834410715717,None,j,1,1.7827338222596154,,,,,,,,,,,,015,001,2,28,f,2021_Nov_10_1439,eye_tracking_exp,2021.2.3,84.98995656917724,
0,168,180,90,0,180,0,168,0,0,f,present,resp,pract,0,6,6,48,,,,,,,1.0980875083804684,508.5591762431759,None,508.5591762431759,None,f,1,2.2391861634860106,,,,,,,,,,,,015,001,2,28,f,2021_Nov_10_1439,eye_tracking_exp,2021.2.3,84.98995656917724,
180,180,180,-168,180,180,12,180,0,180,None,abs,inhibit,pract,0,7,7,22,,,,,,,1.031251313547477,512.1007317305812,None,512.1007317305812,None,None,1,,,,,,,,,,,,,015,001,2,28,f,2021_Nov_10_1439,eye_tracking_exp,2021.2.3,84.98995656917724,
0,180,180,180,12,0,180,12,0,0,j,abs,resp,pract,0,8,8,8,,,,,,,0.7717976345187398,516.8899527553549,None,516.8899527553549,None,None,0,,,,,,,,,,,,,015,001,2,28,f,2021_Nov_10_1439,eye_tracking_exp,2021.2.3,84.98995656917724,
180,270,180,12,180,0,12,180,0,180,j,present,resp,pract,0,9,9,33,,,,,,,0.7808214364124985,521.6805589429168,None,521.6805589429168,None,j,1,2.508609834345407,,,,,,,,,,,,015,001,2,28,f,2021_Nov_10_1439,eye_tracking_exp,2021.2.3,84.98995656917724,
180,12,180,12,180,90,180,180,0,180,j,present,resp,pract,0,10,10,37,,,,,,,0.7894786583249176,527.6214391445974,None,527.6214391445974,None,j,1,1.8307264379473054,,,,,,,,,,,,015,001,2,28,f,2021_Nov_10_1439,eye_tracking_exp,2021.2.3,84.98995656917724,
180,0,180,0,12,0,12,180,180,180,j,abs,resp,pract,0,11,11,7,,,,,,,0.8679463964377455,530.5983218069123,None,530.5983218069123,None,j,1,1.718083937324991,,,,,,,,,,,,015,001,2,28,f,2021_Nov_10_1439,eye_tracking_exp,2021.2.3,84.98995656917724,
180,270,0,0,0,0,0,168,0,168,f,present,resp,pract,0,12,12,43,,,,,,,0.8384607015658998,536.2349560877119,None,536.2349560877119,None,f,1,1.5693318213961902,,,,,,,,,,,,015,001,2,28,f,2021_Nov_10_1439,eye_tracking_exp,2021.2.3,84.98995656917724,
0,180,0,0,180,0,180,168,0,168,f,abs,resp,pract,0,13,13,14,,,,,,,0.8573285240036407,538.8950219259568,None,538.8950219259568,None,f,1,1.757191770539066,,,,,,,,,,,,015,001,2,28,f,2021_Nov_10_1439,eye_tracking_exp,2021.2.3,84.98995656917724,
180,180,90,180,12,180,12,0,0,180,j,present,resp,pract,0,14,14,39,,,,,,,0.7966323478243122,541.7531289164253,None,541.7531289164253,None,j,1,1.410157932605216,,,,,,,,,,,,015,001,2,28,f,2021_Nov_10_1439,eye_tracking_exp,2021.2.3,84.98995656917724,
0,180,0,12,0,180,180,12,0,0,j,abs,resp,pract,0,15,15,2,,,,,,,0.9622790222058493,546.0964247164484,None,546.0964247164484,None,j,1,1.002835253970261,,,,,,,,,,,,015,001,2,28,f,2021_Nov_10_1439,eye_tracking_exp,2021.2.3,84.98995656917724,
168,0,270,180,180,180,180,168,180,180,f,present,resp,pract,0,16,16,49,,,,,,,1.0537715091598627,549.5541731764388,None,549.5541731764388,None,f,1,1.5130834664487338,,,,,,,,,,,,015,001,2,28,f,2021_Nov_10_1439,eye_tracking_exp,2021.2.3,84.98995656917724,
0,0,168,0,0,0,0,0,180,168,f,abs,resp,pract,0,17,17,19,,,,,,,1.080752784002046,553.7192674363287,None,553.7192674363287,None,j,0,2.324054776767298,,,,,,,,,,,,015,001,2,28,f,2021_Nov_10_1439,eye_tracking_exp,2021.2.3,84.98995656917724,
0,270,0,0,12,0,180,180,180,12,j,present,resp,pract,0,18,18,42,,,,,,,0.9718541824197873,558.9096788740499,None,558.9096788740499,None,j,1,2.525210356896423,,,,,,,,,,,,015,001,2,28,f,2021_Nov_10_1439,eye_tracking_exp,2021.2.3,84.98995656917724,
12,0,0,12,0,0,90,180,180,0,j,present,resp,pract,0,19,19,38,,,,,,,0.7768201458737862,563.2506459464748,None,563.2506459464748,None,j,1,2.6316629395951168,,,,,,,,,,,,015,001,2,28,f,2021_Nov_10_1439,eye_tracking_exp,2021.2.3,84.98995656917724,
0,0,180,0,168,0,0,0,180,168,f,abs,resp,pract,0,20,20,17,,,,,,,1.077671526932339,567.7930979109951,None,567.7930979109951,None,j,0,1.8331903917169257,,,,,,,,,,,,015,001,2,28,f,2021_Nov_10_1439,eye_tracking_exp,2021.2.3,84.98995656917724,
168,0,180,0,0,180,180,0,168,0,f,abs,resp,pract,0,21,21,13,,,,,,,0.8734450165914497,571.7939457912034,None,571.7939457912034,None,f,1,1.7675006536956062,,,,,,,,,,,,015,001,2,28,f,2021_Nov_10_1439,eye_tracking_exp,2021.2.3,84.98995656917724,
90,0,0,12,0,0,0,12,0,0,j,present,resp,pract,0,22,22,34,,,,,,,0.7288762692795472,574.8536879921558,None,574.8536879921558,None,j,1,2.339596430050733,,,,,,,,,,,,015,001,2,28,f,2021_Nov_10_1439,eye_tracking_exp,2021.2.3,84.98995656917724,
0,180,0,180,168,180,12,180,0,180,None,abs,inhibit,pract,0,23,23,28,,,,,,,1.0169207713625625,579.125001207376,None,579.125001207376,None,None,1,,,,,,,,,,,,,015,001,2,28,f,2021_Nov_10_1439,eye_tracking_exp,2021.2.3,84.98995656917724,
0,0,0,0,168,0,0,12,0,0,None,abs,inhibit,pract,0,24,24,29,,,,,,,1.0390911565586527,584.2553375100506,None,584.2553375100506,None,None,1,,,,,,,,,,,,,015,001,2,28,f,2021_Nov_10_1439,eye_tracking_exp,2021.2.3,84.98995656917724,
0,0,0,-168,0,0,0,12,0,0,None,abs,inhibit,pract,0,25,25,23,,,,,,,0.7755367835199444,592.8332335235355,None,592.8332335235355,None,None,1,,,,,,,,,,,,,015,001,2,28,f,2021_Nov_10_1439,eye_tracking_exp,2021.2.3,84.98995656917724,
90,0,180,168,180,180,0,168,0,0,f,present,resp,pract,0,26,26,46,,,,,,,0.7408513823493965,596.85982055969,None,596.85982055969,None,f,1,2.3005688873745385,,,,,,,,,,,,015,001,2,28,f,2021_Nov_10_1439,eye_tracking_exp,2021.2.3,84.98995656917724,
180,168,0,180,0,180,180,180,168,180,f,abs,resp,pract,0,27,27,12,,,,,,,0.8942148516281967,600.3415227674996,None,600.3415227674996,None,f,1,1.2981423622768489,,,,,,,,,,,,015,001,2,28,f,2021_Nov_10_1439,eye_tracking_exp,2021.2.3,84.98995656917724,
0,0,168,0,0,0,0,0,168,0,f,abs,resp,pract,0,28,28,11,,,,,,,0.890855630179885,603.1541173956393,None,603.1541173956393,None,f,1,1.5591153025525273,,,,,,,,,,,,015,001,2,28,f,2021_Nov_10_1439,eye_tracking_exp,2021.2.3,84.98995656917724,
12,0,0,-168,0,0,180,180,180,180,None,abs,inhibit,pract,0,29,29,27,,,,,,,0.824814599768434,606.0604506291638,None,606.0604506291638,None,None,1,,,,,,,,,,,,,015,001,2,28,f,2021_Nov_10_1439,eye_tracking_exp,2021.2.3,84.98995656917724,
0,0,0,-168,180,180,180,180,0,12,None,abs,inhibit,pract,0,30,30,25,,,,,,,1.0592992760100852,610.4024358218958,None,610.4024358218958,None,None,1,,,,,,,,,,,,,015,001,2,28,f,2021_Nov_10_1439,eye_tracking_exp,2021.2.3,84.98995656917724,
0,180,0,12,0,180,180,180,0,12,j,abs,resp,pract,0,31,31,4,,,,,,,0.8644074891604988,617.2975721467883,None,617.2975721467883,None,f,0,1.3178817621119379,,,,,,,,,,,,015,001,2,28,f,2021_Nov_10_1439,eye_tracking_exp,2021.2.3,84.98995656917724,
90,0,0,12,0,180,180,180,0,12,j,present,resp,pract,0,32,32,36,,,,,,,0.7873813191049639,619.9569205014959,None,619.9569205014959,None,j,1,2.5456113991058373,,,,,,,,,,,,015,001,2,28,f,2021_Nov_10_1439,eye_tracking_exp,2021.2.3,84.98995656917724,
90,0,0,12,0,12,180,180,180,0,j,present,resp,pract,0,33,33,32,,,,,,,0.9603116264183718,623.7580175842304,None,623.7580175842304,None,j,1,2.521697494710679,,,,,,,,,,,,015,001,2,28,f,2021_Nov_10_1439,eye_tracking_exp,2021.2.3,84.98995656917724,
180,0,180,0,168,180,0,180,12,180,None,abs,inhibit,pract,0,34,34,30,,,,,,,0.9428221416872938,627.5233147437575,None,627.5233147437575,None,None,1,,,,,,,,,,,,,015,001,2,28,f,2021_Nov_10_1439,eye_tracking_exp,2021.2.3,84.98995656917724,
180,0,90,180,12,0,180,180,12,180,j,present,resp,pract,0,35,35,41,,,,,,,0.9703818516436263,631.7606846791132,None,631.7606846791132,None,j,1,1.5410206514752645,,,,,,,,,,,,015,001,2,28,f,2021_Nov_10_1439,eye_tracking_exp,2021.2.3,84.98995656917724,
12,0,0,12,0,0,180,0,180,180,j,abs,resp,pract,0,36,36,6,,,,,,,0.7486336103236335,634.3261392805471,None,634.3261392805471,None,j,1,0.9283503811893752,,,,,,,,,,,,015,001,2,28,f,2021_Nov_10_1439,eye_tracking_exp,2021.2.3,84.98995656917724,
90,0,180,180,180,168,0,168,0,0,f,present,resp,pract,0,37,37,44,,,,,,,0.856845181512963,636.3959247418024,None,636.3959247418024,None,j,0,1.2416712463491422,,,,,,,,,,,,015,001,2,28,f,2021_Nov_10_1439,eye_tracking_exp,2021.2.3,84.98995656917724,
180,0,180,12,180,180,12,180,180,180,j,abs,resp,pract,0,38,38,1,,,,,,,0.8341214521399893,639.4086254379763,None,639.4086254379763,None,f,0,1.9728388881740102,,,,,,,,,,,,015,001,2,28,f,2021_Nov_10_1439,eye_tracking_exp,2021.2.3,84.98995656917724,
180,180,168,0,270,0,0,168,0,180,f,present,resp,pract,0,39,39,47,,,,,,,0.8749717474586884,642.8202059301511,None,642.8202059301511,None,j,0,2.4813762480225705,,,,,,,,,,,,015,001,2,28,f,2021_Nov_10_1439,eye_tracking_exp,2021.2.3,84.98995656917724,
180,270,180,12,180,180,180,180,12,180,j,present,resp,pract,0,40,40,35,,,,,,,1.0130980299010361,646.8702864018014,None,646.8702864018014,None,j,1,2.1112658213642135,,,,,,,,,,,,015,001,2,28,f,2021_Nov_10_1439,eye_tracking_exp,2021.2.3,84.98995656917724,
180,270,0,0,168,0,0,168,180,0,f,present,resp,pract,0,41,41,45,,,,,,,0.7487516517440125,650.0459409810173,None,650.0459409810173,None,f,1,2.2146063909058284,,,,,,,,,,,,015,001,2,28,f,2021_Nov_10_1439,eye_tracking_exp,2021.2.3,84.98995656917724,
180,180,0,168,180,180,180,0,0,168,f,abs,resp,pract,0,42,42,18,,,,,,,1.0006189506770045,653.5289622477467,None,653.5289622477467,None,f,1,2.3476140142847726,,,,,,,,,,,,015,001,2,28,f,2021_Nov_10_1439,eye_tracking_exp,2021.2.3,84.98995656917724,
0,180,0,12,0,12,0,180,180,180,j,abs,resp,pract,0,43,43,0,,,,,,,0.859124279918535,657.0123638381046,None,657.0123638381046,None,j,1,1.5521885830676183,,,,,,,,,,,,015,001,2,28,f,2021_Nov_10_1439,eye_tracking_exp,2021.2.3,84.98995656917724,
180,0,180,0,12,180,180,180,12,180,j,abs,resp,pract,0,44,44,9,,,,,,,0.9012035482491783,659.7316095416536,None,659.7316095416536,None,None,0,,,,,,,,,,,,,015,001,2,28,f,2021_Nov_10_1439,eye_tracking_exp,2021.2.3,84.98995656917724,
0,180,0,-168,180,0,180,0,12,180,None,abs,inhibit,pract,0,45,45,24,,,,,,,0.9400889536904762,664.1909472110783,None,664.1909472110783,None,None,1,,,,,,,,,,,,,015,001,2,28,f,2021_Nov_10_1439,eye_tracking_exp,2021.2.3,84.98995656917724,
180,168,180,0,180,0,180,0,0,168,f,abs,resp,pract,0,46,46,20,,,,,,,0.9261428256623353,668.4744111624386,None,668.4744111624386,None,f,1,1.8331565851731284,,,,,,,,,,,,015,001,2,28,f,2021_Nov_10_1439,eye_tracking_exp,2021.2.3,84.98995656917724,
0,180,0,0,180,168,180,0,0,168,f,abs,resp,pract,0,47,47,16,,,,,,,1.0351281661461762,671.7225732334264,None,671.7225732334264,None,f,1,2.0089645012158144,,,,,,,,,,,,015,001,2,28,f,2021_Nov_10_1439,eye_tracking_exp,2021.2.3,84.98995656917724,
180,180,0,168,180,180,180,180,168,180,f,abs,resp,pract,0,48,48,10,,,,,,,1.0469246090573114,675.0646311706005,None,675.0646311706005,None,f,1,2.6189565083841444,,,,,,,,,,,,015,001,2,28,f,2021_Nov_10_1439,eye_tracking_exp,2021.2.3,84.98995656917724,
180,0,180,12,0,180,180,0,12,180,j,abs,resp,pract,0,49,49,3,,,,,,,1.0551054574315082,679.0441223700327,None,679.0441223700327,None,j,1,1.151479611533432,,,,,,,,,,,,015,001,2,28,f,2021_Nov_10_1439,eye_tracking_exp,2021.2.3,84.98995656917724,
,,,,,,,,,,,,,,,,,,,,,,,,,,,,,,,,space,54.6208931404326,,,,,,,,,,015,001,2,28,f,2021_Nov_10_1439,eye_tracking_exp,2021.2.3,84.98995656917724,
180,180,180,0,180,-12,0,90,180,12,j,present,resp,freq_bottom,,,,,0,0,0,709,,,0.8450550923073694,,,,,,,,,,866.0106762274772,None,866.0106762274772,None,None,0,868.9760993767522,None,,015,001,2,28,f,2021_Nov_10_1439,eye_tracking_exp,2021.2.3,84.98995656917724,
180,-12,0,0,180,180,180,-12,180,270,j,present,resp,freq_bottom,,,,,0,1,1,599,,,1.0525406078187391,,,,,,,,,,870.5642958217504,None,870.5642958217504,None,j,1,None,None,1.8914882684257464,015,001,2,28,f,2021_Nov_10_1439,eye_tracking_exp,2021.2.3,84.98995656917724,
180,0,0,180,180,180,270,180,168,180,f,present,resp,freq_bottom,,,,,0,2,2,719,,,0.8614332376828656,,,,,,,,,,873.6007187512805,None,873.6007187512805,None,None,0,876.5779805298444,None,,015,001,2,28,f,2021_Nov_10_1439,eye_tracking_exp,2021.2.3,84.98995656917724,
180,180,180,-12,0,0,270,180,180,-12,j,present,resp,freq_bottom,,,,,0,3,3,611,,,0.8824391639553723,,,,,,,,,,877.990200327924,None,877.990200327924,None,j,1,None,None,2.241195238126238,015,001,2,28,f,2021_Nov_10_1439,eye_tracking_exp,2021.2.3,84.98995656917724,
180,-12,0,-12,0,0,0,180,0,180,j,abs,resp,freq_bottom,,,,,0,4,4,105,,,0.9161082649346877,,,,,,,,,,881.4607672033053,None,881.4607672033053,None,j,1,None,None,1.4104163111951493,015,001,2,28,f,2021_Nov_10_1439,eye_tracking_exp,2021.2.3,84.98995656917724,
180,0,180,0,180,-168,0,168,180,0,f,abs,resp,freq_bottom,,,,,0,5,5,413,,,0.9614997516418531,,,,,,,,,,884.1317492351263,None,884.1317492351263,None,None,0,887.1099621245958,None,,015,001,2,28,f,2021_Nov_10_1439,eye_tracking_exp,2021.2.3,84.98995656917724,
168,0,0,180,180,0,90,168,0,0,f,present,resp,freq_bottom,,,,,0,6,6,732,,,0.7020863113780602,,,,,,,,,,888.3566928506407,None,888.3566928506407,None,f,1,None,None,1.4095192303902877,015,001,2,28,f,2021_Nov_10_1439,eye_tracking_exp,2021.2.3,84.98995656917724,
180,180,180,-168,180,180,180,180,168,180,f,abs,resp,freq_bottom,,,,,0,7,7,353,,,0.9781524057250575,,,,,,,,,,891.0047591766634,None,891.0047591766634,None,f,1,None,None,2.6334827579557896,015,001,2,28,f,2021_Nov_10_1439,eye_tracking_exp,2021.2.3,84.98995656917724,
270,180,12,180,180,0,180,-12,180,180,j,present,resp,freq_bottom,,,,,0,8,8,696,,,0.9852106313979132,,,,,,,,,,894.9460018931641,None,894.9460018931641,None,None,0,897.9119813411999,None,,015,001,2,28,f,2021_Nov_10_1439,eye_tracking_exp,2021.2.3,84.98995656917724,
0,12,0,0,0,180,0,12,0,90,j,present,resp,freq_bottom,,,,,0,9,9,555,,,0.9152273158980406,,,,,,,,,,899.3606107876694,None,899.3606107876694,None,j,1,None,None,1.5086339818772103,015,001,2,28,f,2021_Nov_10_1439,eye_tracking_exp,2021.2.3,84.98995656917724,
180,180,180,180,-168,0,168,0,0,0,f,abs,resp,freq_bottom,,,,,0,10,10,412,,,0.7496753869918601,,,,,,,,,,902.1595560234819,None,902.1595560234819,None,None,0,905.148879796001,None,,015,001,2,28,f,2021_Nov_10_1439,eye_tracking_exp,2021.2.3,84.98995656917724,
12,0,-12,0,0,0,0,0,0,0,j,abs,resp,freq_bottom,,,,,0,11,11,154,,,0.7545683279494358,,,,,,,,,,906.4312079078336,None,906.4312079078336,None,None,0,909.4090558677271,None,,015,001,2,28,f,2021_Nov_10_1439,eye_tracking_exp,2021.2.3,84.98995656917724,
180,12,0,0,180,180,-168,180,180,180,None,abs,inhibit,freq_bottom,,,,,0,12,12,479,,,1.0584282215526528,,,,,,,,,,911.2914921001357,None,911.2914921001357,None,None,1,None,None,,015,001,2,28,f,2021_Nov_10_1439,eye_tracking_exp,2021.2.3,84.98995656917724,
0,12,180,180,180,0,12,0,0,270,j,present,resp,freq_bottom,,,,,0,13,13,530,,,1.0129319801708703,,,,,,,,,,915.704638861589,None,915.704638861589,None,j,1,None,None,1.467693350998161,015,001,2,28,f,2021_Nov_10_1439,eye_tracking_exp,2021.2.3,84.98995656917724,
0,12,0,0,0,180,0,-12,0,0,j,abs,resp,freq_bottom,,,,,0,14,14,191,,,1.0887715656816581,,,,,,,,,,918.5645255251475,None,918.5645255251475,None,j,1,None,None,1.4557276453233499,015,001,2,28,f,2021_Nov_10_1439,eye_tracking_exp,2021.2.3,84.98995656917724,
0,0,168,0,0,0,168,0,0,0,f,abs,resp,freq_bottom,,,,,0,15,15,270,,,0.705593145845528,,,,,,,,,,920.9881091516727,None,920.9881091516727,None,f,1,None,None,1.8000642039587547,015,001,2,28,f,2021_Nov_10_1439,eye_tracking_exp,2021.2.3,84.98995656917724,
0,0,0,0,0,-168,0,0,168,0,f,abs,resp,freq_bottom,,,,,0,16,16,356,,,0.8752736280010732,,,,,,,,,,923.977877540623,None,923.977877540623,None,f,1,None,None,2.042390722053824,015,001,2,28,f,2021_Nov_10_1439,eye_tracking_exp,2021.2.3,84.98995656917724,
-168,180,180,180,180,180,0,180,12,180,None,abs,inhibit,freq_bottom,,,,,0,17,17,437,,,0.7086616564453037,,,,,,,,,,927.0254518003203,None,927.0254518003203,None,f,0,928.1200654518834,None,1.0748105945094721,015,001,2,28,f,2021_Nov_10_1439,eye_tracking_exp,2021.2.3,84.98995656917724,
0,270,0,0,0,-12,0,0,-168,0,None,present,inhibit,freq_bottom,,,,,0,18,18,1000,,,1.0947464110632417,,,,,,,,,,929.7435737381093,None,929.7435737381093,None,None,1,None,None,,015,001,2,28,f,2021_Nov_10_1439,eye_tracking_exp,2021.2.3,84.98995656917724,
0,0,168,0,180,180,180,0,0,-168,f,abs,resp,freq_bottom,,,,,0,19,19,380,,,0.8529985712154231,,,,,,,,,,933.8525947126545,None,933.8525947126545,None,None,0,936.8306518505451,None,,015,001,2,28,f,2021_Nov_10_1439,eye_tracking_exp,2021.2.3,84.98995656917724,
-168,180,0,-168,180,90,180,0,0,0,f,present,resp,freq_bottom,,,,,0,20,20,820,,,0.7951523138708971,,,,,,,,,,938.500255360148,None,938.500255360148,None,j,0,940.5363972727755,None,2.0150394165211765,015,001,2,28,f,2021_Nov_10_1439,eye_tracking_exp,2021.2.3,84.98995656917724,
180,180,12,180,180,180,0,12,0,180,j,abs,resp,freq_bottom,,,,,0,21,21,32,,,0.9424188643293678,,,,,,,,,,942.3599920071647,None,942.3599920071647,None,f,0,944.2790352940319,None,1.899285204584885,015,001,2,28,f,2021_Nov_10_1439,eye_tracking_exp,2021.2.3,84.98995656917724,
12,180,180,-12,180,180,180,0,90,0,j,present,resp,freq_bottom,,,,,0,22,22,680,,,0.7147669036937383,,,,,,,,,,945.9493273101325,None,945.9493273101325,None,j,1,None,None,1.7489906650662306,015,001,2,28,f,2021_Nov_10_1439,eye_tracking_exp,2021.2.3,84.98995656917724,
168,0,180,-168,180,90,180,180,0,180,f,present,resp,freq_bottom,,,,,0,23,23,869,,,0.9407412399447065,,,,,,,,,,948.9272990261306,None,948.9272990261306,None,f,1,None,None,2.116174109036365,015,001,2,28,f,2021_Nov_10_1439,eye_tracking_exp,2021.2.3,84.98995656917724,
180,168,0,-168,0,0,270,180,180,180,f,present,resp,freq_bottom,,,,,0,24,24,889,,,0.8348002641351703,,,,,,,,,,952.9627910683084,None,952.9627910683084,None,j,0,955.4109728799049,None,2.4316154293301224,015,001,2,28,f,2021_Nov_10_1439,eye_tracking_exp,2021.2.3,84.98995656917724,
168,180,0,180,180,180,-168,180,180,180,f,abs,resp,freq_bottom,,,,,0,25,25,369,,,0.9476451076914829,,,,,,,,,,957.2816154577995,None,957.2816154577995,None,f,1,None,None,1.904738622790319,015,001,2,28,f,2021_Nov_10_1439,eye_tracking_exp,2021.2.3,84.98995656917724,
0,-12,0,0,12,270,180,180,180,180,j,present,resp,freq_bottom,,,,,0,26,26,666,,,0.9773756791106465,,,,,,,,,,960.4587252276506,None,960.4587252276506,None,j,1,None,None,2.2637442032864783,015,001,2,28,f,2021_Nov_10_1439,eye_tracking_exp,2021.2.3,84.98995656917724,
180,-12,180,180,180,180,270,180,180,-12,j,present,resp,freq_bottom,,,,,0,27,27,597,,,0.9197398579387452,,,,,,,,,,963.9416330009808,None,963.9416330009808,None,j,1,None,None,1.947730888336082,015,001,2,28,f,2021_Nov_10_1439,eye_tracking_exp,2021.2.3,84.98995656917724,
12,180,0,0,0,0,-168,0,90,0,None,present,inhibit,freq_bottom,,,,,0,28,28,982,,,0.797900507604544,,,,,,,,,,969.0721304884319,None,969.0721304884319,None,None,1,None,None,,015,001,2,28,f,2021_Nov_10_1439,eye_tracking_exp,2021.2.3,84.98995656917724,
180,-168,180,180,180,-168,0,0,180,90,f,present,resp,freq_bottom,,,,,0,29,29,851,,,1.0180404933651088,,,,,,,,,,973.6968352848562,None,973.6968352848562,None,f,1,None,None,1.8245579509566596,015,001,2,28,f,2021_Nov_10_1439,eye_tracking_exp,2021.2.3,84.98995656917724,
0,-12,0,0,0,180,0,-12,0,0,j,abs,resp,freq_bottom,,,,,0,30,30,121,,,0.7093287645053747,,,,,,,,,,976.5330154109542,None,976.5330154109542,None,j,1,None,None,2.556385725929431,015,001,2,28,f,2021_Nov_10_1439,eye_tracking_exp,2021.2.3,84.98995656917724,
168,0,168,0,0,0,0,0,0,0,f,abs,resp,freq_bottom,,,,,0,31,31,224,,,0.9565017827318787,,,,,,,,,,980.3814455799147,None,980.3814455799147,None,f,1,None,None,1.730927405777038,015,001,2,28,f,2021_Nov_10_1439,eye_tracking_exp,2021.2.3,84.98995656917724,
180,168,180,0,180,12,0,180,180,180,None,abs,inhibit,freq_bottom,,,,,0,32,32,447,,,0.8956038941270228,,,,,,,,,,983.8869832126366,None,983.8869832126366,None,None,1,None,None,,015,001,2,28,f,2021_Nov_10_1439,eye_tracking_exp,2021.2.3,84.98995656917724,
180,0,180,0,180,168,0,0,180,168,f,abs,resp,freq_bottom,,,,,0,33,33,275,,,0.8276457838410555,,,,,,,,,,988.0061612427271,None,988.0061612427271,None,f,1,None,None,2.251398173983034,015,001,2,28,f,2021_Nov_10_1439,eye_tracking_exp,2021.2.3,84.98995656917724,
180,168,0,168,0,0,0,180,0,180,f,abs,resp,freq_bottom,,,,,0,34,34,245,,,1.0774221889323994,,,,,,,,,,991.5843065794761,None,991.5843065794761,None,f,1,None,None,1.0081640105381666,015,001,2,28,f,2021_Nov_10_1439,eye_tracking_exp,2021.2.3,84.98995656917724,
0,0,0,180,90,180,168,180,180,-168,f,present,resp,freq_bottom,,,,,0,35,35,911,,,1.0265243491382385,,,,,,,,,,993.915071017891,None,993.915071017891,None,None,0,996.8928969431618,None,,015,001,2,28,f,2021_Nov_10_1439,eye_tracking_exp,2021.2.3,84.98995656917724,
0,0,180,-12,180,180,90,180,180,168,None,present,inhibit,freq_bottom,,,,,0,36,36,1003,,,1.0155779021756572,,,,,,,,,,998.4459264321304,None,998.4459264321304,None,None,1,None,None,,015,001,2,28,f,2021_Nov_10_1439,eye_tracking_exp,2021.2.3,84.98995656917724,
168,0,168,0,0,0,0,180,0,180,f,abs,resp,freq_bottom,,,,,0,37,37,239,,,0.8079106450858976,,,,,,,,,,1002.7638640035148,None,1002.7638640035148,None,f,1,None,None,1.555074514959415,015,001,2,28,f,2021_Nov_10_1439,eye_tracking_exp,2021.2.3,84.98995656917724,
168,0,180,0,180,0,180,-168,0,180,f,abs,resp,freq_bottom,,,,,0,38,38,400,,,0.9324367300557018,,,,,,,,,,1006.317447376492,None,1006.317447376492,None,None,0,1009.306397767803,None,,015,001,2,28,f,2021_Nov_10_1439,eye_tracking_exp,2021.2.3,84.98995656917724,
0,0,12,180,0,180,180,270,0,-12,j,present,resp,freq_bottom,,,,,0,39,39,674,,,0.8741502372443223,,,,,,,,,,1010.706658802621,None,1010.706658802621,None,j,1,None,None,1.5478218037933402,015,001,2,28,f,2021_Nov_10_1439,eye_tracking_exp,2021.2.3,84.98995656917724,
180,180,180,0,-168,0,-168,0,0,180,f,abs,resp,freq_bottom,,,,,0,40,40,342,,,0.8366683136254888,,,,,,,,,,1013.649778386025,None,1013.649778386025,None,f,1,None,None,1.8367286088105175,015,001,2,28,f,2021_Nov_10_1439,eye_tracking_exp,2021.2.3,84.98995656917724,
0,180,0,0,0,0,168,0,168,180,f,abs,resp,freq_bottom,,,,,0,41,41,266,,,1.0984800321411285,,,,,,,,,,1017.2135447731453,None,1017.2135447731453,None,f,1,None,None,1.5690209219246753,015,001,2,28,f,2021_Nov_10_1439,eye_tracking_exp,2021.2.3,84.98995656917724,
0,0,-12,180,180,180,90,0,0,-12,j,present,resp,freq_bottom,,,,,0,42,42,604,,,0.8885595091174436,,,,,,,,,,1022.2275938071216,None,1022.2275938071216,None,j,1,None,None,1.3548947969502478,015,001,2,28,f,2021_Nov_10_1439,eye_tracking_exp,2021.2.3,84.98995656917724,
180,12,0,12,180,0,180,0,180,90,j,present,resp,freq_bottom,,,,,0,43,43,525,,,1.0462265568252636,,,,,,,,,,1025.1101003692165,None,1025.1101003692165,None,j,1,None,None,1.4958581265091198,015,001,2,28,f,2021_Nov_10_1439,eye_tracking_exp,2021.2.3,84.98995656917724,
-168,180,180,0,0,0,168,0,270,0,f,present,resp,freq_bottom,,,,,0,44,44,912,,,0.8156496425588746,,,,,,,,,,1027.7445689182641,None,1027.7445689182641,None,f,1,None,None,2.0129998556185456,015,001,2,28,f,2021_Nov_10_1439,eye_tracking_exp,2021.2.3,84.98995656917724,
180,0,180,-12,180,180,0,270,180,-12,j,present,resp,freq_bottom,,,,,0,45,45,614,,,0.8985069217441044,,,,,,,,,,1030.9218700573,None,1030.9218700573,None,j,1,None,None,1.3001399668428348,015,001,2,28,f,2021_Nov_10_1439,eye_tracking_exp,2021.2.3,84.98995656917724,
180,12,180,180,180,0,180,0,180,-12,j,abs,resp,freq_bottom,,,,,0,46,46,147,,,0.9158217078809681,,,,,,,,,,1033.4519364509397,None,1033.4519364509397,None,None,0,1036.42965884367,None,,015,001,2,28,f,2021_Nov_10_1439,eye_tracking_exp,2021.2.3,84.98995656917724,
180,180,0,12,180,180,0,180,12,0,j,abs,resp,freq_bottom,,,,,0,47,47,3,,,0.9495630624946623,,,,,,,,,,1038.3826958183708,None,1038.3826958183708,None,j,1,None,None,1.6148954972304637,015,001,2,28,f,2021_Nov_10_1439,eye_tracking_exp,2021.2.3,84.98995656917724,
180,180,180,0,180,270,180,168,180,-168,f,present,resp,freq_bottom,,,,,0,48,48,865,,,0.9040440015759359,,,,,,,,,,1041.2445471854844,None,1041.2445471854844,None,j,0,1043.867618099539,None,2.6080170728055236,015,001,2,28,f,2021_Nov_10_1439,eye_tracking_exp,2021.2.3,84.98995656917724,
12,0,0,0,0,168,180,270,180,180,None,present,inhibit,freq_bottom,,,,,0,49,49,990,,,0.9464567328843252,,,,,,,,,,1045.7845994890376,None,1045.7845994890376,None,None,1,None,None,,015,001,2,28,f,2021_Nov_10_1439,eye_tracking_exp,2021.2.3,84.98995656917724,
180,168,180,0,0,180,180,90,180,168,f,present,resp,freq_bottom,,,,,0,50,50,721,,,0.7344712319574672,,,,,,,,,,1049.7743334677543,None,1049.7743334677543,None,f,1,None,None,1.4383710031834198,015,001,2,28,f,2021_Nov_10_1439,eye_tracking_exp,2021.2.3,84.98995656917724,
0,180,0,180,180,12,180,180,0,168,None,abs,inhibit,freq_bottom,,,,,0,51,51,433,,,0.8755286203765513,,,,,,,,,,1052.1507862436338,None,1052.1507862436338,None,f,0,1054.2238279995436,None,2.0538909840543056,015,001,2,28,f,2021_Nov_10_1439,eye_tracking_exp,2021.2.3,84.98995656917724,
180,12,0,0,0,270,0,168,180,180,None,present,inhibit,freq_bottom,,,,,0,52,52,975,,,0.7536665912529511,,,,,,,,,,1055.5419838042508,None,1055.5419838042508,None,None,1,None,None,,015,001,2,28,f,2021_Nov_10_1439,eye_tracking_exp,2021.2.3,84.98995656917724,
180,180,0,180,-168,270,0,-168,0,180,f,present,resp,freq_bottom,,,,,0,53,53,831,,,0.9295236090121741,,,,,,,,,,1059.5527324743234,None,1059.5527324743234,None,None,0,1062.5293703410352,None,,015,001,2,28,f,2021_Nov_10_1439,eye_tracking_exp,2021.2.3,84.98995656917724,
0,180,180,-12,180,180,12,0,180,0,j,abs,resp,freq_bottom,,,,,0,54,54,180,,,0.9084026212508187,,,,,,,,,,1064.2940852432002,None,1064.2940852432002,None,None,0,1067.2613565841857,None,,015,001,2,28,f,2021_Nov_10_1439,eye_tracking_exp,2021.2.3,84.98995656917724,
0,0,0,180,12,0,0,0,0,12,j,abs,resp,freq_bottom,,,,,0,55,55,45,,,0.9376464926024852,,,,,,,,,,1071.1555900932326,None,1071.1555900932326,None,j,1,None,None,2.4390522654211964,015,001,2,28,f,2021_Nov_10_1439,eye_tracking_exp,2021.2.3,84.98995656917724,
0,0,180,0,-168,180,180,-168,180,90,f,present,resp,freq_bottom,,,,,0,56,56,838,,,0.890344163875471,,,,,,,,,,1074.7561998787787,None,1074.7561998787787,None,None,0,1077.734301085915,None,,015,001,2,28,f,2021_Nov_10_1439,eye_tracking_exp,2021.2.3,84.98995656917724,
0,0,0,180,180,12,0,12,0,0,j,abs,resp,freq_bottom,,,,,0,57,57,55,,,0.9339905937259662,,,,,,,,,,1079.252019337342,None,1079.252019337342,None,j,1,None,None,1.4146895187841437,015,001,2,28,f,2021_Nov_10_1439,eye_tracking_exp,2021.2.3,84.98995656917724,
0,168,180,0,180,168,0,0,180,180,f,abs,resp,freq_bottom,,,,,0,58,58,277,,,0.7416961335331752,,,,,,,,,,1081.569834963695,None,1081.569834963695,None,f,1,None,None,1.576900865227799,015,001,2,28,f,2021_Nov_10_1439,eye_tracking_exp,2021.2.3,84.98995656917724,
0,180,0,0,168,180,168,180,0,180,f,abs,resp,freq_bottom,,,,,0,59,59,258,,,0.735422440445749,,,,,,,,,,1084.3713042202617,None,1084.3713042202617,None,f,1,None,None,1.3185011463028786,015,001,2,28,f,2021_Nov_10_1439,eye_tracking_exp,2021.2.3,84.98995656917724,
168,180,0,180,180,180,-168,180,270,180,f,present,resp,freq_bottom,,,,,0,60,60,873,,,0.7130377688034955,,,,,,,,,,1088.6174541981673,None,1088.6174541981673,None,None,0,1091.5950748694231,None,,015,001,2,28,f,2021_Nov_10_1439,eye_tracking_exp,2021.2.3,84.98995656917724,
0,180,0,-168,180,90,180,0,168,180,f,present,resp,freq_bottom,,,,,0,61,61,857,,,1.0877784696401467,,,,,,,,,,1093.8068291030868,None,1093.8068291030868,None,f,1,None,None,2.1708637408119102,015,001,2,28,f,2021_Nov_10_1439,eye_tracking_exp,2021.2.3,84.98995656917724,
-168,180,180,0,-168,180,90,0,180,180,f,present,resp,freq_bottom,,,,,0,62,62,828,,,0.9358221982018899,,,,,,,,,,1097.1729105140766,None,1097.1729105140766,None,f,1,None,None,1.5092591011016339,015,001,2,28,f,2021_Nov_10_1439,eye_tracking_exp,2021.2.3,84.98995656917724,
0,180,180,0,12,180,270,0,12,180,j,present,resp,freq_bottom,,,,,0,63,63,550,,,0.7667288422130157,,,,,,,,,,1100.0080716143348,None,1100.0080716143348,None,j,1,None,None,2.7047514813530142,015,001,2,28,f,2021_Nov_10_1439,eye_tracking_exp,2021.2.3,84.98995656917724,
0,0,168,180,180,-168,0,90,0,0,f,present,resp,freq_bottom,,,,,0,64,64,888,,,1.056758405324542,,,,,,,,,,1104.3501177795843,None,1104.3501177795843,None,f,1,None,None,1.8665834097009792,015,001,2,28,f,2021_Nov_10_1439,eye_tracking_exp,2021.2.3,84.98995656917724,
180,-168,180,168,180,180,0,180,0,180,f,abs,resp,freq_bottom,,,,,0,65,65,371,,,0.7160173169567027,,,,,,,,,,1107.221249948685,None,1107.221249948685,None,f,1,None,None,1.2514534114598064,015,001,2,28,f,2021_Nov_10_1439,eye_tracking_exp,2021.2.3,84.98995656917724,
180,-12,180,-12,180,180,180,0,180,0,j,abs,resp,freq_bottom,,,,,0,66,66,91,,,0.9453409316389513,,,,,,,,,,1109.480417860963,None,1109.480417860963,None,j,1,None,None,0.9456548042908253,015,001,2,28,f,2021_Nov_10_1439,eye_tracking_exp,2021.2.3,84.98995656917724,
12,0,12,0,0,0,0,0,270,0,j,present,resp,freq_bottom,,,,,0,67,67,518,,,1.0138945625062208,,,,,,,,,,1113.892712214547,None,1113.892712214547,None,j,1,None,None,1.0600473972808686,015,001,2,28,f,2021_Nov_10_1439,eye_tracking_exp,2021.2.3,84.98995656917724,
-168,180,180,0,180,180,12,0,270,180,None,present,inhibit,freq_bottom,,,,,0,68,68,943,,,0.9837167356665394,,,,,,,,,,1116.258447108452,None,1116.258447108452,None,None,1,None,None,,015,001,2,28,f,2021_Nov_10_1439,eye_tracking_exp,2021.2.3,84.98995656917724,
180,168,180,0,180,180,180,180,168,180,f,abs,resp,freq_bottom,,,,,0,69,69,211,,,0.8429977015467081,,,,,,,,,,1120.5768160151238,None,1120.5768160151238,None,f,1,None,None,1.271111615224072,015,001,2,28,f,2021_Nov_10_1439,eye_tracking_exp,2021.2.3,84.98995656917724,
0,180,180,180,90,12,180,180,12,0,j,present,resp,freq_bottom,,,,,0,70,70,568,,,0.9630785242935969,,,,,,,,,,1123.7772710149911,None,1123.7772710149911,None,j,1,None,None,2.0064788146664796,015,001,2,28,f,2021_Nov_10_1439,eye_tracking_exp,2021.2.3,84.98995656917724,
180,180,0,270,0,168,180,180,12,180,None,present,inhibit,freq_bottom,,,,,0,71,71,988,,,1.0109299525031616,,,,,,,,,,1126.8977246384493,None,1126.8977246384493,None,f,0,1128.7085335566153,None,1.7980554311616288,015,001,2,28,f,2021_Nov_10_1439,eye_tracking_exp,2021.2.3,84.98995656917724,
0,180,180,0,180,12,0,12,180,180,j,abs,resp,freq_bottom,,,,,0,72,72,63,,,0.8478912332995938,,,,,,,,,,1130.296740566162,None,1130.296740566162,None,j,1,None,None,2.335043714778294,015,001,2,28,f,2021_Nov_10_1439,eye_tracking_exp,2021.2.3,84.98995656917724,
0,0,0,168,0,0,0,168,0,90,f,present,resp,freq_bottom,,,,,0,73,73,753,,,0.9429261223061213,,,,,,,,,,1133.8268471050724,None,1133.8268471050724,None,f,1,None,None,2.067992237072758,015,001,2,28,f,2021_Nov_10_1439,eye_tracking_exp,2021.2.3,84.98995656917724,
180,180,-168,0,168,180,180,0,180,180,f,abs,resp,freq_bottom,,,,,0,74,74,392,,,0.8301124614541457,,,,,,,,,,1137.0283217344695,None,1137.0283217344695,None,j,0,1139.064843668879,None,2.0185894055321114,015,001,2,28,f,2021_Nov_10_1439,eye_tracking_exp,2021.2.3,84.98995656917724,
-12,180,180,0,180,180,-12,180,270,180,j,present,resp,freq_bottom,,,,,0,75,75,593,,,0.7910605578996097,,,,,,,,,,1140.7475620048244,None,1140.7475620048244,None,None,0,1143.7127657134006,None,,015,001,2,28,f,2021_Nov_10_1439,eye_tracking_exp,2021.2.3,84.98995656917724,
168,180,180,0,168,180,180,0,180,90,f,present,resp,freq_bottom,,,,,0,76,76,758,,,1.0109624945068292,,,,,,,,,,1145.5833853511394,None,1145.5833853511394,None,j,0,1147.2672998954404,None,1.6554114333921461,015,001,2,28,f,2021_Nov_10_1439,eye_tracking_exp,2021.2.3,84.98995656917724,
180,12,0,168,0,0,90,180,180,180,None,present,inhibit,freq_bottom,,,,,0,77,77,959,,,1.0198754417241624,,,,,,,,,,1148.8319461582469,None,1148.8319461582469,None,None,1,None,None,,015,001,2,28,f,2021_Nov_10_1439,eye_tracking_exp,2021.2.3,84.98995656917724,
180,0,0,180,180,168,0,168,180,90,f,present,resp,freq_bottom,,,,,0,78,78,777,,,0.7842404549681812,,,,,,,,,,1152.8099800541386,None,1152.8099800541386,None,f,1,None,None,1.9799322256258165,015,001,2,28,f,2021_Nov_10_1439,eye_tracking_exp,2021.2.3,84.98995656917724,
180,180,180,180,180,-12,0,0,180,12,j,abs,resp,freq_bottom,,,,,0,79,79,205,,,0.9678346260572366,,,,,,,,,,1155.8931752434655,None,1155.8931752434655,None,j,1,None,None,1.8567574771841464,015,001,2,28,f,2021_Nov_10_1439,eye_tracking_exp,2021.2.3,84.98995656917724,
90,0,168,180,180,180,0,180,180,-168,f,present,resp,freq_bottom,,,,,0,80,80,884,,,0.7414975339239125,,,,,,,,,,1159.2592297903248,None,1159.2592297903248,None,j,0,1161.5198317641443,None,2.2499595847766614,015,001,2,28,f,2021_Nov_10_1439,eye_tracking_exp,2021.2.3,84.98995656917724,
0,0,0,180,180,180,168,180,180,168,f,abs,resp,freq_bottom,,,,,0,81,81,267,,,0.8172996693435848,,,,,,,,,,1164.0367293013405,None,1164.0367293013405,None,f,1,None,None,2.032215254017501,015,001,2,28,f,2021_Nov_10_1439,eye_tracking_exp,2021.2.3,84.98995656917724,
180,0,-12,0,0,270,0,180,-12,0,j,present,resp,freq_bottom,,,,,0,82,82,605,,,0.8140028455523514,,,,,,,,,,1166.9321016683534,None,1166.9321016683534,None,j,1,None,None,1.6019361206235772,015,001,2,28,f,2021_Nov_10_1439,eye_tracking_exp,2021.2.3,84.98995656917724,
180,0,0,-12,180,180,180,0,12,0,j,abs,resp,freq_bottom,,,,,0,83,83,178,,,0.7335927949560347,,,,,,,,,,1172.203527773283,None,1172.203527773283,None,None,0,1175.1923861021278,None,,015,001,2,28,f,2021_Nov_10_1439,eye_tracking_exp,2021.2.3,84.98995656917724,
0,168,0,0,0,270,0,168,0,0,f,present,resp,freq_bottom,,,,,0,84,84,765,,,0.8313112709413137,,,,,,,,,,1176.8867269469556,None,1176.8867269469556,None,f,1,None,None,2.398247766253917,015,001,2,28,f,2021_Nov_10_1439,eye_tracking_exp,2021.2.3,84.98995656917724,
12,0,0,180,180,12,180,180,90,0,j,present,resp,freq_bottom,,,,,0,85,85,570,,,0.8498940121200105,,,,,,,,,,1181.311348313655,None,1181.311348313655,None,j,1,None,None,1.3166976275242632,015,001,2,28,f,2021_Nov_10_1439,eye_tracking_exp,2021.2.3,84.98995656917724,
0,0,180,0,-168,180,270,0,12,180,None,present,inhibit,freq_bottom,,,,,0,86,86,970,,,0.7448010342794159,,,,,,,,,,1183.6532311812225,None,1183.6532311812225,None,None,1,None,None,,015,001,2,28,f,2021_Nov_10_1439,eye_tracking_exp,2021.2.3,84.98995656917724,
180,0,180,12,180,180,12,0,180,0,j,abs,resp,freq_bottom,,,,,0,87,87,40,,,0.8390928513802954,,,,,,,,,,1187.8433920883035,None,1187.8433920883035,None,j,1,None,None,1.392555287486175,015,001,2,28,f,2021_Nov_10_1439,eye_tracking_exp,2021.2.3,84.98995656917724,
0,-12,180,0,180,180,0,12,180,180,j,abs,resp,freq_bottom,,,,,0,88,88,165,,,1.067826849421135,,,,,,,,,,1191.2440524629274,None,1191.2440524629274,None,j,1,None,None,1.7359558274220035,015,001,2,28,f,2021_Nov_10_1439,eye_tracking_exp,2021.2.3,84.98995656917724,
180,180,168,180,180,168,0,270,180,180,f,present,resp,freq_bottom,,,,,0,89,89,748,,,1.0903894663021434,,,,,,,,,,1194.644704989605,None,1194.644704989605,None,f,1,None,None,1.327304129004915,015,001,2,28,f,2021_Nov_10_1439,eye_tracking_exp,2021.2.3,84.98995656917724,
0,180,0,0,12,0,270,0,-12,180,j,present,resp,freq_bottom,,,,,0,90,90,690,,,0.8125477507164081,,,,,,,,,,1197.54160106587,None,1197.54160106587,None,j,1,None,None,1.7573577848197601,015,001,2,28,f,2021_Nov_10_1439,eye_tracking_exp,2021.2.3,84.98995656917724,
0,180,0,-12,0,180,90,0,-12,180,j,present,resp,freq_bottom,,,,,0,91,91,612,,,1.0949445509465952,,,,,,,,,,1200.8225569942115,None,1200.8225569942115,None,f,0,1203.5068600119266,None,2.6684873218437133,015,001,2,28,f,2021_Nov_10_1439,eye_tracking_exp,2021.2.3,84.98995656917724,
180,168,0,180,180,180,168,0,180,0,f,abs,resp,freq_bottom,,,,,0,92,92,269,,,0.7641695381109918,,,,,,,,,,1205.3074841048874,None,1205.3074841048874,None,f,1,None,None,1.4314965027333528,015,001,2,28,f,2021_Nov_10_1439,eye_tracking_exp,2021.2.3,84.98995656917724,
270,0,180,180,180,-12,180,180,12,0,j,present,resp,freq_bottom,,,,,0,93,93,708,,,0.8200658507078844,,,,,,,,,,1210.3192822870587,None,1210.3192822870587,None,j,1,None,None,1.7627469102226314,015,001,2,28,f,2021_Nov_10_1439,eye_tracking_exp,2021.2.3,84.98995656917724,
0,-168,0,0,0,0,-168,0,0,0,f,abs,resp,freq_bottom,,,,,0,94,94,306,,,0.7182678339940363,,,,,,,,,,1213.0848903460574,None,1213.0848903460574,None,f,1,None,None,1.3331230804724328,015,001,2,28,f,2021_Nov_10_1439,eye_tracking_exp,2021.2.3,84.98995656917724,
180,180,180,180,90,168,180,180,168,0,f,present,resp,freq_bottom,,,,,0,95,95,778,,,0.7823655259746051,,,,,,,,,,1215.968070624287,None,1215.968070624287,None,f,1,None,None,1.8419541346811457,015,001,2,28,f,2021_Nov_10_1439,eye_tracking_exp,2021.2.3,84.98995656917724,
180,168,180,180,180,180,270,180,180,168,f,present,resp,freq_bottom,,,,,0,96,96,737,,,1.0076045365693185,,,,,,,,,,1219.1226827424834,None,1219.1226827424834,None,f,1,None,None,1.4393405265800538,015,001,2,28,f,2021_Nov_10_1439,eye_tracking_exp,2021.2.3,84.98995656917724,
0,0,180,180,180,90,0,12,0,12,j,present,resp,freq_bottom,,,,,0,97,97,553,,,0.7552354384803197,,,,,,,,,,1222.2882324851926,None,1222.2882324851926,None,j,1,None,None,1.570893864856771,015,001,2,28,f,2021_Nov_10_1439,eye_tracking_exp,2021.2.3,84.98995656917724,
180,0,0,180,180,168,0,270,180,168,f,present,resp,freq_bottom,,,,,0,98,98,779,,,0.9554384848506331,,,,,,,,,,1225.0880268085893,None,1225.0880268085893,None,f,1,None,None,2.385075891364977,015,001,2,28,f,2021_Nov_10_1439,eye_tracking_exp,2021.2.3,84.98995656917724,
270,0,0,0,0,-12,0,0,12,0,j,present,resp,freq_bottom,,,,,0,99,99,650,,,0.9449940165895173,,,,,,,,,,1228.6769096471799,None,1228.6769096471799,None,j,1,None,None,1.340961369282013,015,001,2,28,f,2021_Nov_10_1439,eye_tracking_exp,2021.2.3,84.98995656917724,
0,-168,180,180,0,270,0,-168,0,0,f,present,resp,freq_bottom,,,,,0,100,100,835,,,1.0232105460924912,,,,,,,,,,1231.3009917391282,None,1231.3009917391282,None,j,0,1233.0076336384773,None,1.6760720615675382,015,001,2,28,f,2021_Nov_10_1439,eye_tracking_exp,2021.2.3,84.98995656917724,
180,0,168,180,180,168,0,180,180,180,f,abs,resp,freq_bottom,,,,,0,101,101,244,,,0.9219805522021061,,,,,,,,,,1234.47788387935,None,1234.47788387935,None,f,1,None,None,1.603180925885681,015,001,2,28,f,2021_Nov_10_1439,eye_tracking_exp,2021.2.3,84.98995656917724,
180,168,0,180,168,90,0,180,0,0,f,present,resp,freq_bottom,,,,,0,102,102,757,,,0.867488172943093,,,,,,,,,,1239.6433859306817,None,1239.6433859306817,None,j,0,1241.6208224770053,None,1.9567883256531786,015,001,2,28,f,2021_Nov_10_1439,eye_tracking_exp,2021.2.3,84.98995656917724,
180,168,180,180,180,180,180,270,180,-168,f,present,resp,freq_bottom,,,,,0,103,103,861,,,0.8175264445650139,,,,,,,,,,1242.9737736675997,None,1242.9737736675997,None,None,0,1245.9520469258969,None,,015,001,2,28,f,2021_Nov_10_1439,eye_tracking_exp,2021.2.3,84.98995656917724,
180,168,180,0,180,270,180,12,180,0,None,present,inhibit,freq_bottom,,,,,0,104,104,949,,,1.0433602126342714,,,,,,,,,,1247.5285780001504,None,1247.5285780001504,None,None,1,None,None,,015,001,2,28,f,2021_Nov_10_1439,eye_tracking_exp,2021.2.3,84.98995656917724,
0,0,0,0,12,0,180,180,180,168,None,abs,inhibit,freq_bottom,,,,,0,105,105,430,,,0.8349249913943335,,,,,,,,,,1252.3187000297003,None,1252.3187000297003,None,j,0,1255.1667664764645,None,2.8174603876832407,015,001,2,28,f,2021_Nov_10_1439,eye_tracking_exp,2021.2.3,84.98995656917724,
180,180,12,0,0,0,-12,0,180,0,j,abs,resp,freq_bottom,,,,,0,106,106,173,,,1.0198911931369306,,,,,,,,,,1259.9442828907486,None,1259.9442828907486,None,j,1,None,None,1.766862555166881,015,001,2,28,f,2021_Nov_10_1439,eye_tracking_exp,2021.2.3,84.98995656917724,
180,12,180,0,180,180,180,180,-168,180,None,abs,inhibit,freq_bottom,,,,,0,107,107,421,,,0.9835635678572079,,,,,,,,,,1263.027007505054,None,1263.027007505054,None,None,1,None,None,,015,001,2,28,f,2021_Nov_10_1439,eye_tracking_exp,2021.2.3,84.98995656917724,
0,180,180,-12,180,180,180,0,-12,180,j,abs,resp,freq_bottom,,,,,0,108,108,108,,,0.8303001312911209,,,,,,,,,,1267.299635251533,None,1267.299635251533,None,j,1,None,None,1.644676346306369,015,001,2,28,f,2021_Nov_10_1439,eye_tracking_exp,2021.2.3,84.98995656917724,
0,0,0,0,168,0,0,0,0,-168,f,abs,resp,freq_bottom,,,,,0,109,109,360,,,0.8944248150170385,,,,,,,,,,1272.0046245541744,None,1272.0046245541744,None,f,1,None,None,2.746387862986012,015,001,2,28,f,2021_Nov_10_1439,eye_tracking_exp,2021.2.3,84.98995656917724,
-168,0,180,180,180,0,0,-168,180,180,f,abs,resp,freq_bottom,,,,,0,110,110,330,,,0.8862345562071785,,,,,,,,,,1275.9358765312536,None,1275.9358765312536,None,f,1,None,None,1.1023001446628768,015,001,2,28,f,2021_Nov_10_1439,eye_tracking_exp,2021.2.3,84.98995656917724,
180,180,-168,0,0,-168,180,180,180,180,f,abs,resp,freq_bottom,,,,,0,111,111,348,,,0.8805083416917602,,,,,,,,,,1278.2191732609535,None,1278.2191732609535,None,f,1,None,None,0.835247761424398,015,001,2,28,f,2021_Nov_10_1439,eye_tracking_exp,2021.2.3,84.98995656917724,
0,180,0,180,180,180,-12,180,-12,180,j,abs,resp,freq_bottom,,,,,0,112,112,75,,,0.7660635145589249,,,,,,,,,,1280.0779687579234,None,1280.0779687579234,None,j,1,None,None,1.4561982203485968,015,001,2,28,f,2021_Nov_10_1439,eye_tracking_exp,2021.2.3,84.98995656917724,
0,0,0,0,-168,0,0,0,0,-168,f,abs,resp,freq_bottom,,,,,0,113,113,290,,,1.0790957715413787,,,,,,,,,,1282.7158750099588,None,1282.7158750099588,None,j,0,1284.1028256234276,None,1.3623252943179978,015,001,2,28,f,2021_Nov_10_1439,eye_tracking_exp,2021.2.3,84.98995656917724,
0,180,-12,0,0,0,0,180,-12,180,j,abs,resp,freq_bottom,,,,,0,114,114,101,,,0.9236009270385649,,,,,,,,,,1285.8204314077266,None,1285.8204314077266,None,f,0,1286.939196213185,None,1.105815119757608,015,001,2,28,f,2021_Nov_10_1439,eye_tracking_exp,2021.2.3,84.98995656917724,
-12,180,180,180,180,0,0,-12,0,0,j,abs,resp,freq_bottom,,,,,0,115,115,88,,,0.9975870645764193,,,,,,,,,,1288.4685408974656,None,1288.4685408974656,None,j,1,None,None,1.544737862142938,015,001,2,28,f,2021_Nov_10_1439,eye_tracking_exp,2021.2.3,84.98995656917724,
-12,180,180,0,0,0,-12,0,270,0,j,present,resp,freq_bottom,,,,,0,116,116,632,,,0.7464943601707437,,,,,,,,,,1291.3158720518877,None,1291.3158720518877,None,j,1,None,None,2.1052953441358113,015,001,2,28,f,2021_Nov_10_1439,eye_tracking_exp,2021.2.3,84.98995656917724,
180,-168,180,0,180,90,180,180,168,0,f,present,resp,freq_bottom,,,,,0,117,117,855,,,0.9239298885377196,,,,,,,,,,1294.6245255009999,None,1294.6245255009999,None,f,1,None,None,2.1567561490701337,015,001,2,28,f,2021_Nov_10_1439,eye_tracking_exp,2021.2.3,84.98995656917724,
-12,0,0,0,-12,0,90,0,0,0,j,present,resp,freq_bottom,,,,,0,118,118,590,,,0.8216329585146638,,,,,,,,,,1297.8949497852082,None,1297.8949497852082,None,j,1,None,None,1.0628195339231752,015,001,2,28,f,2021_Nov_10_1439,eye_tracking_exp,2021.2.3,84.98995656917724,
0,-12,0,180,180,180,-12,180,0,180,j,abs,resp,freq_bottom,,,,,0,119,119,129,,,0.8455478372535271,,,,,,,,,,1300.130288007611,None,1300.130288007611,None,j,1,None,None,1.5469838844401238,015,001,2,28,f,2021_Nov_10_1439,eye_tracking_exp,2021.2.3,84.98995656917724,
0,180,12,0,0,168,180,0,180,0,None,abs,inhibit,freq_bottom,,,,,0,120,120,488,,,1.0719518811835531,,,,,,,,,,1303.060547219291,None,1303.060547219291,None,None,1,None,None,,015,001,2,28,f,2021_Nov_10_1439,eye_tracking_exp,2021.2.3,84.98995656917724,
0,0,0,-12,0,12,0,180,0,90,j,present,resp,freq_bottom,,,,,0,121,121,685,,,0.7454628056694135,,,,,,,,,,1307.733308924202,None,1307.733308924202,None,j,1,None,None,2.198985956296383,015,001,2,28,f,2021_Nov_10_1439,eye_tracking_exp,2021.2.3,84.98995656917724,
180,12,0,-12,0,0,0,180,180,270,j,present,resp,freq_bottom,,,,,0,122,122,679,,,1.0432967443206687,,,,,,,,,,1311.4636187249598,None,1311.4636187249598,None,j,1,None,None,1.2526665230907383,015,001,2,28,f,2021_Nov_10_1439,eye_tracking_exp,2021.2.3,84.98995656917724,
12,180,180,168,180,270,180,0,0,0,None,present,inhibit,freq_bottom,,,,,0,123,123,960,,,0.7891840833264446,,,,,,,,,,1314.004794794273,None,1314.004794794273,None,None,1,None,None,,015,001,2,28,f,2021_Nov_10_1439,eye_tracking_exp,2021.2.3,84.98995656917724,
0,180,180,-12,180,180,-12,0,180,180,j,abs,resp,freq_bottom,,,,,0,124,124,110,,,0.78768130538741,,,,,,,,,,1318.3119915435345,None,1318.3119915435345,None,j,1,None,None,0.979396452265064,015,001,2,28,f,2021_Nov_10_1439,eye_tracking_exp,2021.2.3,84.98995656917724,
180,12,0,0,180,180,12,180,180,270,j,present,resp,freq_bottom,,,,,0,125,125,563,,,0.7991948911582318,,,,,,,,,,1321.289317916744,None,1321.289317916744,None,j,1,None,None,2.00285487383735,015,001,2,28,f,2021_Nov_10_1439,eye_tracking_exp,2021.2.3,84.98995656917724,
12,0,180,0,0,0,-168,0,0,0,None,abs,inhibit,freq_bottom,,,,,0,126,126,478,,,1.0633397241344704,,,,,,,,,,1324.7145085615084,None,1324.7145085615084,None,None,1,None,None,,015,001,2,28,f,2021_Nov_10_1439,eye_tracking_exp,2021.2.3,84.98995656917724,
180,180,180,180,12,0,0,0,0,12,j,abs,resp,freq_bottom,,,,,0,127,127,10,,,0.8990818706275061,,,,,,,,,,1329.1148664882967,None,1329.1148664882967,None,j,1,None,None,1.7447234943610965,015,001,2,28,f,2021_Nov_10_1439,eye_tracking_exp,2021.2.3,84.98995656917724,
0,180,0,180,90,168,0,12,180,180,None,present,inhibit,freq_bottom,,,,,0,128,128,987,,,0.804105590510033,,,,,,,,,,1332.5987172227433,None,1332.5987172227433,None,j,0,1334.2349738965167,None,1.6206767181793111,015,001,2,28,f,2021_Nov_10_1439,eye_tracking_exp,2021.2.3,84.98995656917724,
-168,0,0,0,0,0,270,0,168,0,f,present,resp,freq_bottom,,,,,0,129,129,854,,,0.7017569044557692,,,,,,,,,,1335.5058883756174,None,1335.5058883756174,None,f,1,None,None,2.20047495347535,015,001,2,28,f,2021_Nov_10_1439,eye_tracking_exp,2021.2.3,84.98995656917724,
0,180,-168,0,0,0,0,180,12,0,None,abs,inhibit,freq_bottom,,,,,0,130,130,451,,,0.7805976514163072,,,,,,,,,,1338.7418994086256,None,1338.7418994086256,None,None,1,None,None,,015,001,2,28,f,2021_Nov_10_1439,eye_tracking_exp,2021.2.3,84.98995656917724,
0,-12,0,180,12,0,0,90,0,0,j,present,resp,freq_bottom,,,,,0,131,131,687,,,0.9833199118908114,,,,,,,,,,1343.6609828407636,None,1343.6609828407636,None,j,1,None,None,1.118542378215352,015,001,2,28,f,2021_Nov_10_1439,eye_tracking_exp,2021.2.3,84.98995656917724,
180,-168,0,0,180,180,168,180,90,180,f,present,resp,freq_bottom,,,,,0,132,132,913,,,0.7057132392989829,,,,,,,,,,1345.7672700128714,None,1345.7672700128714,None,f,1,None,None,1.6830576406609907,015,001,2,28,f,2021_Nov_10_1439,eye_tracking_exp,2021.2.3,84.98995656917724,
180,-168,0,180,180,180,168,180,0,180,f,abs,resp,freq_bottom,,,,,0,133,133,409,,,0.9687826040833873,,,,,,,,,,1348.6977347804132,None,1348.6977347804132,None,f,1,None,None,1.5526389345322968,015,001,2,28,f,2021_Nov_10_1439,eye_tracking_exp,2021.2.3,84.98995656917724,
0,-12,0,180,-12,0,0,180,0,0,j,abs,resp,freq_bottom,,,,,0,134,134,113,,,0.7144366906790522,,,,,,,,,,1351.2397502782987,None,1351.2397502782987,None,f,0,1352.333947384941,None,1.073614989843918,015,001,2,28,f,2021_Nov_10_1439,eye_tracking_exp,2021.2.3,84.98995656917724,
0,0,0,180,12,0,0,-12,0,0,j,abs,resp,freq_bottom,,,,,0,135,135,187,,,1.0256014064748638,,,,,,,,,,1354.5927935313593,None,1354.5927935313593,None,j,1,None,None,1.3205573086343065,015,001,2,28,f,2021_Nov_10_1439,eye_tracking_exp,2021.2.3,84.98995656917724,
180,180,180,0,12,0,12,0,0,0,j,abs,resp,freq_bottom,,,,,0,136,136,62,,,1.0921122165714525,,,,,,,,,,1357.287575672326,None,1357.287575672326,None,j,1,None,None,1.1699621323423344,015,001,2,28,f,2021_Nov_10_1439,eye_tracking_exp,2021.2.3,84.98995656917724,
0,0,-12,0,0,0,0,0,-12,0,j,abs,resp,freq_bottom,,,,,0,137,137,72,,,0.8202723155815776,,,,,,,,,,1359.546495770559,None,1359.546495770559,None,j,1,None,None,1.8869506453629583,015,001,2,28,f,2021_Nov_10_1439,eye_tracking_exp,2021.2.3,84.98995656917724,
180,180,180,0,12,0,180,168,0,180,None,abs,inhibit,freq_bottom,,,,,0,138,138,474,,,1.0392765556234762,,,,,,,,,,1362.8422677188537,None,1362.8422677188537,None,None,1,None,None,,015,001,2,28,f,2021_Nov_10_1439,eye_tracking_exp,2021.2.3,84.98995656917724,
180,0,180,0,180,90,180,-168,0,-168,f,present,resp,freq_bottom,,,,,0,139,139,795,,,1.0624923097117887,,,,,,,,,,1367.2549816358005,None,1367.2549816358005,None,f,1,None,None,2.049469269149995,015,001,2,28,f,2021_Nov_10_1439,eye_tracking_exp,2021.2.3,84.98995656917724,
-168,0,0,0,0,-168,0,0,0,0,f,abs,resp,freq_bottom,,,,,0,140,140,300,,,1.0720961262206687,,,,,,,,,,1370.5972019651272,None,1370.5972019651272,None,f,1,None,None,0.9632722397764155,015,001,2,28,f,2021_Nov_10_1439,eye_tracking_exp,2021.2.3,84.98995656917724,
0,180,180,0,0,0,-168,0,-168,180,f,abs,resp,freq_bottom,,,,,0,141,141,336,,,0.7877025747027904,,,,,,,,,,1372.6446630332684,None,1372.6446630332684,None,f,1,None,None,1.011836246430903,015,001,2,28,f,2021_Nov_10_1439,eye_tracking_exp,2021.2.3,84.98995656917724,
0,-12,0,180,0,90,180,0,12,180,j,present,resp,freq_bottom,,,,,0,142,142,645,,,0.941851062844521,,,,,,,,,,1374.833530538177,None,1374.833530538177,None,j,1,None,None,1.4309121324658918,015,001,2,28,f,2021_Nov_10_1439,eye_tracking_exp,2021.2.3,84.98995656917724,
180,0,180,0,180,168,180,0,180,168,f,abs,resp,freq_bottom,,,,,0,143,143,223,,,1.0652481042057895,,,,,,,,,,1377.8107615286353,None,1377.8107615286353,None,f,1,None,None,2.517681156492472,015,001,2,28,f,2021_Nov_10_1439,eye_tracking_exp,2021.2.3,84.98995656917724,
0,0,0,0,-12,0,270,0,12,0,j,present,resp,freq_bottom,,,,,0,144,144,648,,,0.9536907047101003,,,,,,,,,,1381.5294557629277,None,1381.5294557629277,None,j,1,None,None,1.566035079624271,015,001,2,28,f,2021_Nov_10_1439,eye_tracking_exp,2021.2.3,84.98995656917724,
180,0,0,168,0,168,0,90,180,180,f,present,resp,freq_bottom,,,,,0,145,145,755,,,0.9401189613414965,,,,,,,,,,1385.0005421120877,None,1385.0005421120877,None,j,0,1386.333903617542,None,1.310924858215003,015,001,2,28,f,2021_Nov_10_1439,eye_tracking_exp,2021.2.3,84.98995656917724,
0,180,180,-168,180,180,168,0,90,180,f,present,resp,freq_bottom,,,,,0,146,146,915,,,1.06833994527902,,,,,,,,,,1390.3429221169645,None,1390.3429221169645,None,f,1,None,None,1.3445560312284215,015,001,2,28,f,2021_Nov_10_1439,eye_tracking_exp,2021.2.3,84.98995656917724,
180,180,-168,0,168,90,180,0,180,0,f,present,resp,freq_bottom,,,,,0,147,147,896,,,0.8820085601354943,,,,,,,,,,1392.861051178279,None,1392.861051178279,None,f,1,None,None,1.3863931392224913,015,001,2,28,f,2021_Nov_10_1439,eye_tracking_exp,2021.2.3,84.98995656917724,
180,-168,0,0,0,0,168,0,180,180,f,abs,resp,freq_bottom,,,,,0,148,148,376,,,0.7347967301623551,,,,,,,,,,1395.273868929613,None,1395.273868929613,None,f,1,None,None,1.5656140070350375,015,001,2,28,f,2021_Nov_10_1439,eye_tracking_exp,2021.2.3,84.98995656917724,
0,0,12,180,180,180,0,-12,0,0,j,abs,resp,freq_bottom,,,,,0,149,149,172,,,0.9726055454236722,,,,,,,,,,1398.121498306049,None,1398.121498306049,None,j,1,None,None,1.357093127877306,015,001,2,28,f,2021_Nov_10_1439,eye_tracking_exp,2021.2.3,84.98995656917724,
0,0,12,0,180,270,180,0,0,12,j,present,resp,freq_bottom,,,,,0,150,150,534,,,0.8009865276170076,,,,,,,,,,1400.8167691326926,None,1400.8167691326926,None,j,1,None,None,1.829755707167351,015,001,2,28,f,2021_Nov_10_1439,eye_tracking_exp,2021.2.3,84.98995656917724,
12,0,12,0,0,0,0,0,0,180,j,abs,resp,freq_bottom,,,,,0,151,151,29,,,0.8621129543595359,,,,,,,,,,1404.03016268192,None,1404.03016268192,None,j,1,None,None,1.0003589245861804,015,001,2,28,f,2021_Nov_10_1439,eye_tracking_exp,2021.2.3,84.98995656917724,
-12,180,0,-12,180,180,180,0,180,180,j,abs,resp,freq_bottom,,,,,0,152,152,85,,,0.7240734767882495,,,,,,,,,,1406.30142065966,None,1406.30142065966,None,j,1,None,None,0.7291495437530102,015,001,2,28,f,2021_Nov_10_1439,eye_tracking_exp,2021.2.3,84.98995656917724,
168,0,0,0,0,-168,0,90,180,180,f,present,resp,freq_bottom,,,,,0,153,153,874,,,0.969794671318474,,,,,,,,,,1409.0310271635572,None,1409.0310271635572,None,f,1,None,None,2.2726163082988933,015,001,2,28,f,2021_Nov_10_1439,eye_tracking_exp,2021.2.3,84.98995656917724,
0,0,0,168,0,0,0,168,0,0,f,abs,resp,freq_bottom,,,,,0,154,154,249,,,1.0875068422863334,,,,,,,,,,1412.9144625000881,None,1412.9144625000881,None,j,0,1414.1498951997128,None,1.2191240922547877,015,001,2,28,f,2021_Nov_10_1439,eye_tracking_exp,2021.2.3,84.98995656917724,
0,-168,0,-168,0,0,270,180,180,0,f,present,resp,freq_bottom,,,,,0,155,155,819,,,0.948670411629526,,,,,,,,,,1418.0560950181207,None,1418.0560950181207,None,f,1,None,None,1.1974824706012441,015,001,2,28,f,2021_Nov_10_1439,eye_tracking_exp,2021.2.3,84.98995656917724,
180,180,180,168,180,180,270,0,168,180,f,present,resp,freq_bottom,,,,,0,156,156,752,,,0.8206889697059156,,,,,,,,,,1420.3761065606413,None,1420.3761065606413,None,f,1,None,None,1.0054510353475052,015,001,2,28,f,2021_Nov_10_1439,eye_tracking_exp,2021.2.3,84.98995656917724,
180,180,180,168,0,90,0,-168,0,0,f,present,resp,freq_bottom,,,,,0,157,157,907,,,1.0165731013407413,,,,,,,,,,1422.6812266221714,None,1422.6812266221714,None,f,1,None,None,1.6936928173381602,015,001,2,28,f,2021_Nov_10_1439,eye_tracking_exp,2021.2.3,84.98995656917724,
180,180,-12,0,0,0,270,0,-168,180,None,present,inhibit,freq_bottom,,,,,0,158,158,996,,,0.9037767212141992,,,,,,,,,,1425.5991135441072,None,1425.5991135441072,None,None,1,None,None,,015,001,2,28,f,2021_Nov_10_1439,eye_tracking_exp,2021.2.3,84.98995656917724,
180,-168,180,180,180,90,180,168,180,180,f,present,resp,freq_bottom,,,,,0,159,159,879,,,0.9069071945200707,,,,,,,,,,1429.623384831968,None,1429.623384831968,None,f,1,None,None,1.1013058700445981,015,001,2,28,f,2021_Nov_10_1439,eye_tracking_exp,2021.2.3,84.98995656917724,
180,168,0,0,0,0,12,0,90,180,None,present,inhibit,freq_bottom,,,,,0,160,160,950,,,1.0598864114893383,,,,,,,,,,1432.0843545726966,None,1432.0843545726966,None,None,1,None,None,,015,001,2,28,f,2021_Nov_10_1439,eye_tracking_exp,2021.2.3,84.98995656917724,
0,-168,180,180,180,168,0,90,180,180,f,present,resp,freq_bottom,,,,,0,161,161,881,,,0.900757795553314,,,,,,,,,,1438.6142365395608,None,1438.6142365395608,None,f,1,None,None,1.0229957263909455,015,001,2,28,f,2021_Nov_10_1439,eye_tracking_exp,2021.2.3,84.98995656917724,
0,180,180,0,12,90,180,168,180,0,None,present,inhibit,freq_bottom,,,,,0,162,162,978,,,0.9384378525529445,,,,,,,,,,1440.849758283206,None,1440.849758283206,None,None,1,None,None,,015,001,2,28,f,2021_Nov_10_1439,eye_tracking_exp,2021.2.3,84.98995656917724,
180,180,180,12,180,-12,0,270,0,180,j,present,resp,freq_bottom,,,,,0,163,163,713,,,0.7871951967724178,,,,,,,,,,1445.0392617737307,None,1445.0392617737307,None,j,1,None,None,1.1883809640385152,015,001,2,28,f,2021_Nov_10_1439,eye_tracking_exp,2021.2.3,84.98995656917724,
0,0,0,180,12,90,0,180,0,-12,j,present,resp,freq_bottom,,,,,0,164,164,689,,,0.7924037679356273,,,,,,,,,,1447.3826589933851,None,1447.3826589933851,None,j,1,None,None,1.532952357421891,015,001,2,28,f,2021_Nov_10_1439,eye_tracking_exp,2021.2.3,84.98995656917724,
180,0,-168,0,0,0,-168,0,180,180,f,abs,resp,freq_bottom,,,,,0,165,165,340,,,0.7650165030839389,,,,,,,,,,1450.4995750034395,None,1450.4995750034395,None,f,1,None,None,1.0400610889300879,015,001,2,28,f,2021_Nov_10_1439,eye_tracking_exp,2021.2.3,84.98995656917724,
180,0,180,180,180,90,180,12,180,-12,j,present,resp,freq_bottom,,,,,0,166,166,655,,,0.7581816097883991,,,,,,,,,,1452.6065908273195,None,1452.6065908273195,None,j,1,None,None,1.6389874896667607,015,001,2,28,f,2021_Nov_10_1439,eye_tracking_exp,2021.2.3,84.98995656917724,
12,180,180,180,0,270,0,12,0,0,j,present,resp,freq_bottom,,,,,0,167,167,522,,,0.8321593481464591,,,,,,,,,,1456.2541277187083,None,1456.2541277187083,None,j,1,None,None,1.301514263243007,015,001,2,28,f,2021_Nov_10_1439,eye_tracking_exp,2021.2.3,84.98995656917724,
0,12,0,0,0,180,0,168,0,0,None,abs,inhibit,freq_bottom,,,,,0,168,168,471,,,1.0685157846877673,,,,,,,,,,1458.7015081340942,None,1458.7015081340942,None,None,1,None,None,,015,001,2,28,f,2021_Nov_10_1439,eye_tracking_exp,2021.2.3,84.98995656917724,
90,0,12,0,0,0,12,0,0,0,j,present,resp,freq_bottom,,,,,0,169,169,564,,,0.8173478704740512,,,,,,,,,,1462.997734961522,None,1462.997734961522,None,j,1,None,None,1.6449600798041502,015,001,2,28,f,2021_Nov_10_1439,eye_tracking_exp,2021.2.3,84.98995656917724,
0,0,0,180,-168,0,0,180,0,-168,f,abs,resp,freq_bottom,,,,,0,170,170,325,,,0.7501939863291129,,,,,,,,,,1466.0108926497305,None,1466.0108926497305,None,f,1,None,None,1.175810362692573,015,001,2,28,f,2021_Nov_10_1439,eye_tracking_exp,2021.2.3,84.98995656917724,
180,0,180,0,12,270,180,-12,180,0,j,present,resp,freq_bottom,,,,,0,171,171,698,,,0.8467667769804545,,,,,,,,,,1468.2581506975002,None,1468.2581506975002,None,j,1,None,None,2.512548900464026,015,001,2,28,f,2021_Nov_10_1439,eye_tracking_exp,2021.2.3,84.98995656917724,
180,0,168,0,0,0,168,180,90,0,f,present,resp,freq_bottom,,,,,0,172,172,747,,,0.9650343353738591,,,,,,,,,,1472.106674438146,None,1472.106674438146,None,f,1,None,None,1.640039718364278,015,001,2,28,f,2021_Nov_10_1439,eye_tracking_exp,2021.2.3,84.98995656917724,
180,0,168,0,0,168,180,0,90,180,f,present,resp,freq_bottom,,,,,0,173,173,782,,,1.0395369675457262,,,,,,,,,,1475.3544703721855,None,1475.3544703721855,None,f,1,None,None,1.0313073068246013,015,001,2,28,f,2021_Nov_10_1439,eye_tracking_exp,2021.2.3,84.98995656917724,
180,180,180,0,-168,0,270,180,180,-168,f,present,resp,freq_bottom,,,,,0,174,174,794,,,1.0629093108189733,,,,,,,,,,1477.7672259436258,None,1477.7672259436258,None,f,1,None,None,2.1544932234974112,015,001,2,28,f,2021_Nov_10_1439,eye_tracking_exp,2021.2.3,84.98995656917724,
12,180,0,0,180,270,180,12,180,180,j,present,resp,freq_bottom,,,,,0,175,175,554,,,0.7368239895743771,,,,,,,,,,1480.9559696924334,None,1480.9559696924334,None,j,1,None,None,1.1257202320302895,015,001,2,28,f,2021_Nov_10_1439,eye_tracking_exp,2021.2.3,84.98995656917724,
0,-168,0,0,0,0,0,0,168,0,f,abs,resp,freq_bottom,,,,,0,176,176,374,,,0.7655790400734531,,,,,,,,,,1483.1335910881098,None,1483.1335910881098,None,f,1,None,None,1.2361345191602595,015,001,2,28,f,2021_Nov_10_1439,eye_tracking_exp,2021.2.3,84.98995656917724,
-12,0,12,0,0,0,0,180,0,180,j,abs,resp,freq_bottom,,,,,0,177,177,169,,,0.763491041380354,,,,,,,,,,1485.439201948222,None,1485.439201948222,None,j,1,None,None,2.498543633886584,015,001,2,28,f,2021_Nov_10_1439,eye_tracking_exp,2021.2.3,84.98995656917724,
-168,0,12,0,0,0,0,0,0,0,None,abs,inhibit,freq_bottom,,,,,0,178,178,434,,,0.954242803975281,,,,,,,,,,1489.381788776711,None,1489.381788776711,None,None,1,None,None,,015,001,2,28,f,2021_Nov_10_1439,eye_tracking_exp,2021.2.3,84.98995656917724,
0,0,180,180,180,90,180,168,180,168,f,present,resp,freq_bottom,,,,,0,179,179,725,,,0.8905409338490327,,,,,,,,,,1493.5715587956183,None,1493.5715587956183,None,f,1,None,None,2.2052202453123755,015,001,2,28,f,2021_Nov_10_1439,eye_tracking_exp,2021.2.3,84.98995656917724,
0,180,180,168,180,-168,0,270,0,0,f,present,resp,freq_bottom,,,,,0,180,180,923,,,1.0681732335120189,,,,,,,,,,1497.1129796605346,None,1497.1129796605346,None,f,1,None,None,1.2237818492867518,015,001,2,28,f,2021_Nov_10_1439,eye_tracking_exp,2021.2.3,84.98995656917724,
180,180,0,168,0,180,0,168,0,0,f,abs,resp,freq_bottom,,,,,0,181,181,263,,,0.9807539327308589,,,,,,,,,,1500.219607614683,None,1500.219607614683,None,f,1,None,None,0.8852099101677595,015,001,2,28,f,2021_Nov_10_1439,eye_tracking_exp,2021.2.3,84.98995656917724,
-168,0,0,0,0,-168,0,0,270,0,f,present,resp,freq_bottom,,,,,0,182,182,804,,,1.0243411810102259,,,,,,,,,,1502.514192711791,None,1502.514192711791,None,f,1,None,None,0.7826079532496806,015,001,2,28,f,2021_Nov_10_1439,eye_tracking_exp,2021.2.3,84.98995656917724,
0,0,-12,0,0,0,270,0,12,0,j,present,resp,freq_bottom,,,,,0,183,183,646,,,0.7956716652837909,,,,,,,,,,1504.3615027371234,None,1504.3615027371234,None,j,1,None,None,1.575333388573199,015,001,2,28,f,2021_Nov_10_1439,eye_tracking_exp,2021.2.3,84.98995656917724,
180,180,180,168,180,180,180,0,168,180,f,abs,resp,freq_bottom,,,,,0,184,184,248,,,0.9492508434194007,,,,,,,,,,1507.798265784637,None,1507.798265784637,None,f,1,None,None,1.0815652628298267,015,001,2,28,f,2021_Nov_10_1439,eye_tracking_exp,2021.2.3,84.98995656917724,
180,180,168,0,270,0,-168,180,180,180,f,present,resp,freq_bottom,,,,,0,185,185,887,,,0.7564533582674706,,,,,,,,,,1512.8682761197815,None,1512.8682761197815,None,f,1,None,None,1.5327184282105009,015,001,2,28,f,2021_Nov_10_1439,eye_tracking_exp,2021.2.3,84.98995656917724,
0,180,12,180,180,0,180,168,0,180,None,abs,inhibit,freq_bottom,,,,,0,186,186,472,,,1.0909198758891694,,,,,,,,,,1516.1040752581976,None,1516.1040752581976,None,None,1,None,None,,015,001,2,28,f,2021_Nov_10_1439,eye_tracking_exp,2021.2.3,84.98995656917724,
0,180,180,0,0,0,-168,0,12,180,None,abs,inhibit,freq_bottom,,,,,0,187,187,476,,,0.7688230083445029,,,,,,,,,,1520.4229684681522,None,1520.4229684681522,None,None,1,None,None,,015,001,2,28,f,2021_Nov_10_1439,eye_tracking_exp,2021.2.3,84.98995656917724,
12,0,180,0,0,0,12,0,0,0,j,abs,resp,freq_bottom,,,,,0,188,188,58,,,0.9408048587211264,,,,,,,,,,1524.6512100328146,None,1524.6512100328146,None,j,1,None,None,0.9955918999730784,015,001,2,28,f,2021_Nov_10_1439,eye_tracking_exp,2021.2.3,84.98995656917724,
0,0,180,-168,0,0,270,180,180,-168,f,present,resp,freq_bottom,,,,,0,189,189,821,,,0.8645981816055881,,,,,,,,,,1526.7793781889814,None,1526.7793781889814,None,f,1,None,None,1.619466021304106,015,001,2,28,f,2021_Nov_10_1439,eye_tracking_exp,2021.2.3,84.98995656917724,
-12,180,0,180,0,180,0,180,-12,180,j,abs,resp,freq_bottom,,,,,0,190,190,87,,,1.0382607749314188,,,,,,,,,,1530.051402850855,None,1530.051402850855,None,f,0,1530.9817239405857,None,0.9072303462235141,015,001,2,28,f,2021_Nov_10_1439,eye_tracking_exp,2021.2.3,84.98995656917724,
180,-168,180,180,0,90,180,180,180,-168,f,present,resp,freq_bottom,,,,,0,191,191,807,,,0.8159405765196631,,,,,,,,,,1535.768942229446,None,1535.768942229446,None,f,1,None,None,0.9179367581200495,015,001,2,28,f,2021_Nov_10_1439,eye_tracking_exp,2021.2.3,84.98995656917724,
12,180,0,180,0,0,180,-12,180,180,j,abs,resp,freq_bottom,,,,,0,192,192,190,,,0.786395779047393,,,,,,,,,,1538.5116258291637,None,1538.5116258291637,None,j,1,None,None,1.182369436006411,015,001,2,28,f,2021_Nov_10_1439,eye_tracking_exp,2021.2.3,84.98995656917724,
0,0,12,0,0,0,90,0,0,168,None,present,inhibit,freq_bottom,,,,,0,193,193,932,,,1.0993261377158277,,,,,,,,,,1541.0528701152543,None,1541.0528701152543,None,None,1,None,None,,015,001,2,28,f,2021_Nov_10_1439,eye_tracking_exp,2021.2.3,84.98995656917724,
180,168,0,0,12,90,0,180,180,180,None,present,inhibit,freq_bottom,,,,,0,194,194,946,,,0.8528639820794012,,,,,,,,,,1546.630534916123,None,1546.630534916123,None,j,0,1548.925270029773,None,2.263561587576987,015,001,2,28,f,2021_Nov_10_1439,eye_tracking_exp,2021.2.3,84.98995656917724,
180,180,0,168,0,90,0,12,0,0,None,present,inhibit,freq_bottom,,,,,0,195,195,963,,,0.9474585221031185,,,,,,,,,,1550.7842261078295,None,1550.7842261078295,None,None,1,None,None,,015,001,2,28,f,2021_Nov_10_1439,eye_tracking_exp,2021.2.3,84.98995656917724,
180,-168,180,180,180,168,0,180,180,0,f,abs,resp,freq_bottom,,,,,0,196,196,377,,,1.0156469095145557,,,,,,,,,,1554.9745723472115,None,1554.9745723472115,None,f,1,None,None,2.511809985990112,015,001,2,28,f,2021_Nov_10_1439,eye_tracking_exp,2021.2.3,84.98995656917724,
0,0,0,180,180,180,12,180,180,-12,j,abs,resp,freq_bottom,,,,,0,197,197,197,,,0.8011209335739143,,,,,,,,,,1558.669726360171,None,1558.669726360171,None,f,0,1561.4119759080058,None,2.7192357745880145,015,001,2,28,f,2021_Nov_10_1439,eye_tracking_exp,2021.2.3,84.98995656917724,
180,180,0,0,168,180,180,0,168,180,f,abs,resp,freq_bottom,,,,,0,198,198,256,,,1.008135167139194,,,,,,,,,,1563.3649226313064,None,1563.3649226313064,None,f,1,None,None,1.6400044026013347,015,001,2,28,f,2021_Nov_10_1439,eye_tracking_exp,2021.2.3,84.98995656917724,
0,0,-12,180,180,180,180,-12,0,90,j,present,resp,freq_bottom,,,,,0,199,199,606,,,0.8440972682894334,,,,,,,,,,1566.1535991292403,None,1566.1535991292403,None,j,1,None,None,1.9883880875604518,015,001,2,28,f,2021_Nov_10_1439,eye_tracking_exp,2021.2.3,84.98995656917724,
180,180,12,0,0,0,12,0,0,180,j,abs,resp,freq_bottom,,,,,0,200,200,60,,,0.7857802448926444,,,,,,,,,,1569.4037108115735,None,1569.4037108115735,None,j,1,None,None,1.0403264099331864,015,001,2,28,f,2021_Nov_10_1439,eye_tracking_exp,2021.2.3,84.98995656917724,
180,168,0,-168,0,0,0,180,180,0,f,abs,resp,freq_bottom,,,,,0,201,201,385,,,0.9994216095140628,,,,,,,,,,1572.1209069933648,None,1572.1209069933648,None,j,0,1573.143991128196,None,1.0111622284493933,015,001,2,28,f,2021_Nov_10_1439,eye_tracking_exp,2021.2.3,84.98995656917724,
180,12,0,180,0,-12,0,0,180,90,j,present,resp,freq_bottom,,,,,0,202,202,711,,,0.9126607207384531,,,,,,,,,,1574.5911182963428,None,1574.5911182963428,None,j,1,None,None,1.1328356041085499,015,001,2,28,f,2021_Nov_10_1439,eye_tracking_exp,2021.2.3,84.98995656917724,
180,12,180,180,180,12,180,0,180,0,j,abs,resp,freq_bottom,,,,,0,203,203,27,,,0.7863182495105652,,,,,,,,,,1577.0860696511409,None,1577.0860696511409,None,j,1,None,None,0.8779146389788366,015,001,2,28,f,2021_Nov_10_1439,eye_tracking_exp,2021.2.3,84.98995656917724,
0,0,-12,0,0,0,0,0,-168,0,None,abs,inhibit,freq_bottom,,,,,0,204,204,492,,,0.8615390136282443,,,,,,,,,,1579.1920103061675,None,1579.1920103061675,None,None,1,None,None,,015,001,2,28,f,2021_Nov_10_1439,eye_tracking_exp,2021.2.3,84.98995656917724,
0,0,0,180,180,-168,0,-168,0,270,f,present,resp,freq_bottom,,,,,0,205,205,839,,,0.9440192714102768,,,,,,,,,,1583.534714491656,None,1583.534714491656,None,f,1,None,None,1.4213276752634556,015,001,2,28,f,2021_Nov_10_1439,eye_tracking_exp,2021.2.3,84.98995656917724,
0,0,0,180,-168,0,0,-168,0,0,f,abs,resp,freq_bottom,,,,,0,206,206,327,,,0.985341565954309,,,,,,,,,,1586.229023642849,None,1586.229023642849,None,f,1,None,None,1.0299444804986706,015,001,2,28,f,2021_Nov_10_1439,eye_tracking_exp,2021.2.3,84.98995656917724,
180,90,0,0,180,180,-168,180,-168,180,f,present,resp,freq_bottom,,,,,0,207,207,789,,,1.0904863618048704,,,,,,,,,,1589.1842290659006,None,1589.1842290659006,None,f,1,None,None,1.2427590926527046,015,001,2,28,f,2021_Nov_10_1439,eye_tracking_exp,2021.2.3,84.98995656917724,
180,180,168,0,0,168,180,0,180,0,f,abs,resp,freq_bottom,,,,,0,208,208,278,,,0.9083648394297554,,,,,,,,,,1591.6303027979739,None,1591.6303027979739,None,f,1,None,None,1.6447155860441853,015,001,2,28,f,2021_Nov_10_1439,eye_tracking_exp,2021.2.3,84.98995656917724,
-12,0,0,0,0,-12,180,180,0,0,j,abs,resp,freq_bottom,,,,,0,209,209,136,,,1.052225136587771,,,,,,,,,,1604.054684198578,None,1604.054684198578,None,f,0,1604.8547598407204,None,0.7713636550870433,015,001,2,28,f,2021_Nov_10_1439,eye_tracking_exp,2021.2.3,84.98995656917724,
180,0,180,0,-168,0,180,0,-168,0,f,abs,resp,freq_bottom,,,,,0,210,210,326,,,0.754734507275582,,,,,,,,,,1606.572361701048,None,1606.572361701048,None,f,1,None,None,1.8057171411455784,015,001,2,28,f,2021_Nov_10_1439,eye_tracking_exp,2021.2.3,84.98995656917724,
180,180,168,0,270,0,0,180,-168,180,f,present,resp,freq_bottom,,,,,0,211,211,885,,,0.7444772775069679,,,,,,,,,,1609.4327808176822,None,1609.4327808176822,None,j,0,1611.7037994330167,None,2.2573813286653603,015,001,2,28,f,2021_Nov_10_1439,eye_tracking_exp,2021.2.3,84.98995656917724,
0,-168,180,180,180,180,180,180,168,0,f,abs,resp,freq_bottom,,,,,0,212,212,351,,,0.8971308829930463,,,,,,,,,,1613.4802376600055,None,1613.4802376600055,None,f,1,None,None,1.1055528171928017,015,001,2,28,f,2021_Nov_10_1439,eye_tracking_exp,2021.2.3,84.98995656917724,
180,-168,180,180,180,270,180,180,-168,180,f,present,resp,freq_bottom,,,,,0,213,213,785,,,1.073897236972698,,,,,,,,,,1615.9291239758422,None,1615.9291239758422,None,f,1,None,None,1.3119674278968887,015,001,2,28,f,2021_Nov_10_1439,eye_tracking_exp,2021.2.3,84.98995656917724,
0,-168,0,0,-168,0,180,180,0,0,f,abs,resp,freq_bottom,,,,,0,214,214,302,,,0.9415730466877578,,,,,,,,,,1618.6246906097476,None,1618.6246906097476,None,f,1,None,None,0.9525003277012729,015,001,2,28,f,2021_Nov_10_1439,eye_tracking_exp,2021.2.3,84.98995656917724,
0,0,0,180,180,168,0,168,0,270,f,present,resp,freq_bottom,,,,,0,215,215,769,,,0.8347538084061664,,,,,,,,,,1620.8703848029909,None,1620.8703848029909,None,f,1,None,None,2.22676618236801,015,001,2,28,f,2021_Nov_10_1439,eye_tracking_exp,2021.2.3,84.98995656917724,
-168,0,0,0,0,0,0,0,-168,0,f,abs,resp,freq_bottom,,,,,0,216,216,280,,,1.0523173519760025,,,,,,,,,,1624.4137368667616,None,1624.4137368667616,None,f,1,None,None,0.8753731112628884,015,001,2,28,f,2021_Nov_10_1439,eye_tracking_exp,2021.2.3,84.98995656917724,
0,-12,180,0,0,90,180,180,-12,180,j,present,resp,freq_bottom,,,,,0,217,217,575,,,0.7229117448078672,,,,,,,,,,1626.836587012007,None,1626.836587012007,None,j,1,None,None,1.3005601338954875,015,001,2,28,f,2021_Nov_10_1439,eye_tracking_exp,2021.2.3,84.98995656917724,
180,0,180,168,180,270,180,0,12,0,None,present,inhibit,freq_bottom,,,,,0,218,218,962,,,0.8580555027399466,,,,,,,,,,1630.966121918471,None,1630.966121918471,None,None,1,None,None,,015,001,2,28,f,2021_Nov_10_1439,eye_tracking_exp,2021.2.3,84.98995656917724,
90,180,180,180,0,-168,0,0,168,0,f,present,resp,freq_bottom,,,,,0,219,219,860,,,0.8881674803427162,,,,,,,,,,1635.6379213442451,None,1635.6379213442451,None,f,1,None,None,1.2821729958377546,015,001,2,28,f,2021_Nov_10_1439,eye_tracking_exp,2021.2.3,84.98995656917724,
0,180,168,180,180,270,180,-168,0,180,f,present,resp,freq_bottom,,,,,0,220,220,906,,,0.7079652983836919,,,,,,,,,,1638.3686428604196,None,1638.3686428604196,None,f,1,None,None,0.9196584771343623,015,001,2,28,f,2021_Nov_10_1439,eye_tracking_exp,2021.2.3,84.98995656917724,
168,180,180,180,-168,0,270,0,0,0,f,present,resp,freq_bottom,,,,,0,221,221,870,,,0.8142719137901187,,,,,,,,,,1640.638726664427,None,1640.638726664427,None,f,1,None,None,2.569150714909483,015,001,2,28,f,2021_Nov_10_1439,eye_tracking_exp,2021.2.3,84.98995656917724,
0,0,180,0,12,180,180,-12,180,180,j,abs,resp,freq_bottom,,,,,0,222,222,194,,,1.095374741328224,,,,,,,,,,1644.6745745808585,None,1644.6745745808585,None,None,0,1647.6519625302753,None,,015,001,2,28,f,2021_Nov_10_1439,eye_tracking_exp,2021.2.3,84.98995656917724,
0,0,0,-12,0,0,0,180,180,12,j,abs,resp,freq_bottom,,,,,0,223,223,177,,,0.7257329928446913,,,,,,,,,,1649.4995348581688,None,1649.4995348581688,None,f,0,1651.0302227489046,None,1.51563284211079,015,001,2,28,f,2021_Nov_10_1439,eye_tracking_exp,2021.2.3,84.98995656917724,
0,-12,0,0,0,0,-12,0,90,0,j,present,resp,freq_bottom,,,,,0,224,224,600,,,0.726054992366814,,,,,,,,,,1653.6997604564858,None,1653.6997604564858,None,j,1,None,None,1.6194062561626197,015,001,2,28,f,2021_Nov_10_1439,eye_tracking_exp,2021.2.3,84.98995656917724,
0,180,180,0,168,0,0,0,168,0,f,abs,resp,freq_bottom,,,,,0,225,225,214,,,1.0123225809525866,,,,,,,,,,1656.9137960282133,None,1656.9137960282133,None,f,1,None,None,2.8853855834604474,015,001,2,28,f,2021_Nov_10_1439,eye_tracking_exp,2021.2.3,84.98995656917724,
0,180,12,0,0,168,180,270,180,180,None,present,inhibit,freq_bottom,,,,,0,226,226,992,,,0.965100168112019,,,,,,,,,,1661.6311367933522,None,1661.6311367933522,None,None,1,None,None,,015,001,2,28,f,2021_Nov_10_1439,eye_tracking_exp,2021.2.3,84.98995656917724,
12,180,0,180,180,180,0,180,12,0,j,abs,resp,freq_bottom,,,,,0,227,227,17,,,0.7222142684288555,,,,,,,,,,1665.8206674498506,None,1665.8206674498506,None,j,1,None,None,1.22658115190643,015,001,2,28,f,2021_Nov_10_1439,eye_tracking_exp,2021.2.3,84.98995656917724,
168,180,180,0,0,0,168,0,270,0,f,present,resp,freq_bottom,,,,,0,228,228,772,,,1.0010640395783597,,,,,,,,,,1668.3619950449247,None,1668.3619950449247,None,f,1,None,None,1.3402680332765158,015,001,2,28,f,2021_Nov_10_1439,eye_tracking_exp,2021.2.3,84.98995656917724,
0,180,180,12,180,180,-168,180,0,180,None,abs,inhibit,freq_bottom,,,,,0,229,229,481,,,1.0835942735838289,,,,,,,,,,1673.597996720764,None,1673.597996720764,None,None,1,None,None,,015,001,2,28,f,2021_Nov_10_1439,eye_tracking_exp,2021.2.3,84.98995656917724,
180,168,180,180,180,168,0,0,180,270,f,present,resp,freq_bottom,,,,,0,230,230,781,,,0.7668770591996351,,,,,,,,,,1677.705037597705,None,1677.705037597705,None,f,1,None,None,1.596284390812798,015,001,2,28,f,2021_Nov_10_1439,eye_tracking_exp,2021.2.3,84.98995656917724,
180,-12,0,0,-12,90,0,180,180,180,j,present,resp,freq_bottom,,,,,0,231,231,596,,,0.7226097589286335,,,,,,,,,,1680.341586456616,None,1680.341586456616,None,j,1,None,None,2.7197126883402234,015,001,2,28,f,2021_Nov_10_1439,eye_tracking_exp,2021.2.3,84.98995656917724,
0,0,-12,0,-12,180,0,0,0,0,j,abs,resp,freq_bottom,,,,,0,232,232,98,,,1.0190067590516116,,,,,,,,,,1684.8608564888018,None,1684.8608564888018,None,j,1,None,None,1.208435187319992,015,001,2,28,f,2021_Nov_10_1439,eye_tracking_exp,2021.2.3,84.98995656917724,
12,0,0,0,0,12,0,0,180,0,j,abs,resp,freq_bottom,,,,,0,233,233,20,,,0.8683646244388246,,,,,,,,,,1687.8361728818381,None,1687.8361728818381,None,j,1,None,None,0.9059647137146385,015,001,2,28,f,2021_Nov_10_1439,eye_tracking_exp,2021.2.3,84.98995656917724,
-168,0,0,0,0,90,0,12,180,180,None,present,inhibit,freq_bottom,,,,,0,234,234,942,,,0.8955769277478256,,,,,,,,,,1693.3196263893878,None,1693.3196263893878,None,None,1,None,None,,015,001,2,28,f,2021_Nov_10_1439,eye_tracking_exp,2021.2.3,84.98995656917724,
0,180,12,0,0,0,180,180,180,12,j,abs,resp,freq_bottom,,,,,0,235,235,8,,,0.7470675851634875,,,,,,,,,,1699.4842057031638,None,1699.4842057031638,None,j,1,None,None,1.5920757778731058,015,001,2,28,f,2021_Nov_10_1439,eye_tracking_exp,2021.2.3,84.98995656917724,
-168,0,0,0,12,0,270,0,0,0,None,present,inhibit,freq_bottom,,,,,0,236,236,940,,,0.8167024102970337,,,,,,,,,,1702.2851630320583,None,1702.2851630320583,None,None,1,None,None,,015,001,2,28,f,2021_Nov_10_1439,eye_tracking_exp,2021.2.3,84.98995656917724,
168,0,180,180,180,0,0,168,0,0,f,abs,resp,freq_bottom,,,,,0,237,237,228,,,1.0909604982562515,,,,,,,,,,1706.910190198032,None,1706.910190198032,None,j,0,1708.6982784017237,None,1.7661662007194536,015,001,2,28,f,2021_Nov_10_1439,eye_tracking_exp,2021.2.3,84.98995656917724,
12,180,180,-12,180,180,180,0,0,0,j,abs,resp,freq_bottom,,,,,0,238,238,176,,,0.8176882527772409,,,,,,,,,,1710.4983142004385,None,1710.4983142004385,None,f,0,1711.839977929154,None,1.3130341451142158,015,001,2,28,f,2021_Nov_10_1439,eye_tracking_exp,2021.2.3,84.98995656917724,
168,180,0,-168,180,90,180,0,180,180,f,present,resp,freq_bottom,,,,,0,239,239,890,,,0.7012729405066827,,,,,,,,,,1713.4163936989426,None,1713.4163936989426,None,j,0,1715.2171327945216,None,1.7869668845814886,015,001,2,28,f,2021_Nov_10_1439,eye_tracking_exp,2021.2.3,84.98995656917724,
0,180,0,180,180,12,0,270,180,12,j,present,resp,freq_bottom,,,,,0,240,240,569,,,0.8603440517587968,,,,,,,,,,1717.0172005887143,None,1717.0172005887143,None,j,1,None,None,2.522160221793456,015,001,2,28,f,2021_Nov_10_1439,eye_tracking_exp,2021.2.3,84.98995656917724,
180,180,180,0,0,-12,180,180,-12,0,j,abs,resp,freq_bottom,,,,,0,241,241,134,,,1.0772390976102273,,,,,,,,,,1720.9248109248256,None,1720.9248109248256,None,j,1,None,None,2.0226178175180394,015,001,2,28,f,2021_Nov_10_1439,eye_tracking_exp,2021.2.3,84.98995656917724,
0,-12,0,0,0,0,-12,0,0,0,j,abs,resp,freq_bottom,,,,,0,242,242,96,,,0.9827977974971345,,,,,,,,,,1724.1967024734295,None,1724.1967024734295,None,j,1,None,None,1.4056492865820474,015,001,2,28,f,2021_Nov_10_1439,eye_tracking_exp,2021.2.3,84.98995656917724,
-168,0,0,0,0,0,90,0,-168,0,f,present,resp,freq_bottom,,,,,0,243,243,784,,,0.7126299068153273,,,,,,,,,,1726.868478053515,None,1726.868478053515,None,f,1,None,None,2.157900138387049,015,001,2,28,f,2021_Nov_10_1439,eye_tracking_exp,2021.2.3,84.98995656917724,
0,180,0,0,12,180,180,0,12,180,j,abs,resp,freq_bottom,,,,,0,244,244,46,,,1.0925245125523082,,,,,,,,,,1730.5753529765461,None,1730.5753529765461,None,j,1,None,None,1.8270016811693495,015,001,2,28,f,2021_Nov_10_1439,eye_tracking_exp,2021.2.3,84.98995656917724,
12,0,180,0,180,180,-12,180,90,180,j,present,resp,freq_bottom,,,,,0,245,245,663,,,0.7604145212087621,,,,,,,,,,1733.6354779158755,None,1733.6354779158755,None,j,1,None,None,2.2708912689995486,015,001,2,28,f,2021_Nov_10_1439,eye_tracking_exp,2021.2.3,84.98995656917724,
168,0,168,0,0,0,0,0,270,0,f,present,resp,freq_bottom,,,,,0,246,246,728,,,1.0467502550643064,,,,,,,,,,1737.0600926420047,None,1737.0600926420047,None,f,1,None,None,1.0063505309044558,015,001,2,28,f,2021_Nov_10_1439,eye_tracking_exp,2021.2.3,84.98995656917724,
180,180,180,0,-12,0,270,0,0,-12,j,present,resp,freq_bottom,,,,,0,247,247,584,,,0.820237093648496,,,,,,,,,,1739.1788547308643,None,1739.1788547308643,None,j,1,None,None,2.086569235099887,015,001,2,28,f,2021_Nov_10_1439,eye_tracking_exp,2021.2.3,84.98995656917724,
180,12,180,12,180,180,180,0,180,0,j,abs,resp,freq_bottom,,,,,0,248,248,21,,,0.8035593699787491,,,,,,,,,,1742.5204762014,None,1742.5204762014,None,j,1,None,None,0.7289279901488044,015,001,2,28,f,2021_Nov_10_1439,eye_tracking_exp,2021.2.3,84.98995656917724,
0,180,180,180,180,-168,180,90,0,168,f,present,resp,freq_bottom,,,,,0,249,249,918,,,1.091058513178615,,,,,,,,,,1744.662065857563,None,1744.662065857563,None,f,1,None,None,2.587343465336744,015,001,2,28,f,2021_Nov_10_1439,eye_tracking_exp,2021.2.3,84.98995656917724,
180,180,0,180,-168,0,0,270,0,-168,f,present,resp,freq_bottom,,,,,0,250,250,829,,,0.7094131102820771,,,,,,,,,,1748.3568911622424,None,1748.3568911622424,None,f,1,None,None,1.9004937885511026,015,001,2,28,f,2021_Nov_10_1439,eye_tracking_exp,2021.2.3,84.98995656917724,
0,180,0,168,0,180,180,0,12,180,None,abs,inhibit,freq_bottom,,,,,0,251,251,458,,,0.8876317877269793,,,,,,,,,,2075.833200320678,None,2075.833200320678,None,None,1,None,None,,015,001,2,28,f,2021_Nov_10_1439,eye_tracking_exp,2021.2.3,84.98995656917724,
180,180,180,12,0,270,0,168,0,180,None,present,inhibit,freq_bottom,,,,,0,252,252,977,,,0.7264794146707051,,,,,,,,,,2081.11771408598,None,2081.11771408598,None,None,1,None,None,,015,001,2,28,f,2021_Nov_10_1439,eye_tracking_exp,2021.2.3,84.98995656917724,
0,168,180,180,0,0,90,0,12,0,None,present,inhibit,freq_bottom,,,,,0,253,253,948,,,0.8301003261102186,,,,,,,,,,2085.250380323625,None,2085.250380323625,None,None,1,None,None,,015,001,2,28,f,2021_Nov_10_1439,eye_tracking_exp,2021.2.3,84.98995656917724,
0,0,-168,180,180,12,180,180,180,180,None,abs,inhibit,freq_bottom,,,,,0,254,254,454,,,0.8608479108108983,,,,,,,,,,2089.308567121687,None,2089.308567121687,None,None,1,None,None,,015,001,2,28,f,2021_Nov_10_1439,eye_tracking_exp,2021.2.3,84.98995656917724,
180,0,0,12,180,-12,180,180,180,180,j,abs,resp,freq_bottom,,,,,0,255,255,209,,,0.9507873078998592,,,,,,,,,,2094.11114656103,None,2094.11114656103,None,j,1,None,None,1.325292337769497,015,001,2,28,f,2021_Nov_10_1439,eye_tracking_exp,2021.2.3,84.98995656917724,
-168,0,0,0,0,0,0,12,0,0,None,abs,inhibit,freq_bottom,,,,,0,256,256,438,,,0.8711596471014795,,,,,,,,,,2097.7940801118493,None,2097.7940801118493,None,None,1,None,None,,015,001,2,28,f,2021_Nov_10_1439,eye_tracking_exp,2021.2.3,84.98995656917724,
0,180,0,168,180,180,12,0,270,180,None,present,inhibit,freq_bottom,,,,,0,257,257,964,,,0.8481721996158975,,,,,,,,,,2102.0305200653893,None,2102.0305200653893,None,None,1,None,None,,015,001,2,28,f,2021_Nov_10_1439,eye_tracking_exp,2021.2.3,84.98995656917724,
-168,0,0,0,0,0,0,-168,0,0,f,abs,resp,freq_bottom,,,,,0,258,258,298,,,1.0797440261032023,,,,,,,,,,2107.951896003826,None,2107.951896003826,None,f,1,None,None,1.4692058920190902,015,001,2,28,f,2021_Nov_10_1439,eye_tracking_exp,2021.2.3,84.98995656917724,
-12,180,0,180,180,270,180,180,-12,180,j,present,resp,freq_bottom,,,,,0,259,259,591,,,1.091625049632526,,,,,,,,,,2110.798136897185,None,2110.798136897185,None,j,1,None,None,1.0212106201033748,015,001,2,28,f,2021_Nov_10_1439,eye_tracking_exp,2021.2.3,84.98995656917724,
0,0,0,-12,0,-12,0,180,0,0,j,abs,resp,freq_bottom,,,,,0,260,260,111,,,0.7837678958101488,,,,,,,,,,2112.892478889018,None,2112.892478889018,None,j,1,None,None,0.8309123739381903,015,001,2,28,f,2021_Nov_10_1439,eye_tracking_exp,2021.2.3,84.98995656917724,
168,0,0,0,168,0,270,180,180,180,f,present,resp,freq_bottom,,,,,0,261,261,730,,,0.8914599643082537,,,,,,,,,,2115.5635252136453,None,2115.5635252136453,None,f,1,None,None,1.7438415057622478,015,001,2,28,f,2021_Nov_10_1439,eye_tracking_exp,2021.2.3,84.98995656917724,
0,-12,180,180,180,0,90,0,-12,0,j,present,resp,freq_bottom,,,,,0,262,262,598,,,0.948165065355294,,,,,,,,,,2119.1764719731655,None,2119.1764719731655,None,j,1,None,None,1.2180045523127774,015,001,2,28,f,2021_Nov_10_1439,eye_tracking_exp,2021.2.3,84.98995656917724,
168,0,0,0,0,-168,0,0,180,180,f,abs,resp,freq_bottom,,,,,0,263,263,370,,,1.0816480453196546,,,,,,,,,,2123.355023048818,None,2123.355023048818,None,f,1,None,None,2.3033675863080134,015,001,2,28,f,2021_Nov_10_1439,eye_tracking_exp,2021.2.3,84.98995656917724,
180,0,180,0,180,-12,0,-12,180,0,j,abs,resp,freq_bottom,,,,,0,264,264,133,,,1.0429279794713044,,,,,,,,,,2126.955009526202,None,2126.955009526202,None,j,1,None,None,1.9505428684096842,015,001,2,28,f,2021_Nov_10_1439,eye_tracking_exp,2021.2.3,84.98995656917724,
180,180,168,180,180,0,0,168,180,0,f,abs,resp,freq_bottom,,,,,0,265,265,262,,,0.9276397568587716,,,,,,,,,,2133.873228174856,None,2133.873228174856,None,f,1,None,None,1.1922472857186222,015,001,2,28,f,2021_Nov_10_1439,eye_tracking_exp,2021.2.3,84.98995656917724,
-168,180,0,0,168,180,180,90,0,180,f,present,resp,freq_bottom,,,,,0,266,266,898,,,0.9407390959880612,,,,,,,,,,2136.8973388816303,None,2136.8973388816303,None,f,1,None,None,1.7841793538791535,015,001,2,28,f,2021_Nov_10_1439,eye_tracking_exp,2021.2.3,84.98995656917724,
180,-12,0,180,180,180,-12,180,180,270,j,present,resp,freq_bottom,,,,,0,267,267,633,,,0.9146892833213147,,,,,,,,,,2141.286721755234,None,2141.286721755234,None,f,0,2143.4639100045642,None,2.1618790479296877,015,001,2,28,f,2021_Nov_10_1439,eye_tracking_exp,2021.2.3,84.98995656917724,
-12,0,0,0,-12,0,0,0,0,0,j,abs,resp,freq_bottom,,,,,0,268,268,86,,,0.7754696982012034,,,,,,,,,,2145.1582638286854,None,2145.1582638286854,None,j,1,None,None,1.5062162102585717,015,001,2,28,f,2021_Nov_10_1439,eye_tracking_exp,2021.2.3,84.98995656917724,
180,168,180,180,180,180,0,168,180,0,f,abs,resp,freq_bottom,,,,,0,269,269,235,,,1.0689344024488103,,,,,,,,,,2148.582269433329,None,2148.582269433329,None,f,1,None,None,2.4502546072508267,015,001,2,28,f,2021_Nov_10_1439,eye_tracking_exp,2021.2.3,84.98995656917724,
180,12,180,180,180,180,0,180,12,180,j,abs,resp,freq_bottom,,,,,0,270,270,1,,,0.8551718899424074,,,,,,,,,,2152.3956672687455,None,2152.3956672687455,None,j,1,None,None,1.180862931865704,015,001,2,28,f,2021_Nov_10_1439,eye_tracking_exp,2021.2.3,84.98995656917724,
0,0,-12,180,0,180,0,0,0,-12,j,abs,resp,freq_bottom,,,,,0,271,271,100,,,0.9560031480167712,,,,,,,,,,2155.2317130741976,None,2155.2317130741976,None,j,1,None,None,1.3367868647292198,015,001,2,28,f,2021_Nov_10_1439,eye_tracking_exp,2021.2.3,84.98995656917724,
0,-168,0,0,0,180,0,-168,0,0,f,abs,resp,freq_bottom,,,,,0,272,272,331,,,0.7145431754213096,,,,,,,,,,2160.632513806351,None,2160.632513806351,None,f,1,None,None,1.7431575269256427,015,001,2,28,f,2021_Nov_10_1439,eye_tracking_exp,2021.2.3,84.98995656917724,
180,180,180,180,-12,0,0,0,12,0,j,abs,resp,freq_bottom,,,,,0,273,273,144,,,0.8046897432919248,,,,,,,,,,2166.586430053052,None,2166.586430053052,None,j,1,None,None,2.061083930078894,015,001,2,28,f,2021_Nov_10_1439,eye_tracking_exp,2021.2.3,84.98995656917724,
168,0,-168,0,0,0,0,180,180,180,f,abs,resp,freq_bottom,,,,,0,274,274,364,,,1.0957853106783078,,,,,,,,,,2170.658409921256,None,2170.658409921256,None,f,1,None,None,1.7169779803698475,015,001,2,28,f,2021_Nov_10_1439,eye_tracking_exp,2021.2.3,84.98995656917724,
0,0,0,0,-12,0,-12,0,0,0,j,abs,resp,freq_bottom,,,,,0,275,275,132,,,0.8210157230513324,,,,,,,,,,2173.963700222881,None,2173.963700222881,None,j,1,None,None,1.4839044946020294,015,001,2,28,f,2021_Nov_10_1439,eye_tracking_exp,2021.2.3,84.98995656917724,
0,180,180,0,180,180,0,-168,180,-168,f,abs,resp,freq_bottom,,,,,0,276,276,291,,,1.0842656448885042,,,,,,,,,,2177.4941710876774,None,2177.4941710876774,None,f,1,None,None,1.4883524699507689,015,001,2,28,f,2021_Nov_10_1439,eye_tracking_exp,2021.2.3,84.98995656917724,
180,180,-168,0,12,180,90,0,180,180,None,present,inhibit,freq_bottom,,,,,0,277,277,952,,,0.9607999783117802,,,,,,,,,,2180.530157550569,None,2180.530157550569,None,None,1,None,None,,015,001,2,28,f,2021_Nov_10_1439,eye_tracking_exp,2021.2.3,84.98995656917724,
180,180,12,0,180,0,90,180,12,180,j,present,resp,freq_bottom,,,,,0,278,278,535,,,0.8932288156849743,,,,,,,,,,2184.9313364934387,None,2184.9313364934387,None,f,0,2185.9315782706,None,0.9792962400060787,015,001,2,28,f,2021_Nov_10_1439,eye_tracking_exp,2021.2.3,84.98995656917724,
180,0,-168,0,-168,180,270,0,180,0,f,present,resp,freq_bottom,,,,,0,279,279,826,,,0.8247647550899847,,,,,,,,,,2187.908146713158,None,2187.908146713158,None,f,1,None,None,1.9704473769961623,015,001,2,28,f,2021_Nov_10_1439,eye_tracking_exp,2021.2.3,84.98995656917724,
0,0,270,0,0,0,-168,0,0,-168,f,present,resp,freq_bottom,,,,,0,280,280,796,,,0.764196429333428,,,,,,,,,,2191.8854782177186,None,2191.8854782177186,None,f,1,None,None,2.232104296108446,015,001,2,28,f,2021_Nov_10_1439,eye_tracking_exp,2021.2.3,84.98995656917724,
180,180,180,-12,0,0,0,270,180,12,j,present,resp,freq_bottom,,,,,0,281,281,681,,,0.7951886397787592,,,,,,,,,,2195.0513041478225,None,2195.0513041478225,None,j,1,None,None,1.8823266948747914,015,001,2,28,f,2021_Nov_10_1439,eye_tracking_exp,2021.2.3,84.98995656917724,
180,0,0,0,168,180,180,-168,180,0,f,abs,resp,freq_bottom,,,,,0,282,282,404,,,0.9917912501382382,,,,,,,,,,2198.1813253252076,None,2198.1813253252076,None,f,1,None,None,2.7378094523301115,015,001,2,28,f,2021_Nov_10_1439,eye_tracking_exp,2021.2.3,84.98995656917724,
180,-12,180,180,180,-12,0,0,180,0,j,abs,resp,freq_bottom,,,,,0,283,283,137,,,0.8841984792832687,,,,,,,,,,2202.712061511007,None,2202.712061511007,None,j,1,None,None,1.709603324168711,015,001,2,28,f,2021_Nov_10_1439,eye_tracking_exp,2021.2.3,84.98995656917724,
0,0,0,0,168,0,270,180,180,168,f,present,resp,freq_bottom,,,,,0,284,284,724,,,0.9959913675759827,,,,,,,,,,2207.1955445992826,None,2207.1955445992826,None,j,0,2208.690484484003,None,1.4651454845516128,015,001,2,28,f,2021_Nov_10_1439,eye_tracking_exp,2021.2.3,84.98995656917724,
-12,180,0,0,0,0,-12,0,0,0,j,abs,resp,freq_bottom,,,,,0,285,285,128,,,1.075719331729877,,,,,,,,,,2210.7981836830295,None,2210.7981836830295,None,j,1,None,None,0.951163761819771,015,001,2,28,f,2021_Nov_10_1439,eye_tracking_exp,2021.2.3,84.98995656917724,
0,0,-168,0,0,0,270,0,0,-168,f,present,resp,freq_bottom,,,,,0,286,286,792,,,0.7043365207535949,,,,,,,,,,2212.527896134219,None,2212.527896134219,None,f,1,None,None,2.660836478247802,015,001,2,28,f,2021_Nov_10_1439,eye_tracking_exp,2021.2.3,84.98995656917724,
180,0,180,0,180,-12,180,270,0,-12,j,present,resp,freq_bottom,,,,,0,287,287,587,,,0.7733983566212743,,,,,,,,,,2216.8349561480827,None,2216.8349561480827,None,j,1,None,None,1.6817141323626856,015,001,2,28,f,2021_Nov_10_1439,eye_tracking_exp,2021.2.3,84.98995656917724,
0,0,0,-12,0,0,0,180,0,-12,j,abs,resp,freq_bottom,,,,,0,288,288,107,,,0.8950116163371997,,,,,,,,,,2222.2225484822047,None,2222.2225484822047,None,f,0,2224.164854897481,None,1.9107205700966006,015,001,2,28,f,2021_Nov_10_1439,eye_tracking_exp,2021.2.3,84.98995656917724,
0,0,0,12,0,0,0,12,0,270,j,present,resp,freq_bottom,,,,,0,289,289,543,,,1.091890789541769,,,,,,,,,,2226.7308449704324,None,2226.7308449704324,None,j,1,None,None,1.1769821216694254,015,001,2,28,f,2021_Nov_10_1439,eye_tracking_exp,2021.2.3,84.98995656917724,
0,0,-168,180,180,180,180,-168,0,90,f,present,resp,freq_bottom,,,,,0,290,290,816,,,1.0760872266061507,,,,,,,,,,2229.9891484010695,None,2229.9891484010695,None,None,0,2232.978503867227,None,,015,001,2,28,f,2021_Nov_10_1439,eye_tracking_exp,2021.2.3,84.98995656917724,
-12,180,0,180,0,0,180,-12,0,270,j,present,resp,freq_bottom,,,,,0,291,291,624,,,0.991954235608565,,,,,,,,,,2238.284545458937,None,2238.284545458937,None,j,1,None,None,1.1102323070044804,015,001,2,28,f,2021_Nov_10_1439,eye_tracking_exp,2021.2.3,84.98995656917724,
0,12,0,0,180,180,180,90,180,-12,j,present,resp,freq_bottom,,,,,0,292,292,651,,,0.7219171612133863,,,,,,,,,,2241.2383675302626,None,2241.2383675302626,None,j,1,None,None,1.6444194769355818,015,001,2,28,f,2021_Nov_10_1439,eye_tracking_exp,2021.2.3,84.98995656917724,
180,180,180,0,12,90,0,0,12,0,j,present,resp,freq_bottom,,,,,0,293,293,508,,,0.8583727753767647,,,,,,,,,,2245.7686621180765,None,2245.7686621180765,None,j,1,None,None,1.8816837668455264,015,001,2,28,f,2021_Nov_10_1439,eye_tracking_exp,2021.2.3,84.98995656917724,
180,12,0,0,180,180,180,90,180,12,j,present,resp,freq_bottom,,,,,0,294,294,511,,,0.941664139955346,,,,,,,,,,2249.487420947018,None,2249.487420947018,None,j,1,None,None,0.8513840476771293,015,001,2,28,f,2021_Nov_10_1439,eye_tracking_exp,2021.2.3,84.98995656917724,
270,180,0,0,0,0,-12,0,-12,180,j,present,resp,freq_bottom,,,,,0,295,295,630,,,0.8948437732787267,,,,,,,,,,2253.8295009188114,None,2253.8295009188114,None,j,1,None,None,1.645236267198925,015,001,2,28,f,2021_Nov_10_1439,eye_tracking_exp,2021.2.3,84.98995656917724,
180,180,180,0,12,0,0,0,-168,180,None,abs,inhibit,freq_bottom,,,,,0,296,296,424,,,0.955575897734243,,,,,,,,,,2256.6779525187085,None,2256.6779525187085,None,None,1,None,None,,015,001,2,28,f,2021_Nov_10_1439,eye_tracking_exp,2021.2.3,84.98995656917724,
180,180,180,-12,180,180,12,0,270,180,j,present,resp,freq_bottom,,,,,0,297,297,684,,,0.9931476454966985,,,,,,,,,,2260.92512272983,None,2260.92512272983,None,j,1,None,None,2.452746028837282,015,001,2,28,f,2021_Nov_10_1439,eye_tracking_exp,2021.2.3,84.98995656917724,
0,180,180,-12,180,180,180,0,180,-12,j,abs,resp,freq_bottom,,,,,0,298,298,79,,,0.8974799265898089,,,,,,,,,,2264.3844981297734,None,2264.3844981297734,None,j,1,None,None,1.153323879272648,015,001,2,28,f,2021_Nov_10_1439,eye_tracking_exp,2021.2.3,84.98995656917724,
-168,180,0,-168,180,180,0,180,0,180,f,abs,resp,freq_bottom,,,,,0,299,299,295,,,0.8809897170705494,,,,,,,,,,2269.4085717097187,None,2269.4085717097187,None,j,0,2271.021258279583,None,1.5842610329054878,015,001,2,28,f,2021_Nov_10_1439,eye_tracking_exp,2021.2.3,84.98995656917724,
180,180,168,0,168,180,270,0,180,180,f,present,resp,freq_bottom,,,,,0,300,300,756,,,1.0527044974704607,,,,,,,,,,2273.3978163990723,None,2273.3978163990723,None,f,1,None,None,2.427002948916197,015,001,2,28,f,2021_Nov_10_1439,eye_tracking_exp,2021.2.3,84.98995656917724,
180,180,-168,0,0,0,0,180,-168,180,f,abs,resp,freq_bottom,,,,,0,301,301,311,,,0.813143909703845,,,,,,,,,,2279.4692840377575,None,2279.4692840377575,None,f,1,None,None,1.0115156879473943,015,001,2,28,f,2021_Nov_10_1439,eye_tracking_exp,2021.2.3,84.98995656917724,
0,0,0,0,0,0,0,168,0,168,f,abs,resp,freq_bottom,,,,,0,302,302,259,,,0.7547718211195679,,,,,,,,,,2282.213302995984,None,2282.213302995984,None,f,1,None,None,1.0675823327183025,015,001,2,28,f,2021_Nov_10_1439,eye_tracking_exp,2021.2.3,84.98995656917724,
0,180,-168,0,0,0,12,180,180,180,None,abs,inhibit,freq_bottom,,,,,0,303,303,453,,,1.0997944800228525,,,,,,,,,,2285.435718968609,None,2285.435718968609,None,None,1,None,None,,015,001,2,28,f,2021_Nov_10_1439,eye_tracking_exp,2021.2.3,84.98995656917724,
12,0,180,180,180,12,180,0,0,0,j,abs,resp,freq_bottom,,,,,0,304,304,66,,,0.8751430970479259,,,,,,,,,,2289.684085689929,None,2289.684085689929,None,j,1,None,None,1.6124324489901483,015,001,2,28,f,2021_Nov_10_1439,eye_tracking_exp,2021.2.3,84.98995656917724,
180,0,180,0,-12,180,-12,180,180,0,j,abs,resp,freq_bottom,,,,,0,305,305,118,,,0.8233754476336296,,,,,,,,,,2292.8377720521275,None,2292.8377720521275,None,j,1,None,None,2.907450390608574,015,001,2,28,f,2021_Nov_10_1439,eye_tracking_exp,2021.2.3,84.98995656917724,
180,180,180,180,180,-168,0,-168,0,0,f,abs,resp,freq_bottom,,,,,0,306,306,335,,,0.7218989268991334,,,,,,,,,,2297.391460768711,None,2297.391460768711,None,f,1,None,None,2.0484623170741543,015,001,2,28,f,2021_Nov_10_1439,eye_tracking_exp,2021.2.3,84.98995656917724,
-12,180,180,0,12,180,0,0,180,180,j,abs,resp,freq_bottom,,,,,0,307,307,184,,,0.9967250919687667,,,,,,,,,,2301.5114978472484,None,2301.5114978472484,None,j,1,None,None,2.5353680161315424,015,001,2,28,f,2021_Nov_10_1439,eye_tracking_exp,2021.2.3,84.98995656917724,
0,180,0,180,180,12,180,0,180,12,j,abs,resp,freq_bottom,,,,,0,308,308,13,,,0.8179035825278453,,,,,,,,,,2310.782783292805,None,2310.782783292805,None,j,1,None,None,1.2481500291178236,015,001,2,28,f,2021_Nov_10_1439,eye_tracking_exp,2021.2.3,84.98995656917724,
180,180,-168,0,180,180,-168,180,90,0,f,present,resp,freq_bottom,,,,,0,309,309,841,,,0.85655693329605,,,,,,,,,,2314.005288611297,None,2314.005288611297,None,f,1,None,None,1.497560527495807,015,001,2,28,f,2021_Nov_10_1439,eye_tracking_exp,2021.2.3,84.98995656917724,
0,180,180,180,-168,0,90,0,-168,0,f,present,resp,freq_bottom,,,,,0,310,310,788,,,0.8798714287881283,,,,,,,,,,2316.4764606841964,None,2316.4764606841964,None,f,1,None,None,1.8255021194490837,015,001,2,28,f,2021_Nov_10_1439,eye_tracking_exp,2021.2.3,84.98995656917724,
180,0,180,0,-12,180,0,-12,180,0,j,abs,resp,freq_bottom,,,,,0,311,311,124,,,0.9451938529328758,,,,,,,,,,2319.418473706959,None,2319.418473706959,None,j,1,None,None,1.2834156881872332,015,001,2,28,f,2021_Nov_10_1439,eye_tracking_exp,2021.2.3,84.98995656917724,
180,180,168,0,0,-168,180,0,180,180,f,abs,resp,freq_bottom,,,,,0,312,312,418,,,0.8032388824103405,,,,,,,,,,2321.995880129238,None,2321.995880129238,None,f,1,None,None,2.834116147718305,015,001,2,28,f,2021_Nov_10_1439,eye_tracking_exp,2021.2.3,84.98995656917724,
-12,0,0,0,0,0,270,0,-168,0,None,present,inhibit,freq_bottom,,,,,0,313,313,994,,,0.7118368765242006,,,,,,,,,,2325.809897952531,None,2325.809897952531,None,None,1,None,None,,015,001,2,28,f,2021_Nov_10_1439,eye_tracking_exp,2021.2.3,84.98995656917724,
0,180,0,180,180,-168,0,-168,180,180,f,abs,resp,freq_bottom,,,,,0,314,314,343,,,0.8369070145250153,,,,,,,,,,2330.1866450264533,None,2330.1866450264533,None,f,1,None,None,1.7304239297409367,015,001,2,28,f,2021_Nov_10_1439,eye_tracking_exp,2021.2.3,84.98995656917724,
168,180,180,-168,180,180,0,180,0,180,f,abs,resp,freq_bottom,,,,,0,315,315,365,,,0.7759559475769139,,,,,,,,,,2332.8460528444593,None,2332.8460528444593,None,f,1,None,None,1.5520358499270515,015,001,2,28,f,2021_Nov_10_1439,eye_tracking_exp,2021.2.3,84.98995656917724,
180,180,0,-168,180,-168,0,0,180,180,f,abs,resp,freq_bottom,,,,,0,316,316,349,,,0.8867284803767808,,,,,,,,,,2335.78832062368,None,2335.78832062368,None,f,1,None,None,0.7847794200461067,015,001,2,28,f,2021_Nov_10_1439,eye_tracking_exp,2021.2.3,84.98995656917724,
12,0,0,0,0,-12,0,270,0,0,j,present,resp,freq_bottom,,,,,0,317,317,664,,,1.0889403134949958,,,,,,,,,,2338.8003648088343,None,2338.8003648088343,None,j,1,None,None,2.7337834550962725,015,001,2,28,f,2021_Nov_10_1439,eye_tracking_exp,2021.2.3,84.98995656917724,
180,-168,180,-168,180,0,180,0,180,0,f,abs,resp,freq_bottom,,,,,0,318,318,301,,,0.9350978096635458,,,,,,,,,,2342.5537481798783,None,2342.5537481798783,None,j,0,2343.790846757347,None,1.2197317045247473,015,001,2,28,f,2021_Nov_10_1439,eye_tracking_exp,2021.2.3,84.98995656917724,
180,180,270,0,0,0,168,0,0,168,f,present,resp,freq_bottom,,,,,0,319,319,726,,,1.0971944050025546,,,,,,,,,,2346.083694137702,None,2346.083694137702,None,f,1,None,None,2.025364599252498,015,001,2,28,f,2021_Nov_10_1439,eye_tracking_exp,2021.2.3,84.98995656917724,
0,180,180,180,0,12,180,180,12,0,j,abs,resp,freq_bottom,,,,,0,320,320,64,,,0.9684266110403137,,,,,,,,,,2351.2383156130672,None,2351.2383156130672,None,None,0,2354.2162357137167,None,,015,001,2,28,f,2021_Nov_10_1439,eye_tracking_exp,2021.2.3,84.98995656917724,
12,180,180,180,180,270,180,-12,180,180,j,present,resp,freq_bottom,,,,,0,321,321,694,,,0.761666586481567,,,,,,,,,,2356.510455277563,None,2356.510455277563,None,j,1,None,None,1.67806513846881,015,001,2,28,f,2021_Nov_10_1439,eye_tracking_exp,2021.2.3,84.98995656917724,
180,0,0,180,168,0,0,-168,0,180,f,abs,resp,freq_bottom,,,,,0,322,322,397,,,0.8528958474372952,,,,,,,,,,2361.3466897356084,None,2361.3466897356084,None,f,1,None,None,2.616353404457186,015,001,2,28,f,2021_Nov_10_1439,eye_tracking_exp,2021.2.3,84.98995656917724,
0,12,0,0,12,0,0,0,270,0,j,present,resp,freq_bottom,,,,,0,323,323,526,,,0.9369097826285422,,,,,,,,,,2364.9591004199247,None,2364.9591004199247,None,j,1,None,None,2.269100729517959,015,001,2,28,f,2021_Nov_10_1439,eye_tracking_exp,2021.2.3,84.98995656917724,
180,0,168,0,0,90,0,180,168,180,f,present,resp,freq_bottom,,,,,0,324,324,745,,,0.7364353968971376,,,,,,,,,,2368.6426627121036,None,2368.6426627121036,None,f,1,None,None,1.656408726455993,015,001,2,28,f,2021_Nov_10_1439,eye_tracking_exp,2021.2.3,84.98995656917724,
180,180,180,0,-12,0,12,0,0,180,j,abs,resp,freq_bottom,,,,,0,325,325,202,,,1.0507752803748365,,,,,,,,,,2377.407713264962,None,2377.407713264962,None,j,1,None,None,1.3713718652470561,015,001,2,28,f,2021_Nov_10_1439,eye_tracking_exp,2021.2.3,84.98995656917724,
180,0,-168,0,0,-168,180,0,180,270,f,present,resp,freq_bottom,,,,,0,326,326,852,,,0.9552394930952728,,,,,,,,,,2380.9968448231302,None,2380.9968448231302,None,f,1,None,None,1.4292746279679704,015,001,2,28,f,2021_Nov_10_1439,eye_tracking_exp,2021.2.3,84.98995656917724,
0,0,12,180,180,12,0,0,180,180,j,abs,resp,freq_bottom,,,,,0,327,327,34,,,0.8942166268441757,,,,,,,,,,2386.185925430007,None,2386.185925430007,None,j,1,None,None,1.2321755313278118,015,001,2,28,f,2021_Nov_10_1439,eye_tracking_exp,2021.2.3,84.98995656917724,
12,180,180,12,180,180,180,90,180,180,j,present,resp,freq_bottom,,,,,0,328,328,519,,,1.026806905172918,,,,,,,,,,2389.504150658864,None,2389.504150658864,None,j,1,None,None,1.2099727814056678,015,001,2,28,f,2021_Nov_10_1439,eye_tracking_exp,2021.2.3,84.98995656917724,
180,0,180,0,0,12,180,180,180,168,None,abs,inhibit,freq_bottom,,,,,0,329,329,503,,,0.9508290441829355,,,,,,,,,,2392.6701392829636,None,2392.6701392829636,None,None,1,None,None,,015,001,2,28,f,2021_Nov_10_1439,eye_tracking_exp,2021.2.3,84.98995656917724,
0,0,-12,0,0,0,-12,0,90,0,j,present,resp,freq_bottom,,,,,0,330,330,634,,,0.881542503645295,,,,,,,,,,2421.389248854801,None,2421.389248854801,None,j,1,None,None,1.978123273653182,015,001,2,28,f,2021_Nov_10_1439,eye_tracking_exp,2021.2.3,84.98995656917724,
180,180,180,0,12,0,-168,0,0,180,None,abs,inhibit,freq_bottom,,,,,0,331,331,482,,,0.9600342461411606,,,,,,,,,,2424.413285006074,None,2424.413285006074,None,None,1,None,None,,015,001,2,28,f,2021_Nov_10_1439,eye_tracking_exp,2021.2.3,84.98995656917724,
0,-12,0,-12,0,0,270,180,180,180,j,present,resp,freq_bottom,,,,,0,332,332,609,,,0.9044924004348729,,,,,,,,,,2428.61733044207,None,2428.61733044207,None,f,0,2429.7101040517155,None,1.0699086455606448,015,001,2,28,f,2021_Nov_10_1439,eye_tracking_exp,2021.2.3,84.98995656917724,
